Tiempo,ImagenesE,ClaveEn,Emocion,NumEn,Enunciado,ActoHabla,Clave,Cara,trials.thisRepN,trials.thisTrialN,trials.thisN,trials.thisIndex,Bloque1.thisRepN,Bloque1.thisTrialN,Bloque1.thisN,Bloque1.thisIndex,Bloque2.thisRepN,Bloque2.thisTrialN,Bloque2.thisN,Bloque2.thisIndex,Bloque3.thisRepN,Bloque3.thisTrialN,Bloque3.thisN,Bloque3.thisIndex,Resp_Bloque1.keys,Resp_Bloque1.rt,Resp_Bloque2.keys,Resp_Bloque2.rt,Resp_Bloque3.keys,Resp_Bloque3.rt,date,frameRate,expName,session,participant,
0.25,Stim\\03_028.jpg,Tr28_2,Tristeza,2,Jonathan pasea al perro.,Afirmación,Tr28,28,,,,,0,0,0,0,,,,,,,,,3,0.450284683582,,,,,2018_may._02_1249,60.0083281338,Experimento Piloto1,001,101,
2.5,Stim\\05_075.jpg,En75_12,Enojo,12,Ana compra el libro.,Afirmación,En75,75,,,,,0,1,1,1,,,,,,,,,3,1.76649074103,,,,,2018_may._02_1249,60.0083281338,Experimento Piloto1,001,101,
0.25,Stim\\02_078.jpg,Al78_11,Alegría,11,María asiste a la cena.,Afirmación,Al78,78,,,,,0,2,2,2,,,,,,,,,3,0.766599179172,,,,,2018_may._02_1249,60.0083281338,Experimento Piloto1,001,101,
0.25,Stim\\02_078.jpg,Al78_8,Alegría,8,Estefanía despierta a las 7 a.m.,Afirmación,Al78,78,,,,,0,3,3,3,,,,,,,,,3,1.51669032522,,,,,2018_may._02_1249,60.0083281338,Experimento Piloto1,001,101,
0.25,Stim\\05_028.jpg,En28_6,Enojo,6,Eduardo camina hacia la biblioteca.,Afirmación,En28,28,,,,,0,4,4,4,,,,,,,,,3,0.750228144025,,,,,2018_may._02_1249,60.0083281338,Experimento Piloto1,001,101,
0.25,Stim\\02_019.jpg,Al19_14,Alegría,14,Elizabeth elige la ropa un día antes.,Afirmación,Al19,19,,,,,0,5,5,5,,,,,,,,,3,0.50040675458,,,,,2018_may._02_1249,60.0083281338,Experimento Piloto1,001,101,
2.5,Stim\\05_078.jpg,En78_1,Enojo,1,Juan colecciona monedas antiguas.,Afirmación,En78,78,,,,,0,6,6,6,,,,,,,,,3,1.41695758284,,,,,2018_may._02_1249,60.0083281338,Experimento Piloto1,001,101,
2.5,Stim\\02_078.jpg,Al78_15,Alegría,15,Ángel envía una carta a la abuela.,Afirmación,Al78,78,,,,,0,7,7,7,,,,,,,,,3,0.966891114276,,,,,2018_may._02_1249,60.0083281338,Experimento Piloto1,001,101,
0.25,Stim\\02_075.jpg,Al75_14,Alegría,14,Elizabeth elige la ropa un día antes.,Afirmación,Al75,75,,,,,0,8,8,8,,,,,,,,,3,0.600252843823,,,,,2018_may._02_1249,60.0083281338,Experimento Piloto1,001,101,
2.5,Stim\\02_075.jpg,Al75_2,Alegría,2,Jonathan pasea al perro.,Afirmación,Al75,75,,,,,0,9,9,9,,,,,,,,,3,0.500247444229,,,,,2018_may._02_1249,60.0083281338,Experimento Piloto1,001,101,
0.25,Stim\\05_075.jpg,En75_12,Enojo,12,Ana compra el libro.,Afirmación,En75,75,,,,,0,10,10,10,,,,,,,,,3,0.550307486828,,,,,2018_may._02_1249,60.0083281338,Experimento Piloto1,001,101,
2.5,Stim\\03_078.jpg,Tr78_8,Tristeza,8,Estefanía despierta a las 7 a.m.,Afirmación,Tr78,78,,,,,0,11,11,11,,,,,,,,,3,0.800410458434,,,,,2018_may._02_1249,60.0083281338,Experimento Piloto1,001,101,
0.25,Stim\\03_078.jpg,Tr78_15,Tristeza,15,Ángel envía una carta a la abuela.,Afirmación,Tr78,78,,,,,0,12,12,12,,,,,,,,,3,0.800085590267,,,,,2018_may._02_1249,60.0083281338,Experimento Piloto1,001,101,
0.25,Stim\\03_078.jpg,Tr78_5,Tristeza,5,Emilio revisa el formato del archivo.,Afirmación,Tr78,78,,,,,0,13,13,13,,,,,,,,,3,0.600264000011,,,,,2018_may._02_1249,60.0083281338,Experimento Piloto1,001,101,
2.5,Stim\\02_019.jpg,Al19_5,Alegría,5,Emilio revisa el formato del archivo.,Afirmación,Al19,19,,,,,0,14,14,14,,,,,,,,,3,0.866588960105,,,,,2018_may._02_1249,60.0083281338,Experimento Piloto1,001,101,
2.5,Stim\\03_075.jpg,Tr75_10,Tristeza,10,Laura finaliza la obra.,Afirmación,Tr75,75,,,,,0,15,15,15,,,,,,,,,3,0.716620353616,,,,,2018_may._02_1249,60.0083281338,Experimento Piloto1,001,101,
2.5,Stim\\03_075.jpg,Tr75_4,Tristeza,4,Jorge sustituye a Gustavo cada sábado.,Afirmación,Tr75,75,,,,,0,16,16,16,,,,,,,,,3,0.450439977705,,,,,2018_may._02_1249,60.0083281338,Experimento Piloto1,001,101,
0.25,Stim\\03_028.jpg,Tr28_5,Tristeza,5,Emilio revisa el formato del archivo.,Afirmación,Tr28,28,,,,,0,17,17,17,,,,,,,,,3,0.48368363017,,,,,2018_may._02_1249,60.0083281338,Experimento Piloto1,001,101,
0.25,Stim\\05_075.jpg,En75_11,Enojo,11,María asiste a la cena.,Afirmación,En75,75,,,,,0,18,18,18,,,,,,,,,3,2.44991072819,,,,,2018_may._02_1249,60.0083281338,Experimento Piloto1,001,101,
0.25,Stim\\02_075.jpg,Al75_6,Alegría,6,Eduardo camina hacia la biblioteca.,Afirmación,Al75,75,,,,,0,19,19,19,,,,,,,,,3,0.700121691688,,,,,2018_may._02_1249,60.0083281338,Experimento Piloto1,001,101,
0.25,Stim\\05_078.jpg,En78_1,Enojo,1,Juan colecciona monedas antiguas.,Afirmación,En78,78,,,,,0,20,20,20,,,,,,,,,3,0.450282006097,,,,,2018_may._02_1249,60.0083281338,Experimento Piloto1,001,101,
2.5,Stim\\03_019.jpg,Tr19_4,Tristeza,4,Jorge sustituye a Gustavo cada sábado.,Afirmación,Tr19,19,,,,,0,21,21,21,,,,,,,,,3,0.333764110903,,,,,2018_may._02_1249,60.0083281338,Experimento Piloto1,001,101,
0.25,Stim\\03_028.jpg,Tr28_11,Tristeza,11,María asiste a la cena.,Afirmación,Tr28,28,,,,,0,22,22,22,,,,,,,,,3,0.450353851941,,,,,2018_may._02_1249,60.0083281338,Experimento Piloto1,001,101,
0.25,Stim\\02_019.jpg,Al19_7,Alegría,7,Roberto contesta los cuestionarios solicitados.,Afirmación,Al19,19,,,,,0,23,23,23,,,,,,,,,3,0.500330000013,,,,,2018_may._02_1249,60.0083281338,Experimento Piloto1,001,101,
0.25,Stim\\05_028.jpg,En28_1,Enojo,1,Juan colecciona monedas antiguas.,Afirmación,En28,28,,,,,0,24,24,24,,,,,,,,,3,0.483690323882,,,,,2018_may._02_1249,60.0083281338,Experimento Piloto1,001,101,
0.25,Stim\\03_019.jpg,Tr19_6,Tristeza,6,Eduardo camina hacia la biblioteca.,Afirmación,Tr19,19,,,,,0,25,25,25,,,,,,,,,3,0.533645498323,,,,,2018_may._02_1249,60.0083281338,Experimento Piloto1,001,101,
0.25,Stim\\03_078.jpg,Tr78_7,Tristeza,7,Roberto contesta los cuestionarios solicitados.,Afirmación,Tr78,78,,,,,0,26,26,26,,,,,,,,,3,0.450422127806,,,,,2018_may._02_1249,60.0083281338,Experimento Piloto1,001,101,
2.5,Stim\\03_019.jpg,Tr19_15,Tristeza,15,Ángel envía una carta a la abuela.,Afirmación,Tr19,19,,,,,0,27,27,27,,,,,,,,,3,0.40023758216,,,,,2018_may._02_1249,60.0083281338,Experimento Piloto1,001,101,
2.5,Stim\\02_028.jpg,Al28_4,Alegría,4,Jorge sustituye a Gustavo cada sábado.,Afirmación,Al28,28,,,,,0,28,28,28,,,,,,,,,3,0.400324154171,,,,,2018_may._02_1249,60.0083281338,Experimento Piloto1,001,101,
2.5,Stim\\03_078.jpg,Tr78_5,Tristeza,5,Emilio revisa el formato del archivo.,Afirmación,Tr78,78,,,,,0,29,29,29,,,,,,,,,3,0.383588981078,,,,,2018_may._02_1249,60.0083281338,Experimento Piloto1,001,101,
2.5,Stim\\03_028.jpg,Tr28_12,Tristeza,12,Ana compra el libro.,Afirmación,Tr28,28,,,,,0,30,30,30,,,,,,,,,3,0.400219732261,,,,,2018_may._02_1249,60.0083281338,Experimento Piloto1,001,101,
0.25,Stim\\02_028.jpg,Al28_2,Alegría,2,Jonathan pasea al perro.,Afirmación,Al28,28,,,,,0,31,31,31,,,,,,,,,3,0.450672472644,,,,,2018_may._02_1249,60.0083281338,Experimento Piloto1,001,101,
0.25,Stim\\05_019.jpg,En19_8,Enojo,8,Estefanía despierta a las 7 a.m.,Afirmación,En19,19,,,,,0,32,32,32,,,,,,,,,3,0.450301640986,,,,,2018_may._02_1249,60.0083281338,Experimento Piloto1,001,101,
0.25,Stim\\03_019.jpg,Tr19_9,Tristeza,9,Marco colabora en la organización del evento.,Afirmación,Tr19,19,,,,,0,33,33,33,,,,,,,,,3,0.533695031793,,,,,2018_may._02_1249,60.0083281338,Experimento Piloto1,001,101,
2.5,Stim\\02_078.jpg,Al78_10,Alegría,10,Laura finaliza la obra.,Afirmación,Al78,78,,,,,0,34,34,34,,,,,,,,,3,0.400318352954,,,,,2018_may._02_1249,60.0083281338,Experimento Piloto1,001,101,
2.5,Stim\\02_075.jpg,Al75_15,Alegría,15,Ángel envía una carta a la abuela.,Afirmación,Al75,75,,,,,0,35,35,35,,,,,,,,,3,0.550323551737,,,,,2018_may._02_1249,60.0083281338,Experimento Piloto1,001,101,
2.5,Stim\\03_028.jpg,Tr28_6,Tristeza,6,Eduardo camina hacia la biblioteca.,Afirmación,Tr28,28,,,,,0,36,36,36,,,,,,,,,3,0.39998411359,,,,,2018_may._02_1249,60.0083281338,Experimento Piloto1,001,101,
0.25,Stim\\03_075.jpg,Tr75_14,Tristeza,14,Elizabeth elige la ropa un día antes.,Afirmación,Tr75,75,,,,,0,37,37,37,,,,,,,,,3,0.400350929021,,,,,2018_may._02_1249,60.0083281338,Experimento Piloto1,001,101,
2.5,Stim\\05_075.jpg,En75_13,Enojo,13,Rocío consume alimentos nutritivos.,Afirmación,En75,75,,,,,0,38,38,38,,,,,,,,,3,0.333699405018,,,,,2018_may._02_1249,60.0083281338,Experimento Piloto1,001,101,
2.5,Stim\\03_075.jpg,Tr75_8,Tristeza,8,Estefanía despierta a las 7 a.m.,Afirmación,Tr75,75,,,,,0,39,39,39,,,,,,,,,3,0.383494376612,,,,,2018_may._02_1249,60.0083281338,Experimento Piloto1,001,101,
0.25,Stim\\05_075.jpg,En75_7,Enojo,7,Roberto contesta los cuestionarios solicitados.,Afirmación,En75,75,,,,,0,40,40,40,,,,,,,,,3,0.500495557829,,,,,2018_may._02_1249,60.0083281338,Experimento Piloto1,001,101,
2.5,Stim\\03_019.jpg,Tr19_10,Tristeza,10,Laura finaliza la obra.,Afirmación,Tr19,19,,,,,0,41,41,41,,,,,,,,,3,0.350340419892,,,,,2018_may._02_1249,60.0083281338,Experimento Piloto1,001,101,
2.5,Stim\\03_019.jpg,Tr19_2,Tristeza,2,Jonathan pasea al perro.,Afirmación,Tr19,19,,,,,0,42,42,42,,,,,,,,,3,0.283744676825,,,,,2018_may._02_1249,60.0083281338,Experimento Piloto1,001,101,
0.25,Stim\\03_075.jpg,Tr75_15,Tristeza,15,Ángel envía una carta a la abuela.,Afirmación,Tr75,75,,,,,0,43,43,43,,,,,,,,,3,0.650163839763,,,,,2018_may._02_1249,60.0083281338,Experimento Piloto1,001,101,
0.25,Stim\\05_019.jpg,En19_1,Enojo,1,Juan colecciona monedas antiguas.,Afirmación,En19,19,,,,,0,44,44,44,,,,,,,,,3,0.500457180546,,,,,2018_may._02_1249,60.0083281338,Experimento Piloto1,001,101,
0.25,Stim\\03_078.jpg,Tr78_2,Tristeza,2,Jonathan pasea al perro.,Afirmación,Tr78,78,,,,,0,45,45,45,,,,,,,,,3,0.383659934429,,,,,2018_may._02_1249,60.0083281338,Experimento Piloto1,001,101,
2.5,Stim\\02_019.jpg,Al19_9,Alegría,9,Marco colabora en la organización del evento.,Afirmación,Al19,19,,,,,0,46,46,46,,,,,,,,,3,0.283852222469,,,,,2018_may._02_1249,60.0083281338,Experimento Piloto1,001,101,
2.5,Stim\\03_028.jpg,Tr28_11,Tristeza,11,María asiste a la cena.,Afirmación,Tr28,28,,,,,0,47,47,47,,,,,,,,,3,0.283866502388,,,,,2018_may._02_1249,60.0083281338,Experimento Piloto1,001,101,
2.5,Stim\\05_078.jpg,En78_6,Enojo,6,Eduardo camina hacia la biblioteca.,Afirmación,En78,78,,,,,0,48,48,48,,,,,,,,,3,0.283664798526,,,,,2018_may._02_1249,60.0083281338,Experimento Piloto1,001,101,
2.5,Stim\\02_028.jpg,Al28_14,Alegría,14,Elizabeth elige la ropa un día antes.,Afirmación,Al28,28,,,,,0,49,49,49,,,,,,,,,3,0.300354900623,,,,,2018_may._02_1249,60.0083281338,Experimento Piloto1,001,101,
0.25,Stim\\03_019.jpg,Tr19_10,Tristeza,10,Laura finaliza la obra.,Afirmación,Tr19,19,,,,,0,50,50,50,,,,,,,,,3,0.300403987846,,,,,2018_may._02_1249,60.0083281338,Experimento Piloto1,001,101,
2.5,Stim\\05_019.jpg,En19_2,Enojo,2,Jonathan pasea al perro.,Afirmación,En19,19,,,,,0,51,51,51,,,,,,,,,3,0.33364585532,,,,,2018_may._02_1249,60.0083281338,Experimento Piloto1,001,101,
0.25,Stim\\05_078.jpg,En78_5,Enojo,5,Emilio revisa el formato del archivo.,Afirmación,En78,78,,,,,0,52,52,52,,,,,,,,,3,0.33370966871,,,,,2018_may._02_1249,60.0083281338,Experimento Piloto1,001,101,
2.5,Stim\\02_075.jpg,Al75_5,Alegría,5,Emilio revisa el formato del archivo.,Afirmación,Al75,75,,,,,0,53,53,53,,,,,,,,,3,0.283806258978,,,,,2018_may._02_1249,60.0083281338,Experimento Piloto1,001,101,
0.25,Stim\\05_028.jpg,En28_9,Enojo,9,Marco colabora en la organización del evento.,Afirmación,En28,28,,,,,0,54,54,54,,,,,,,,,3,0.333576240713,,,,,2018_may._02_1249,60.0083281338,Experimento Piloto1,001,101,
2.5,Stim\\03_019.jpg,Tr19_1,Tristeza,1,Juan colecciona monedas antiguas.,Afirmación,Tr19,19,,,,,0,55,55,55,,,,,,,,,3,0.300462892514,,,,,2018_may._02_1249,60.0083281338,Experimento Piloto1,001,101,
0.25,Stim\\02_028.jpg,Al28_3,Alegría,3,Andrea diseña la portada del libro.,Afirmación,Al28,28,,,,,0,56,56,56,,,,,,,,,3,0.300409342816,,,,,2018_may._02_1249,60.0083281338,Experimento Piloto1,001,101,
0.25,Stim\\05_028.jpg,En28_5,Enojo,5,Emilio revisa el formato del archivo.,Afirmación,En28,28,,,,,0,57,57,57,,,,,,,,,3,0.33365478027,,,,,2018_may._02_1249,60.0083281338,Experimento Piloto1,001,101,
2.5,Stim\\03_078.jpg,Tr78_15,Tristeza,15,Ángel envía una carta a la abuela.,Afirmación,Tr78,78,,,,,0,58,58,58,,,,,,,,,3,0.350358269791,,,,,2018_may._02_1249,60.0083281338,Experimento Piloto1,001,101,
0.25,Stim\\02_078.jpg,Al78_10,Alegría,10,Laura finaliza la obra.,Afirmación,Al78,78,,,,,0,59,59,59,,,,,,,,,3,0.283667922258,,,,,2018_may._02_1249,60.0083281338,Experimento Piloto1,001,101,
0.25,Stim\\03_075.jpg,Tr75_7,Tristeza,7,Roberto contesta los cuestionarios solicitados.,Afirmación,Tr75,75,,,,,0,60,60,60,,,,,,,,,3,0.33365121029,,,,,2018_may._02_1249,60.0083281338,Experimento Piloto1,001,101,
0.25,Stim\\03_075.jpg,Tr75_5,Tristeza,5,Emilio revisa el formato del archivo.,Afirmación,Tr75,75,,,,,0,61,61,61,,,,,,,,,3,0.256395953606,,,,,2018_may._02_1249,60.0083281338,Experimento Piloto1,001,101,
0.25,Stim\\05_075.jpg,En75_14,Enojo,14,Elizabeth elige la ropa un día antes.,Afirmación,En75,75,,,,,0,62,62,62,,,,,,,,,3,0.350670643029,,,,,2018_may._02_1249,60.0083281338,Experimento Piloto1,001,101,
0.25,Stim\\05_075.jpg,En75_2,Enojo,2,Jonathan pasea al perro.,Afirmación,En75,75,,,,,0,63,63,63,,,,,,,,,3,0.283766542952,,,,,2018_may._02_1249,60.0083281338,Experimento Piloto1,001,101,
0.25,Stim\\02_078.jpg,Al78_6,Alegría,6,Eduardo camina hacia la biblioteca.,Afirmación,Al78,78,,,,,0,64,64,64,,,,,,,,,3,0.333643177835,,,,,2018_may._02_1249,60.0083281338,Experimento Piloto1,001,101,
0.25,Stim\\03_075.jpg,Tr75_4,Tristeza,4,Jorge sustituye a Gustavo cada sábado.,Afirmación,Tr75,75,,,,,0,65,65,65,,,,,,,,,3,0.333872995289,,,,,2018_may._02_1249,60.0083281338,Experimento Piloto1,001,101,
0.25,Stim\\03_075.jpg,Tr75_3,Tristeza,3,Andrea diseña la portada del libro.,Afirmación,Tr75,75,,,,,0,66,66,66,,,,,,,,,3,0.283319402974,,,,,2018_may._02_1249,60.0083281338,Experimento Piloto1,001,101,
0.25,Stim\\02_028.jpg,Al28_10,Alegría,10,Laura finaliza la obra.,Afirmación,Al28,28,,,,,0,67,67,67,,,,,,,,,3,0.283802688998,,,,,2018_may._02_1249,60.0083281338,Experimento Piloto1,001,101,
0.25,Stim\\03_028.jpg,Tr28_12,Tristeza,12,Ana compra el libro.,Afirmación,Tr28,28,,,,,0,68,68,68,,,,,,,,,3,0.350626018281,,,,,2018_may._02_1249,60.0083281338,Experimento Piloto1,001,101,
0.25,Stim\\03_075.jpg,Tr75_10,Tristeza,10,Laura finaliza la obra.,Afirmación,Tr75,75,,,,,0,69,69,69,,,,,,,,,3,0.300440580139,,,,,2018_may._02_1249,60.0083281338,Experimento Piloto1,001,101,
0.25,Stim\\02_028.jpg,Al28_8,Alegría,8,Estefanía despierta a las 7 a.m.,Afirmación,Al28,28,,,,,0,70,70,70,,,,,,,,,3,0.300310722123,,,,,2018_may._02_1249,60.0083281338,Experimento Piloto1,001,101,
0.25,Stim\\05_078.jpg,En78_14,Enojo,14,Elizabeth elige la ropa un día antes.,Afirmación,En78,78,,,,,0,71,71,71,,,,,,,,,3,0.2838290176,,,,,2018_may._02_1249,60.0083281338,Experimento Piloto1,001,101,
2.5,Stim\\03_078.jpg,Tr78_9,Tristeza,9,Marco colabora en la organización del evento.,Afirmación,Tr78,78,,,,,0,72,72,72,,,,,,,,,3,0.300352223138,,,,,2018_may._02_1249,60.0083281338,Experimento Piloto1,001,101,
0.25,Stim\\02_019.jpg,Al19_3,Alegría,3,Andrea diseña la portada del libro.,Afirmación,Al19,19,,,,,0,73,73,73,,,,,,,,,3,0.283832141332,,,,,2018_may._02_1249,60.0083281338,Experimento Piloto1,001,101,
0.25,Stim\\03_078.jpg,Tr78_6,Tristeza,6,Eduardo camina hacia la biblioteca.,Afirmación,Tr78,78,,,,,0,74,74,74,,,,,,,,,3,0.28450776002,,,,,2018_may._02_1249,60.0083281338,Experimento Piloto1,001,101,
0.25,Stim\\03_028.jpg,Tr28_8,Tristeza,8,Estefanía despierta a las 7 a.m.,Afirmación,Tr28,28,,,,,0,75,75,75,,,,,,,,,3,0.300366949305,,,,,2018_may._02_1249,60.0083281338,Experimento Piloto1,001,101,
2.5,Stim\\05_078.jpg,En78_9,Enojo,9,Marco colabora en la organización del evento.,Afirmación,En78,78,,,,,0,76,76,76,,,,,,,,,3,0.333695388791,,,,,2018_may._02_1249,60.0083281338,Experimento Piloto1,001,101,
2.5,Stim\\02_028.jpg,Al28_6,Alegría,6,Eduardo camina hacia la biblioteca.,Afirmación,Al28,28,,,,,0,77,77,77,,,,,,,,,3,0.300339728209,,,,,2018_may._02_1249,60.0083281338,Experimento Piloto1,001,101,
2.5,Stim\\03_078.jpg,Tr78_6,Tristeza,6,Eduardo camina hacia la biblioteca.,Afirmación,Tr78,78,,,,,0,78,78,78,,,,,,,,,3,0.333662812725,,,,,2018_may._02_1249,60.0083281338,Experimento Piloto1,001,101,
2.5,Stim\\02_078.jpg,Al78_2,Alegría,2,Jonathan pasea al perro.,Afirmación,Al78,78,,,,,0,79,79,79,,,,,,,,,3,0.283881674803,,,,,2018_may._02_1249,60.0083281338,Experimento Piloto1,001,101,
2.5,Stim\\02_028.jpg,Al28_10,Alegría,10,Laura finaliza la obra.,Afirmación,Al28,28,,,,,0,80,80,80,,,,,,,,,3,0.350278391492,,,,,2018_may._02_1249,60.0083281338,Experimento Piloto1,001,101,
2.5,Stim\\02_019.jpg,Al19_15,Alegría,15,Ángel envía una carta a la abuela.,Afirmación,Al19,19,,,,,0,81,81,81,,,,,,,,,3,0.333756078448,,,,,2018_may._02_1249,60.0083281338,Experimento Piloto1,001,101,
0.25,Stim\\03_019.jpg,Tr19_5,Tristeza,5,Emilio revisa el formato del archivo.,Afirmación,Tr19,19,,,,,0,82,82,82,,,,,,,,,3,0.400305858025,,,,,2018_may._02_1249,60.0083281338,Experimento Piloto1,001,101,
0.25,Stim\\02_075.jpg,Al75_12,Alegría,12,Ana compra el libro.,Afirmación,Al75,75,,,,,0,83,83,83,,,,,,,,,3,0.28381295269,,,,,2018_may._02_1249,60.0083281338,Experimento Piloto1,001,101,
2.5,Stim\\05_078.jpg,En78_3,Enojo,3,Andrea diseña la portada del libro.,Afirmación,En78,78,,,,,0,84,84,84,,,,,,,,,3,0.300333480744,,,,,2018_may._02_1249,60.0083281338,Experimento Piloto1,001,101,
2.5,Stim\\03_075.jpg,Tr75_5,Tristeza,5,Emilio revisa el formato del archivo.,Afirmación,Tr75,75,,,,,0,85,85,85,,,,,,,,,3,0.300344190683,,,,,2018_may._02_1249,60.0083281338,Experimento Piloto1,001,101,
2.5,Stim\\05_028.jpg,En28_2,Enojo,2,Jonathan pasea al perro.,Afirmación,En28,28,,,,,0,86,86,86,,,,,,,,,3,0.300507071014,,,,,2018_may._02_1249,60.0083281338,Experimento Piloto1,001,101,
0.25,Stim\\03_028.jpg,Tr28_9,Tristeza,9,Marco colabora en la organización del evento.,Afirmación,Tr28,28,,,,,0,87,87,87,,,,,,,,,3,0.350116849903,,,,,2018_may._02_1249,60.0083281338,Experimento Piloto1,001,101,
0.25,Stim\\03_078.jpg,Tr78_9,Tristeza,9,Marco colabora en la organización del evento.,Afirmación,Tr78,78,,,,,0,88,88,88,,,,,,,,,3,0.350411819489,,,,,2018_may._02_1249,60.0083281338,Experimento Piloto1,001,101,
2.5,Stim\\03_075.jpg,Tr75_12,Tristeza,12,Ana compra el libro.,Afirmación,Tr75,75,,,,,0,89,89,89,,,,,,,,,3,0.3334013117,,,,,2018_may._02_1249,60.0083281338,Experimento Piloto1,001,101,
2.5,Stim\\05_078.jpg,En78_11,Enojo,11,María asiste a la cena.,Afirmación,En78,78,,,,,0,90,90,90,,,,,,,,,3,0.350027600407,,,,,2018_may._02_1249,60.0083281338,Experimento Piloto1,001,101,
2.5,Stim\\02_075.jpg,Al75_14,Alegría,14,Elizabeth elige la ropa un día antes.,Afirmación,Al75,75,,,,,0,91,91,91,,,,,,,,,3,0.333680216376,,,,,2018_may._02_1249,60.0083281338,Experimento Piloto1,001,101,
0.25,Stim\\03_019.jpg,Tr19_7,Tristeza,7,Roberto contesta los cuestionarios solicitados.,Afirmación,Tr19,19,,,,,0,92,92,92,,,,,,,,,3,0.333723056135,,,,,2018_may._02_1249,60.0083281338,Experimento Piloto1,001,101,
0.25,Stim\\05_075.jpg,En75_5,Enojo,5,Emilio revisa el formato del archivo.,Afirmación,En75,75,,,,,0,93,93,93,,,,,,,,,3,0.283827678857,,,,,2018_may._02_1249,60.0083281338,Experimento Piloto1,001,101,
2.5,Stim\\05_019.jpg,En19_14,Enojo,14,Elizabeth elige la ropa un día antes.,Afirmación,En19,19,,,,,0,94,94,94,,,,,,,,,3,0.333632467896,,,,,2018_may._02_1249,60.0083281338,Experimento Piloto1,001,101,
0.25,Stim\\02_075.jpg,Al75_2,Alegría,2,Jonathan pasea al perro.,Afirmación,Al75,75,,,,,0,95,95,95,,,,,,,,,3,0.350329263705,,,,,2018_may._02_1249,60.0083281338,Experimento Piloto1,001,101,
2.5,Stim\\03_028.jpg,Tr28_10,Tristeza,10,Laura finaliza la obra.,Afirmación,Tr28,28,,,,,0,96,96,96,,,,,,,,,3,0.283706745789,,,,,2018_may._02_1249,60.0083281338,Experimento Piloto1,001,101,
2.5,Stim\\02_078.jpg,Al78_3,Alegría,3,Andrea diseña la portada del libro.,Afirmación,Al78,78,,,,,0,97,97,97,,,,,,,,,3,0.283596968909,,,,,2018_may._02_1249,60.0083281338,Experimento Piloto1,001,101,
2.5,Stim\\05_075.jpg,En75_3,Enojo,3,Andrea diseña la portada del libro.,Afirmación,En75,75,,,,,0,98,98,98,,,,,,,,,3,0.333671737675,,,,,2018_may._02_1249,60.0083281338,Experimento Piloto1,001,101,
2.5,Stim\\03_075.jpg,Tr75_3,Tristeza,3,Andrea diseña la portada del libro.,Afirmación,Tr75,75,,,,,0,99,99,99,,,,,,,,,3,0.250239969584,,,,,2018_may._02_1249,60.0083281338,Experimento Piloto1,001,101,
2.5,Stim\\03_075.jpg,Tr75_7,Tristeza,7,Roberto contesta los cuestionarios solicitados.,Afirmación,Tr75,75,,,,,0,100,100,100,,,,,,,,,3,0.300419606508,,,,,2018_may._02_1249,60.0083281338,Experimento Piloto1,001,101,
2.5,Stim\\03_019.jpg,Tr19_14,Tristeza,14,Elizabeth elige la ropa un día antes.,Afirmación,Tr19,19,,,,,0,101,101,101,,,,,,,,,3,0.233684634227,,,,,2018_may._02_1249,60.0083281338,Experimento Piloto1,001,101,
2.5,Stim\\05_078.jpg,En78_5,Enojo,5,Emilio revisa el formato del archivo.,Afirmación,En78,78,,,,,0,102,102,102,,,,,,,,,3,0.234297778268,,,,,2018_may._02_1249,60.0083281338,Experimento Piloto1,001,101,
2.5,Stim\\02_078.jpg,Al78_12,Alegría,12,Ana compra el libro.,Afirmación,Al78,78,,,,,0,103,103,103,,,,,,,,,3,0.283786177841,,,,,2018_may._02_1249,60.0083281338,Experimento Piloto1,001,101,
2.5,Stim\\02_028.jpg,Al28_13,Alegría,13,Rocío consume alimentos nutritivos.,Afirmación,Al28,28,,,,,0,104,104,104,,,,,,,,,3,0.350320785003,,,,,2018_may._02_1249,60.0083281338,Experimento Piloto1,001,101,
2.5,Stim\\05_028.jpg,En28_4,Enojo,4,Jorge sustituye a Gustavo cada sábado.,Afirmación,En28,28,,,,,0,105,105,105,,,,,,,,,3,0.283813845185,,,,,2018_may._02_1249,60.0083281338,Experimento Piloto1,001,101,
0.25,Stim\\02_028.jpg,Al28_7,Alegría,7,Roberto contesta los cuestionarios solicitados.,Afirmación,Al28,28,,,,,0,106,106,106,,,,,,,,,3,0.300283054778,,,,,2018_may._02_1249,60.0083281338,Experimento Piloto1,001,101,
0.25,Stim\\02_078.jpg,Al78_12,Alegría,12,Ana compra el libro.,Afirmación,Al78,78,,,,,0,107,107,107,,,,,,,,,3,0.283732181896,,,,,2018_may._02_1249,60.0083281338,Experimento Piloto1,001,101,
2.5,Stim\\02_028.jpg,Al28_7,Alegría,7,Roberto contesta los cuestionarios solicitados.,Afirmación,Al28,28,,,,,0,108,108,108,,,,,,,,,3,0.250378752551,,,,,2018_may._02_1249,60.0083281338,Experimento Piloto1,001,101,
0.25,Stim\\02_075.jpg,Al75_7,Alegría,7,Roberto contesta los cuestionarios solicitados.,Afirmación,Al75,75,,,,,0,109,109,109,,,,,,,,,3,0.250434979734,,,,,2018_may._02_1249,60.0083281338,Experimento Piloto1,001,101,
0.25,Stim\\05_075.jpg,En75_10,Enojo,10,Laura finaliza la obra.,Afirmación,En75,75,,,,,0,110,110,110,,,,,,,,,3,0.333724394878,,,,,2018_may._02_1249,60.0083281338,Experimento Piloto1,001,101,
2.5,Stim\\05_028.jpg,En28_8,Enojo,8,Estefanía despierta a las 7 a.m.,Afirmación,En28,28,,,,,0,111,111,111,,,,,,,,,3,0.383527845174,,,,,2018_may._02_1249,60.0083281338,Experimento Piloto1,001,101,
0.25,Stim\\03_075.jpg,Tr75_6,Tristeza,6,Eduardo camina hacia la biblioteca.,Afirmación,Tr75,75,,,,,0,112,112,112,,,,,,,,,3,0.283751816785,,,,,2018_may._02_1249,60.0083281338,Experimento Piloto1,001,101,
0.25,Stim\\02_078.jpg,Al78_4,Alegría,4,Jorge sustituye a Gustavo cada sábado.,Afirmación,Al78,78,,,,,0,113,113,113,,,,,,,,,3,0.283686218405,,,,,2018_may._02_1249,60.0083281338,Experimento Piloto1,001,101,
2.5,Stim\\02_019.jpg,Al19_13,Alegría,13,Rocío consume alimentos nutritivos.,Afirmación,Al19,19,,,,,0,114,114,114,,,,,,,,,3,0.250348407722,,,,,2018_may._02_1249,60.0083281338,Experimento Piloto1,001,101,
0.25,Stim\\02_078.jpg,Al78_15,Alegría,15,Ángel envía una carta a la abuela.,Afirmación,Al78,78,,,,,0,115,115,115,,,,,,,,,3,0.283712993254,,,,,2018_may._02_1249,60.0083281338,Experimento Piloto1,001,101,
2.5,Stim\\05_019.jpg,En19_4,Enojo,4,Jorge sustituye a Gustavo cada sábado.,Afirmación,En19,19,,,,,0,116,116,116,,,,,,,,,3,0.283565285337,,,,,2018_may._02_1249,60.0083281338,Experimento Piloto1,001,101,
2.5,Stim\\05_075.jpg,En75_9,Enojo,9,Marco colabora en la organización del evento.,Afirmación,En75,75,,,,,0,117,117,117,,,,,,,,,3,0.333816768106,,,,,2018_may._02_1249,60.0083281338,Experimento Piloto1,001,101,
0.25,Stim\\05_078.jpg,En78_8,Enojo,8,Estefanía despierta a las 7 a.m.,Afirmación,En78,78,,,,,0,118,118,118,,,,,,,,,3,0.300178632867,,,,,2018_may._02_1249,60.0083281338,Experimento Piloto1,001,101,
0.25,Stim\\03_075.jpg,Tr75_12,Tristeza,12,Ana compra el libro.,Afirmación,Tr75,75,,,,,0,119,119,119,,,,,,,,,3,0.349980744421,,,,,2018_may._02_1249,60.0083281338,Experimento Piloto1,001,101,
2.5,Stim\\03_028.jpg,Tr28_1,Tristeza,1,Juan colecciona monedas antiguas.,Afirmación,Tr28,28,,,,,,,,,0,0,0,0,,,,,,,3,0.400521395559,,,2018_may._02_1249,60.0083281338,Experimento Piloto1,001,101,
0.25,Stim\\03_019.jpg,Tr19_1,Tristeza,1,Juan colecciona monedas antiguas.,Afirmación,Tr19,19,,,,,,,,,0,1,1,1,,,,,,,3,0.350479202859,,,2018_may._02_1249,60.0083281338,Experimento Piloto1,001,101,
2.5,Stim\\03_078.jpg,Tr78_10,Tristeza,10,Laura finaliza la obra.,Afirmación,Tr78,78,,,,,,,,,0,2,2,2,,,,,,,3,0.283850883726,,,2018_may._02_1249,60.0083281338,Experimento Piloto1,001,101,
0.25,Stim\\02_075.jpg,Al75_5,Alegría,5,Emilio revisa el formato del archivo.,Afirmación,Al75,75,,,,,,,,,0,3,3,3,,,,,,,3,0.283848206241,,,2018_may._02_1249,60.0083281338,Experimento Piloto1,001,101,
0.25,Stim\\02_019.jpg,Al19_15,Alegría,15,Ángel envía una carta a la abuela.,Afirmación,Al19,19,,,,,,,,,0,4,4,4,,,,,,,3,0.300449951337,,,2018_may._02_1249,60.0083281338,Experimento Piloto1,001,101,
2.5,Stim\\02_075.jpg,Al75_7,Alegría,7,Roberto contesta los cuestionarios solicitados.,Afirmación,Al75,75,,,,,,,,,0,5,5,5,,,,,,,3,0.283715670739,,,2018_may._02_1249,60.0083281338,Experimento Piloto1,001,101,
0.25,Stim\\03_075.jpg,Tr75_8,Tristeza,8,Estefanía despierta a las 7 a.m.,Afirmación,Tr75,75,,,,,,,,,0,6,6,6,,,,,,,3,0.28375449427,,,2018_may._02_1249,60.0083281338,Experimento Piloto1,001,101,
0.25,Stim\\02_019.jpg,Al19_11,Alegría,11,María asiste a la cena.,Afirmación,Al19,19,,,,,,,,,0,7,7,7,,,,,,,3,0.300421837745,,,2018_may._02_1249,60.0083281338,Experimento Piloto1,001,101,
2.5,Stim\\02_019.jpg,Al19_2,Alegría,2,Jonathan pasea al perro.,Afirmación,Al19,19,,,,,,,,,0,8,8,8,,,,,,,3,0.283801796503,,,2018_may._02_1249,60.0083281338,Experimento Piloto1,001,101,
2.5,Stim\\05_075.jpg,En75_5,Enojo,5,Emilio revisa el formato del archivo.,Afirmación,En75,75,,,,,,,,,0,9,9,9,,,,,,,3,0.283700498324,,,2018_may._02_1249,60.0083281338,Experimento Piloto1,001,101,
0.25,Stim\\03_078.jpg,Tr78_10,Tristeza,10,Laura finaliza la obra.,Afirmación,Tr78,78,,,,,,,,,0,10,10,10,,,,,,,3,0.300387476689,,,2018_may._02_1249,60.0083281338,Experimento Piloto1,001,101,
0.25,Stim\\02_019.jpg,Al19_6,Alegría,6,Eduardo camina hacia la biblioteca.,Afirmación,Al19,19,,,,,,,,,0,11,11,11,,,,,,,3,0.283794210296,,,2018_may._02_1249,60.0083281338,Experimento Piloto1,001,101,
2.5,Stim\\05_019.jpg,En19_3,Enojo,3,Andrea diseña la portada del libro.,Afirmación,En19,19,,,,,,,,,0,12,12,12,,,,,,,3,0.283663459783,,,2018_may._02_1249,60.0083281338,Experimento Piloto1,001,101,
0.25,Stim\\05_019.jpg,En19_3,Enojo,3,Andrea diseña la portada del libro.,Afirmación,En19,19,,,,,,,,,0,13,13,13,,,,,,,3,0.283639808667,,,2018_may._02_1249,60.0083281338,Experimento Piloto1,001,101,
2.5,Stim\\02_028.jpg,Al28_1,Alegría,1,Juan colecciona monedas antiguas.,Afirmación,Al28,28,,,,,,,,,0,14,14,14,,,,,,,3,0.550325336727,,,2018_may._02_1249,60.0083281338,Experimento Piloto1,001,101,
0.25,Stim\\02_019.jpg,Al19_2,Alegría,2,Jonathan pasea al perro.,Afirmación,Al19,19,,,,,,,,,0,15,15,15,,,,,,,3,0.300297334697,,,2018_may._02_1249,60.0083281338,Experimento Piloto1,001,101,
0.25,Stim\\05_028.jpg,En28_11,Enojo,11,María asiste a la cena.,Afirmación,En28,28,,,,,,,,,0,16,16,16,,,,,,,3,0.28375449427,,,2018_may._02_1249,60.0083281338,Experimento Piloto1,001,101,
0.25,Stim\\03_028.jpg,Tr28_1,Tristeza,1,Juan colecciona monedas antiguas.,Afirmación,Tr28,28,,,,,,,,,0,17,17,17,,,,,,,3,0.333673968912,,,2018_may._02_1249,60.0083281338,Experimento Piloto1,001,101,
0.25,Stim\\03_078.jpg,Tr78_1,Tristeza,1,Juan colecciona monedas antiguas.,Afirmación,Tr78,78,,,,,,,,,0,18,18,18,,,,,,,3,0.333771250863,,,2018_may._02_1249,60.0083281338,Experimento Piloto1,001,101,
0.25,Stim\\02_019.jpg,Al19_1,Alegría,1,Juan colecciona monedas antiguas.,Afirmación,Al19,19,,,,,,,,,0,19,19,19,,,,,,,3,0.300383014215,,,2018_may._02_1249,60.0083281338,Experimento Piloto1,001,101,
0.25,Stim\\02_019.jpg,Al19_10,Alegría,10,Laura finaliza la obra.,Afirmación,Al19,19,,,,,,,,,0,20,20,20,,,,,,,3,0.283844190014,,,2018_may._02_1249,60.0083281338,Experimento Piloto1,001,101,
2.5,Stim\\03_019.jpg,Tr19_13,Tristeza,13,Rocío consume alimentos nutritivos.,Afirmación,Tr19,19,,,,,,,,,0,21,21,21,,,,,,,3,0.283686218405,,,2018_may._02_1249,60.0083281338,Experimento Piloto1,001,101,
2.5,Stim\\05_075.jpg,En75_6,Enojo,6,Eduardo camina hacia la biblioteca.,Afirmación,En75,75,,,,,,,,,0,22,22,22,,,,,,,3,0.283750478043,,,2018_may._02_1249,60.0083281338,Experimento Piloto1,001,101,
0.25,Stim\\05_078.jpg,En78_10,Enojo,10,Laura finaliza la obra.,Afirmación,En78,78,,,,,,,,,0,23,23,23,,,,,,,3,0.250432302249,,,2018_may._02_1249,60.0083281338,Experimento Piloto1,001,101,
2.5,Stim\\05_075.jpg,En75_14,Enojo,14,Elizabeth elige la ropa un día antes.,Afirmación,En75,75,,,,,,,,,0,24,24,24,,,,,,,3,0.283640254914,,,2018_may._02_1249,60.0083281338,Experimento Piloto1,001,101,
0.25,Stim\\05_019.jpg,En19_7,Enojo,7,Roberto contesta los cuestionarios solicitados.,Afirmación,En19,19,,,,,,,,,0,25,25,25,,,,,,,3,0.233684187979,,,2018_may._02_1249,60.0083281338,Experimento Piloto1,001,101,
0.25,Stim\\02_078.jpg,Al78_14,Alegría,14,Elizabeth elige la ropa un día antes.,Afirmación,Al78,78,,,,,,,,,0,26,26,26,,,,,,,3,0.283982972981,,,2018_may._02_1249,60.0083281338,Experimento Piloto1,001,101,
0.25,Stim\\03_028.jpg,Tr28_13,Tristeza,13,Rocío consume alimentos nutritivos.,Afirmación,Tr28,28,,,,,,,,,0,27,27,27,,,,,,,3,0.300465123751,,,2018_may._02_1249,60.0083281338,Experimento Piloto1,001,101,
2.5,Stim\\03_019.jpg,Tr19_8,Tristeza,8,Estefanía despierta a las 7 a.m.,Afirmación,Tr19,19,,,,,,,,,0,28,28,28,,,,,,,3,0.283726826926,,,2018_may._02_1249,60.0083281338,Experimento Piloto1,001,101,
2.5,Stim\\02_019.jpg,Al19_8,Alegría,8,Estefanía despierta a las 7 a.m.,Afirmación,Al19,19,,,,,,,,,0,29,29,29,,,,,,,3,0.23385599326,,,2018_may._02_1249,60.0083281338,Experimento Piloto1,001,101,
2.5,Stim\\02_028.jpg,Al28_9,Alegría,9,Marco colabora en la organización del evento.,Afirmación,Al28,28,,,,,,,,,0,30,30,30,,,,,,,3,0.23378860989,,,2018_may._02_1249,60.0083281338,Experimento Piloto1,001,101,
2.5,Stim\\03_075.jpg,Tr75_1,Tristeza,1,Juan colecciona monedas antiguas.,Afirmación,Tr75,75,,,,,,,,,0,31,31,31,,,,,,,3,0.283697820839,,,2018_may._02_1249,60.0083281338,Experimento Piloto1,001,101,
2.5,Stim\\05_078.jpg,En78_8,Enojo,8,Estefanía despierta a las 7 a.m.,Afirmación,En78,78,,,,,,,,,0,32,32,32,,,,,,,3,0.300393724154,,,2018_may._02_1249,60.0083281338,Experimento Piloto1,001,101,
0.25,Stim\\02_028.jpg,Al28_12,Alegría,12,Ana compra el libro.,Afirmación,Al28,28,,,,,,,,,0,33,33,33,,,,,,,3,0.250044066939,,,2018_may._02_1249,60.0083281338,Experimento Piloto1,001,101,
0.25,Stim\\05_075.jpg,En75_1,Enojo,1,Juan colecciona monedas antiguas.,Afirmación,En75,75,,,,,,,,,0,34,34,34,,,,,,,3,0.333675753902,,,2018_may._02_1249,60.0083281338,Experimento Piloto1,001,101,
0.25,Stim\\03_028.jpg,Tr28_4,Tristeza,4,Jorge sustituye a Gustavo cada sábado.,Afirmación,Tr28,28,,,,,,,,,0,35,35,35,,,,,,,3,0.300255833682,,,2018_may._02_1249,60.0083281338,Experimento Piloto1,001,101,
2.5,Stim\\03_078.jpg,Tr78_3,Tristeza,3,Andrea diseña la portada del libro.,Afirmación,Tr78,78,,,,,,,,,0,36,36,36,,,,,,,3,0.300157659236,,,2018_may._02_1249,60.0083281338,Experimento Piloto1,001,101,
0.25,Stim\\05_078.jpg,En78_4,Enojo,4,Jorge sustituye a Gustavo cada sábado.,Afirmación,En78,78,,,,,,,,,0,37,37,37,,,,,,,3,0.250253357008,,,2018_may._02_1249,60.0083281338,Experimento Piloto1,001,101,
2.5,Stim\\03_019.jpg,Tr19_7,Tristeza,7,Roberto contesta los cuestionarios solicitados.,Afirmación,Tr19,19,,,,,,,,,0,38,38,38,,,,,,,3,0.233755141329,,,2018_may._02_1249,60.0083281338,Experimento Piloto1,001,101,
0.25,Stim\\02_078.jpg,Al78_2,Alegría,2,Jonathan pasea al perro.,Afirmación,Al78,78,,,,,,,,,0,39,39,39,,,,,,,3,0.300294210965,,,2018_may._02_1249,60.0083281338,Experimento Piloto1,001,101,
0.25,Stim\\02_078.jpg,Al78_5,Alegría,5,Emilio revisa el formato del archivo.,Afirmación,Al78,78,,,,,,,,,0,40,40,40,,,,,,,3,0.233700699136,,,2018_may._02_1249,60.0083281338,Experimento Piloto1,001,101,
2.5,Stim\\05_019.jpg,En19_11,Enojo,11,María asiste a la cena.,Afirmación,En19,19,,,,,,,,,0,41,41,41,,,,,,,3,0.233702930373,,,2018_may._02_1249,60.0083281338,Experimento Piloto1,001,101,
2.5,Stim\\02_028.jpg,Al28_15,Alegría,15,Ángel envía una carta a la abuela.,Afirmación,Al28,28,,,,,,,,,0,42,42,42,,,,,,,3,0.283822770135,,,2018_may._02_1249,60.0083281338,Experimento Piloto1,001,101,
0.25,Stim\\03_019.jpg,Tr19_4,Tristeza,4,Jorge sustituye a Gustavo cada sábado.,Afirmación,Tr19,19,,,,,,,,,0,43,43,43,,,,,,,3,0.283900417197,,,2018_may._02_1249,60.0083281338,Experimento Piloto1,001,101,
2.5,Stim\\02_075.jpg,Al75_12,Alegría,12,Ana compra el libro.,Afirmación,Al75,75,,,,,,,,,0,44,44,44,,,,,,,3,0.333860946607,,,2018_may._02_1249,60.0083281338,Experimento Piloto1,001,101,
2.5,Stim\\05_028.jpg,En28_12,Enojo,12,Ana compra el libro.,Afirmación,En28,28,,,,,,,,,0,45,45,45,,,,,,,3,0.2837491393,,,2018_may._02_1249,60.0083281338,Experimento Piloto1,001,101,
0.25,Stim\\02_028.jpg,Al28_14,Alegría,14,Elizabeth elige la ropa un día antes.,Afirmación,Al28,28,,,,,,,,,0,46,46,46,,,,,,,3,0.300372304274,,,2018_may._02_1249,60.0083281338,Experimento Piloto1,001,101,
2.5,Stim\\03_075.jpg,Tr75_6,Tristeza,6,Eduardo camina hacia la biblioteca.,Afirmación,Tr75,75,,,,,,,,,0,47,47,47,,,,,,,3,0.250323417863,,,2018_may._02_1249,60.0083281338,Experimento Piloto1,001,101,
0.25,Stim\\05_028.jpg,En28_8,Enojo,8,Estefanía despierta a las 7 a.m.,Afirmación,En28,28,,,,,,,,,0,48,48,48,,,,,,,3,0.283664798526,,,2018_may._02_1249,60.0083281338,Experimento Piloto1,001,101,
2.5,Stim\\05_019.jpg,En19_7,Enojo,7,Roberto contesta los cuestionarios solicitados.,Afirmación,En19,19,,,,,,,,,0,49,49,49,,,,,,,3,0.300348653158,,,2018_may._02_1249,60.0083281338,Experimento Piloto1,001,101,
2.5,Stim\\02_019.jpg,Al19_10,Alegría,10,Laura finaliza la obra.,Afirmación,Al19,19,,,,,,,,,0,50,50,50,,,,,,,3,0.30043165519,,,2018_may._02_1249,60.0083281338,Experimento Piloto1,001,101,
0.25,Stim\\05_028.jpg,En28_14,Enojo,14,Elizabeth elige la ropa un día antes.,Afirmación,En28,28,,,,,,,,,0,51,51,51,,,,,,,3,0.283764757962,,,2018_may._02_1249,60.0083281338,Experimento Piloto1,001,101,
2.5,Stim\\03_028.jpg,Tr28_8,Tristeza,8,Estefanía despierta a las 7 a.m.,Afirmación,Tr28,28,,,,,,,,,0,52,52,52,,,,,,,3,0.299955509126,,,2018_may._02_1249,60.0083281338,Experimento Piloto1,001,101,
0.25,Stim\\02_075.jpg,Al75_3,Alegría,3,Andrea diseña la portada del libro.,Afirmación,Al75,75,,,,,,,,,0,53,53,53,,,,,,,3,0.283639808667,,,2018_may._02_1249,60.0083281338,Experimento Piloto1,001,101,
0.25,Stim\\02_028.jpg,Al28_1,Alegría,1,Juan colecciona monedas antiguas.,Afirmación,Al28,28,,,,,,,,,0,54,54,54,,,,,,,3,0.283579565257,,,2018_may._02_1249,60.0083281338,Experimento Piloto1,001,101,
0.25,Stim\\03_028.jpg,Tr28_3,Tristeza,3,Andrea diseña la portada del libro.,Afirmación,Tr28,28,,,,,,,,,0,55,55,55,,,,,,,3,0.30028974849,,,2018_may._02_1249,60.0083281338,Experimento Piloto1,001,101,
2.5,Stim\\02_078.jpg,Al78_11,Alegría,11,María asiste a la cena.,Afirmación,Al78,78,,,,,,,,,0,56,56,56,,,,,,,3,0.250416237339,,,2018_may._02_1249,60.0083281338,Experimento Piloto1,001,101,
0.25,Stim\\03_019.jpg,Tr19_12,Tristeza,12,Ana compra el libro.,Afirmación,Tr19,19,,,,,,,,,0,57,57,57,,,,,,,3,0.283813845185,,,2018_may._02_1249,60.0083281338,Experimento Piloto1,001,101,
2.5,Stim\\02_078.jpg,Al78_14,Alegría,14,Elizabeth elige la ropa un día antes.,Afirmación,Al78,78,,,,,,,,,0,58,58,58,,,,,,,3,0.283757171755,,,2018_may._02_1249,60.0083281338,Experimento Piloto1,001,101,
0.25,Stim\\03_019.jpg,Tr19_2,Tristeza,2,Jonathan pasea al perro.,Afirmación,Tr19,19,,,,,,,,,0,59,59,59,,,,,,,3,0.300411574053,,,2018_may._02_1249,60.0083281338,Experimento Piloto1,001,101,
2.5,Stim\\03_078.jpg,Tr78_1,Tristeza,1,Juan colecciona monedas antiguas.,Afirmación,Tr78,78,,,,,,,,,0,60,60,60,,,,,,,3,0.233783701167,,,2018_may._02_1249,60.0083281338,Experimento Piloto1,001,101,
0.25,Stim\\03_078.jpg,Tr78_4,Tristeza,4,Jorge sustituye a Gustavo cada sábado.,Afirmación,Tr78,78,,,,,,,,,0,61,61,61,,,,,,,3,0.23379396486,,,2018_may._02_1249,60.0083281338,Experimento Piloto1,001,101,
0.25,Stim\\05_019.jpg,En19_14,Enojo,14,Elizabeth elige la ropa un día antes.,Afirmación,En19,19,,,,,,,,,0,62,62,62,,,,,,,3,0.233815384739,,,2018_may._02_1249,60.0083281338,Experimento Piloto1,001,101,
0.25,Stim\\02_075.jpg,Al75_15,Alegría,15,Ángel envía una carta a la abuela.,Afirmación,Al75,75,,,,,,,,,0,63,63,63,,,,,,,3,0.233658751873,,,2018_may._02_1249,60.0083281338,Experimento Piloto1,001,101,
2.5,Stim\\03_028.jpg,Tr28_2,Tristeza,2,Jonathan pasea al perro.,Afirmación,Tr28,28,,,,,,,,,0,64,64,64,,,,,,,3,0.250497454381,,,2018_may._02_1249,60.0083281338,Experimento Piloto1,001,101,
0.25,Stim\\05_028.jpg,En28_3,Enojo,3,Andrea diseña la portada del libro.,Afirmación,En28,28,,,,,,,,,0,65,65,65,,,,,,,3,0.300008612576,,,2018_may._02_1249,60.0083281338,Experimento Piloto1,001,101,
0.25,Stim\\05_078.jpg,En78_3,Enojo,3,Andrea diseña la portada del libro.,Afirmación,En78,78,,,,,,,,,0,66,66,66,,,,,,,3,0.283712993254,,,2018_may._02_1249,60.0083281338,Experimento Piloto1,001,101,
0.25,Stim\\05_075.jpg,En75_9,Enojo,9,Marco colabora en la organización del evento.,Afirmación,En75,75,,,,,,,,,0,67,67,67,,,,,,,3,0.233656966883,,,2018_may._02_1249,60.0083281338,Experimento Piloto1,001,101,
2.5,Stim\\05_075.jpg,En75_7,Enojo,7,Roberto contesta los cuestionarios solicitados.,Afirmación,En75,75,,,,,,,,,0,68,68,68,,,,,,,3,0.300397294134,,,2018_may._02_1249,60.0083281338,Experimento Piloto1,001,101,
0.25,Stim\\03_078.jpg,Tr78_14,Tristeza,14,Elizabeth elige la ropa un día antes.,Afirmación,Tr78,78,,,,,,,,,0,69,69,69,,,,,,,3,0.233827433421,,,2018_may._02_1249,60.0083281338,Experimento Piloto1,001,101,
2.5,Stim\\03_019.jpg,Tr19_5,Tristeza,5,Emilio revisa el formato del archivo.,Afirmación,Tr19,19,,,,,,,,,0,70,70,70,,,,,,,3,0.233738183925,,,2018_may._02_1249,60.0083281338,Experimento Piloto1,001,101,
2.5,Stim\\05_028.jpg,En28_13,Enojo,13,Rocío consume alimentos nutritivos.,Afirmación,En28,28,,,,,,,,,0,71,71,71,,,,,,,3,0.233775668713,,,2018_may._02_1249,60.0083281338,Experimento Piloto1,001,101,
0.25,Stim\\05_075.jpg,En75_15,Enojo,15,Ángel envía una carta a la abuela.,Afirmación,En75,75,,,,,,,,,0,72,72,72,,,,,,,3,0.233988528762,,,2018_may._02_1249,60.0083281338,Experimento Piloto1,001,101,
2.5,Stim\\05_019.jpg,En19_6,Enojo,6,Eduardo camina hacia la biblioteca.,Afirmación,En19,19,,,,,,,,,0,73,73,73,,,,,,,3,0.283796887781,,,2018_may._02_1249,60.0083281338,Experimento Piloto1,001,101,
2.5,Stim\\05_078.jpg,En78_10,Enojo,10,Laura finaliza la obra.,Afirmación,En78,78,,,,,,,,,0,74,74,74,,,,,,,3,0.283828125105,,,2018_may._02_1249,60.0083281338,Experimento Piloto1,001,101,
2.5,Stim\\05_019.jpg,En19_9,Enojo,9,Marco colabora en la organización del evento.,Afirmación,En19,19,,,,,,,,,0,75,75,75,,,,,,,3,0.233760942546,,,2018_may._02_1249,60.0083281338,Experimento Piloto1,001,101,
2.5,Stim\\02_078.jpg,Al78_6,Alegría,6,Eduardo camina hacia la biblioteca.,Afirmación,Al78,78,,,,,,,,,0,76,76,76,,,,,,,3,0.283622851262,,,2018_may._02_1249,60.0083281338,Experimento Piloto1,001,101,
2.5,Stim\\05_078.jpg,En78_13,Enojo,13,Rocío consume alimentos nutritivos.,Afirmación,En78,78,,,,,,,,,0,77,77,77,,,,,,,3,0.233824309689,,,2018_may._02_1249,60.0083281338,Experimento Piloto1,001,101,
0.25,Stim\\05_028.jpg,En28_2,Enojo,2,Jonathan pasea al perro.,Afirmación,En28,28,,,,,,,,,0,78,78,78,,,,,,,3,0.300309829627,,,2018_may._02_1249,60.0083281338,Experimento Piloto1,001,101,
0.25,Stim\\05_019.jpg,En19_6,Enojo,6,Eduardo camina hacia la biblioteca.,Afirmación,En19,19,,,,,,,,,0,79,79,79,,,,,,,3,0.283659889803,,,2018_may._02_1249,60.0083281338,Experimento Piloto1,001,101,
2.5,Stim\\03_019.jpg,Tr19_11,Tristeza,11,María asiste a la cena.,Afirmación,Tr19,19,,,,,,,,,0,80,80,80,,,,,,,3,0.283844636262,,,2018_may._02_1249,60.0083281338,Experimento Piloto1,001,101,
2.5,Stim\\05_028.jpg,En28_11,Enojo,11,María asiste a la cena.,Afirmación,En28,28,,,,,,,,,0,81,81,81,,,,,,,3,0.283615265055,,,2018_may._02_1249,60.0083281338,Experimento Piloto1,001,101,
0.25,Stim\\02_078.jpg,Al78_9,Alegría,9,Marco colabora en la organización del evento.,Afirmación,Al78,78,,,,,,,,,0,82,82,82,,,,,,,3,0.300323217051,,,2018_may._02_1249,60.0083281338,Experimento Piloto1,001,101,
0.25,Stim\\05_019.jpg,En19_13,Enojo,13,Rocío consume alimentos nutritivos.,Afirmación,En19,19,,,,,,,,,0,83,83,83,,,,,,,3,0.233752910091,,,2018_may._02_1249,60.0083281338,Experimento Piloto1,001,101,
0.25,Stim\\03_078.jpg,Tr78_11,Tristeza,11,María asiste a la cena.,Afirmación,Tr78,78,,,,,,,,,0,84,84,84,,,,,,,3,0.300316077092,,,2018_may._02_1249,60.0083281338,Experimento Piloto1,001,101,
2.5,Stim\\05_028.jpg,En28_5,Enojo,5,Emilio revisa el formato del archivo.,Afirmación,En28,28,,,,,,,,,0,85,85,85,,,,,,,3,0.283585366474,,,2018_may._02_1249,60.0083281338,Experimento Piloto1,001,101,
0.25,Stim\\03_028.jpg,Tr28_10,Tristeza,10,Laura finaliza la obra.,Afirmación,Tr28,28,,,,,,,,,0,86,86,86,,,,,,,3,0.233726135243,,,2018_may._02_1249,60.0083281338,Experimento Piloto1,001,101,
0.25,Stim\\05_019.jpg,En19_11,Enojo,11,María asiste a la cena.,Afirmación,En19,19,,,,,,,,,0,87,87,87,,,,,,,3,0.300349099406,,,2018_may._02_1249,60.0083281338,Experimento Piloto1,001,101,
2.5,Stim\\03_028.jpg,Tr28_9,Tristeza,9,Marco colabora en la organización del evento.,Afirmación,Tr28,28,,,,,,,,,0,88,88,88,,,,,,,3,0.250348853969,,,2018_may._02_1249,60.0083281338,Experimento Piloto1,001,101,
2.5,Stim\\05_019.jpg,En19_8,Enojo,8,Estefanía despierta a las 7 a.m.,Afirmación,En19,19,,,,,,,,,0,89,89,89,,,,,,,3,0.233592707245,,,2018_may._02_1249,60.0083281338,Experimento Piloto1,001,101,
0.25,Stim\\03_075.jpg,Tr75_9,Tristeza,9,Marco colabora en la organización del evento.,Afirmación,Tr75,75,,,,,,,,,0,90,90,90,,,,,,,3,0.23373193646,,,2018_may._02_1249,60.0083281338,Experimento Piloto1,001,101,
2.5,Stim\\02_075.jpg,Al75_3,Alegría,3,Andrea diseña la portada del libro.,Afirmación,Al75,75,,,,,,,,,0,91,91,91,,,,,,,3,0.250370273849,,,2018_may._02_1249,60.0083281338,Experimento Piloto1,001,101,
0.25,Stim\\05_028.jpg,En28_12,Enojo,12,Ana compra el libro.,Afirmación,En28,28,,,,,,,,,0,92,92,92,,,,,,,3,0.233849299547,,,2018_may._02_1249,60.0083281338,Experimento Piloto1,001,101,
0.25,Stim\\03_028.jpg,Tr28_7,Tristeza,7,Roberto contesta los cuestionarios solicitados.,Afirmación,Tr28,28,,,,,,,,,0,93,93,93,,,,,,,3,0.300409342816,,,2018_may._02_1249,60.0083281338,Experimento Piloto1,001,101,
0.25,Stim\\03_019.jpg,Tr19_8,Tristeza,8,Estefanía despierta a las 7 a.m.,Afirmación,Tr19,19,,,,,,,,,0,94,94,94,,,,,,,3,0.283812506443,,,2018_may._02_1249,60.0083281338,Experimento Piloto1,001,101,
0.25,Stim\\02_019.jpg,Al19_4,Alegría,4,Jorge sustituye a Gustavo cada sábado.,Afirmación,Al19,19,,,,,,,,,0,95,95,95,,,,,,,3,0.30042451523,,,2018_may._02_1249,60.0083281338,Experimento Piloto1,001,101,
2.5,Stim\\05_019.jpg,En19_15,Enojo,15,Ángel envía una carta a la abuela.,Afirmación,En19,19,,,,,,,,,0,96,96,96,,,,,,,3,0.300415590281,,,2018_may._02_1249,60.0083281338,Experimento Piloto1,001,101,
0.25,Stim\\05_075.jpg,En75_13,Enojo,13,Rocío consume alimentos nutritivos.,Afirmación,En75,75,,,,,,,,,0,97,97,97,,,,,,,3,0.300259849909,,,2018_may._02_1249,60.0083281338,Experimento Piloto1,001,101,
0.25,Stim\\02_078.jpg,Al78_7,Alegría,7,Roberto contesta los cuestionarios solicitados.,Afirmación,Al78,78,,,,,,,,,0,98,98,98,,,,,,,3,0.283762080477,,,2018_may._02_1249,60.0083281338,Experimento Piloto1,001,101,
2.5,Stim\\03_028.jpg,Tr28_3,Tristeza,3,Andrea diseña la portada del libro.,Afirmación,Tr28,28,,,,,,,,,0,99,99,99,,,,,,,3,0.233764066278,,,2018_may._02_1249,60.0083281338,Experimento Piloto1,001,101,
2.5,Stim\\05_075.jpg,En75_15,Enojo,15,Ángel envía una carta a la abuela.,Afirmación,En75,75,,,,,,,,,0,100,100,100,,,,,,,3,0.233621713332,,,2018_may._02_1249,60.0083281338,Experimento Piloto1,001,101,
0.25,Stim\\02_028.jpg,Al28_13,Alegría,13,Rocío consume alimentos nutritivos.,Afirmación,Al28,28,,,,,,,,,0,101,101,101,,,,,,,3,0.283806705225,,,2018_may._02_1249,60.0083281338,Experimento Piloto1,001,101,
0.25,Stim\\03_028.jpg,Tr28_15,Tristeza,15,Ángel envía una carta a la abuela.,Afirmación,Tr28,28,,,,,,,,,0,102,102,102,,,,,,,3,0.250396156203,,,2018_may._02_1249,60.0083281338,Experimento Piloto1,001,101,
0.25,Stim\\05_019.jpg,En19_2,Enojo,2,Jonathan pasea al perro.,Afirmación,En19,19,,,,,,,,,0,103,103,103,,,,,,,3,0.233961307666,,,2018_may._02_1249,60.0083281338,Experimento Piloto1,001,101,
0.25,Stim\\03_078.jpg,Tr78_13,Tristeza,13,Rocío consume alimentos nutritivos.,Afirmación,Tr78,78,,,,,,,,,0,104,104,104,,,,,,,3,0.300370519285,,,2018_may._02_1249,60.0083281338,Experimento Piloto1,001,101,
2.5,Stim\\03_075.jpg,Tr75_2,Tristeza,2,Jonathan pasea al perro.,Afirmación,Tr75,75,,,,,,,,,0,105,105,105,,,,,,,3,0.300412020301,,,2018_may._02_1249,60.0083281338,Experimento Piloto1,001,101,
2.5,Stim\\05_075.jpg,En75_10,Enojo,10,Laura finaliza la obra.,Afirmación,En75,75,,,,,,,,,0,106,106,106,,,,,,,3,0.250076196758,,,2018_may._02_1249,60.0083281338,Experimento Piloto1,001,101,
2.5,Stim\\05_028.jpg,En28_3,Enojo,3,Andrea diseña la portada del libro.,Afirmación,En28,28,,,,,,,,,0,107,107,107,,,,,,,3,0.300453521317,,,2018_may._02_1249,60.0083281338,Experimento Piloto1,001,101,
2.5,Stim\\02_078.jpg,Al78_8,Alegría,8,Estefanía despierta a las 7 a.m.,Afirmación,Al78,78,,,,,,,,,0,108,108,108,,,,,,,3,0.283642039904,,,2018_may._02_1249,60.0083281338,Experimento Piloto1,001,101,
2.5,Stim\\05_075.jpg,En75_2,Enojo,2,Jonathan pasea al perro.,Afirmación,En75,75,,,,,,,,,0,109,109,109,,,,,,,3,0.350263219078,,,2018_may._02_1249,60.0083281338,Experimento Piloto1,001,101,
0.25,Stim\\05_078.jpg,En78_2,Enojo,2,Jonathan pasea al perro.,Afirmación,En78,78,,,,,,,,,0,110,110,110,,,,,,,3,0.250181957411,,,2018_may._02_1249,60.0083281338,Experimento Piloto1,001,101,
2.5,Stim\\05_078.jpg,En78_14,Enojo,14,Elizabeth elige la ropa un día antes.,Afirmación,En78,78,,,,,,,,,0,111,111,111,,,,,,,3,0.250409097379,,,2018_may._02_1249,60.0083281338,Experimento Piloto1,001,101,
2.5,Stim\\05_028.jpg,En28_1,Enojo,1,Juan colecciona monedas antiguas.,Afirmación,En28,28,,,,,,,,,0,112,112,112,,,,,,,3,0.250431856001,,,2018_may._02_1249,60.0083281338,Experimento Piloto1,001,101,
0.25,Stim\\05_019.jpg,En19_12,Enojo,12,Ana compra el libro.,Afirmación,En19,19,,,,,,,,,0,113,113,113,,,,,,,3,0.233780577435,,,2018_may._02_1249,60.0083281338,Experimento Piloto1,001,101,
0.25,Stim\\02_075.jpg,Al75_13,Alegría,13,Rocío consume alimentos nutritivos.,Afirmación,Al75,75,,,,,,,,,0,114,114,114,,,,,,,3,0.300421837745,,,2018_may._02_1249,60.0083281338,Experimento Piloto1,001,101,
2.5,Stim\\03_019.jpg,Tr19_6,Tristeza,6,Eduardo camina hacia la biblioteca.,Afirmación,Tr19,19,,,,,,,,,0,115,115,115,,,,,,,3,0.300366503057,,,2018_may._02_1249,60.0083281338,Experimento Piloto1,001,101,
2.5,Stim\\05_028.jpg,En28_14,Enojo,14,Elizabeth elige la ropa un día antes.,Afirmación,En28,28,,,,,,,,,0,116,116,116,,,,,,,3,0.249986947261,,,2018_may._02_1249,60.0083281338,Experimento Piloto1,001,101,
2.5,Stim\\02_028.jpg,Al28_5,Alegría,5,Emilio revisa el formato del archivo.,Afirmación,Al28,28,,,,,,,,,0,117,117,117,,,,,,,3,0.250387677501,,,2018_may._02_1249,60.0083281338,Experimento Piloto1,001,101,
2.5,Stim\\02_078.jpg,Al78_9,Alegría,9,Marco colabora en la organización del evento.,Afirmación,Al78,78,,,,,,,,,0,118,118,118,,,,,,,3,0.250432748496,,,2018_may._02_1249,60.0083281338,Experimento Piloto1,001,101,
0.25,Stim\\03_019.jpg,Tr19_3,Tristeza,3,Andrea diseña la portada del libro.,Afirmación,Tr19,19,,,,,,,,,0,119,119,119,,,,,,,3,0.233826094679,,,2018_may._02_1249,60.0083281338,Experimento Piloto1,001,101,
0.25,Stim\\02_075.jpg,Al75_11,Alegría,11,María asiste a la cena.,Afirmación,Al75,75,,,,,,,,,,,,,0,0,0,0,,,,,3,0.283804027741,2018_may._02_1249,60.0083281338,Experimento Piloto1,001,101,
2.5,Stim\\03_019.jpg,Tr19_9,Tristeza,9,Marco colabora en la organización del evento.,Afirmación,Tr19,19,,,,,,,,,,,,,0,1,1,1,,,,,3,0.250359117662,2018_may._02_1249,60.0083281338,Experimento Piloto1,001,101,
2.5,Stim\\02_075.jpg,Al75_8,Alegría,8,Estefanía despierta a las 7 a.m.,Afirmación,Al75,75,,,,,,,,,,,,,0,2,2,2,,,,,3,0.200447229227,2018_may._02_1249,60.0083281338,Experimento Piloto1,001,101,
2.5,Stim\\03_075.jpg,Tr75_13,Tristeza,13,Rocío consume alimentos nutritivos.,Afirmación,Tr75,75,,,,,,,,,,,,,0,3,3,3,,,,,3,0.233703822868,2018_may._02_1249,60.0083281338,Experimento Piloto1,001,101,
0.25,Stim\\03_019.jpg,Tr19_15,Tristeza,15,Ángel envía una carta a la abuela.,Afirmación,Tr19,19,,,,,,,,,,,,,0,4,4,4,,,,,3,0.183759358368,2018_may._02_1249,60.0083281338,Experimento Piloto1,001,101,
2.5,Stim\\05_075.jpg,En75_11,Enojo,11,María asiste a la cena.,Afirmación,En75,75,,,,,,,,,,,,,0,5,5,5,,,,,3,0.250405081152,2018_may._02_1249,60.0083281338,Experimento Piloto1,001,101,
0.25,Stim\\05_028.jpg,En28_4,Enojo,4,Jorge sustituye a Gustavo cada sábado.,Afirmación,En28,28,,,,,,,,,,,,,0,6,6,6,,,,,3,0.250417576082,2018_may._02_1249,60.0083281338,Experimento Piloto1,001,101,
2.5,Stim\\05_028.jpg,En28_9,Enojo,9,Marco colabora en la organización del evento.,Afirmación,En28,28,,,,,,,,,,,,,0,7,7,7,,,,,3,0.283728165669,2018_may._02_1249,60.0083281338,Experimento Piloto1,001,101,
2.5,Stim\\03_075.jpg,Tr75_9,Tristeza,9,Marco colabora en la organización del evento.,Afirmación,Tr75,75,,,,,,,,,,,,,0,8,8,8,,,,,3,0.333749830984,2018_may._02_1249,60.0083281338,Experimento Piloto1,001,101,
2.5,Stim\\05_028.jpg,En28_15,Enojo,15,Ángel envía una carta a la abuela.,Afirmación,En28,28,,,,,,,,,,,,,0,9,9,9,,,,,3,0.233731490212,2018_may._02_1249,60.0083281338,Experimento Piloto1,001,101,
0.25,Stim\\03_078.jpg,Tr78_8,Tristeza,8,Estefanía despierta a las 7 a.m.,Afirmación,Tr78,78,,,,,,,,,,,,,0,10,10,10,,,,,3,0.25034171401,2018_may._02_1249,60.0083281338,Experimento Piloto1,001,101,
0.25,Stim\\02_075.jpg,Al75_1,Alegría,1,Juan colecciona monedas antiguas.,Afirmación,Al75,75,,,,,,,,,,,,,0,11,11,11,,,,,3,0.200265160254,2018_may._02_1249,60.0083281338,Experimento Piloto1,001,101,
0.25,Stim\\05_078.jpg,En78_11,Enojo,11,María asiste a la cena.,Afirmación,En78,78,,,,,,,,,,,,,0,12,12,12,,,,,3,0.233590922255,2018_may._02_1249,60.0083281338,Experimento Piloto1,001,101,
2.5,Stim\\03_028.jpg,Tr28_15,Tristeza,15,Ángel envía una carta a la abuela.,Afirmación,Tr28,28,,,,,,,,,,,,,0,13,13,13,,,,,3,0.183673232603,2018_may._02_1249,60.0083281338,Experimento Piloto1,001,101,
2.5,Stim\\02_019.jpg,Al19_3,Alegría,3,Andrea diseña la portada del libro.,Afirmación,Al19,19,,,,,,,,,,,,,0,14,14,14,,,,,3,0.283830356342,2018_may._02_1249,60.0083281338,Experimento Piloto1,001,101,
2.5,Stim\\05_019.jpg,En19_5,Enojo,5,Emilio revisa el formato del archivo.,Afirmación,En19,19,,,,,,,,,,,,,0,15,15,15,,,,,3,0.283684879663,2018_may._02_1249,60.0083281338,Experimento Piloto1,001,101,
0.25,Stim\\02_028.jpg,Al28_11,Alegría,11,María asiste a la cena.,Afirmación,Al28,28,,,,,,,,,,,,,0,16,16,16,,,,,3,0.283642486152,2018_may._02_1249,60.0083281338,Experimento Piloto1,001,101,
0.25,Stim\\03_019.jpg,Tr19_11,Tristeza,11,María asiste a la cena.,Afirmación,Tr19,19,,,,,,,,,,,,,0,17,17,17,,,,,3,0.30004163489,2018_may._02_1249,60.0083281338,Experimento Piloto1,001,101,
2.5,Stim\\03_078.jpg,Tr78_14,Tristeza,14,Elizabeth elige la ropa un día antes.,Afirmación,Tr78,78,,,,,,,,,,,,,0,18,18,18,,,,,3,0.300380782977,2018_may._02_1249,60.0083281338,Experimento Piloto1,001,101,
0.25,Stim\\02_019.jpg,Al19_9,Alegría,9,Marco colabora en la organización del evento.,Afirmación,Al19,19,,,,,,,,,,,,,0,19,19,19,,,,,3,0.283653196091,2018_may._02_1249,60.0083281338,Experimento Piloto1,001,101,
2.5,Stim\\02_075.jpg,Al75_11,Alegría,11,María asiste a la cena.,Afirmación,Al75,75,,,,,,,,,,,,,0,20,20,20,,,,,3,0.283783054109,2018_may._02_1249,60.0083281338,Experimento Piloto1,001,101,
0.25,Stim\\02_028.jpg,Al28_4,Alegría,4,Jorge sustituye a Gustavo cada sábado.,Afirmación,Al28,28,,,,,,,,,,,,,0,21,21,21,,,,,3,0.283620620025,2018_may._02_1249,60.0083281338,Experimento Piloto1,001,101,
2.5,Stim\\02_075.jpg,Al75_10,Alegría,10,Laura finaliza la obra.,Afirmación,Al75,75,,,,,,,,,,,,,0,22,22,22,,,,,3,0.283508611907,2018_may._02_1249,60.0083281338,Experimento Piloto1,001,101,
0.25,Stim\\05_075.jpg,En75_4,Enojo,4,Jorge sustituye a Gustavo cada sábado.,Afirmación,En75,75,,,,,,,,,,,,,0,23,23,23,,,,,3,0.300445488862,2018_may._02_1249,60.0083281338,Experimento Piloto1,001,101,
2.5,Stim\\02_028.jpg,Al28_11,Alegría,11,María asiste a la cena.,Afirmación,Al28,28,,,,,,,,,,,,,0,24,24,24,,,,,3,0.233642240716,2018_may._02_1249,60.0083281338,Experimento Piloto1,001,101,
0.25,Stim\\02_078.jpg,Al78_1,Alegría,1,Juan colecciona monedas antiguas.,Afirmación,Al78,78,,,,,,,,,,,,,0,25,25,25,,,,,3,0.250114127794,2018_may._02_1249,60.0083281338,Experimento Piloto1,001,101,
2.5,Stim\\02_019.jpg,Al19_7,Alegría,7,Roberto contesta los cuestionarios solicitados.,Afirmación,Al19,19,,,,,,,,,,,,,0,26,26,26,,,,,3,0.283642039904,2018_may._02_1249,60.0083281338,Experimento Piloto1,001,101,
0.25,Stim\\05_028.jpg,En28_15,Enojo,15,Ángel envía una carta a la abuela.,Afirmación,En28,28,,,,,,,,,,,,,0,27,27,27,,,,,3,0.300131330634,2018_may._02_1249,60.0083281338,Experimento Piloto1,001,101,
0.25,Stim\\03_075.jpg,Tr75_2,Tristeza,2,Jonathan pasea al perro.,Afirmación,Tr75,75,,,,,,,,,,,,,0,28,28,28,,,,,3,0.333758309686,2018_may._02_1249,60.0083281338,Experimento Piloto1,001,101,
0.25,Stim\\05_075.jpg,En75_3,Enojo,3,Andrea diseña la portada del libro.,Afirmación,En75,75,,,,,,,,,,,,,0,29,29,29,,,,,3,0.300207192706,2018_may._02_1249,60.0083281338,Experimento Piloto1,001,101,
2.5,Stim\\05_028.jpg,En28_10,Enojo,10,Laura finaliza la obra.,Afirmación,En28,28,,,,,,,,,,,,,0,30,30,30,,,,,3,0.28368532591,2018_may._02_1249,60.0083281338,Experimento Piloto1,001,101,
0.25,Stim\\05_019.jpg,En19_4,Enojo,4,Jorge sustituye a Gustavo cada sábado.,Afirmación,En19,19,,,,,,,,,,,,,0,31,31,31,,,,,3,0.300383460461,2018_may._02_1249,60.0083281338,Experimento Piloto1,001,101,
2.5,Stim\\02_078.jpg,Al78_1,Alegría,1,Juan colecciona monedas antiguas.,Afirmación,Al78,78,,,,,,,,,,,,,0,32,32,32,,,,,3,0.25040017243,2018_may._02_1249,60.0083281338,Experimento Piloto1,001,101,
0.25,Stim\\05_075.jpg,En75_6,Enojo,6,Eduardo camina hacia la biblioteca.,Afirmación,En75,75,,,,,,,,,,,,,0,33,33,33,,,,,3,0.283783054108,2018_may._02_1249,60.0083281338,Experimento Piloto1,001,101,
2.5,Stim\\02_019.jpg,Al19_12,Alegría,12,Ana compra el libro.,Afirmación,Al19,19,,,,,,,,,,,,,0,34,34,34,,,,,3,0.233608325907,2018_may._02_1249,60.0083281338,Experimento Piloto1,001,101,
0.25,Stim\\05_075.jpg,En75_8,Enojo,8,Estefanía despierta a las 7 a.m.,Afirmación,En75,75,,,,,,,,,,,,,0,35,35,35,,,,,3,0.233760050051,2018_may._02_1249,60.0083281338,Experimento Piloto1,001,101,
2.5,Stim\\03_028.jpg,Tr28_4,Tristeza,4,Jorge sustituye a Gustavo cada sábado.,Afirmación,Tr28,28,,,,,,,,,,,,,0,36,36,36,,,,,3,0.299751574027,2018_may._02_1249,60.0083281338,Experimento Piloto1,001,101,
0.25,Stim\\03_078.jpg,Tr78_12,Tristeza,12,Ana compra el libro.,Afirmación,Tr78,78,,,,,,,,,,,,,0,37,37,37,,,,,3,0.250427839774,2018_may._02_1249,60.0083281338,Experimento Piloto1,001,101,
2.5,Stim\\03_019.jpg,Tr19_3,Tristeza,3,Andrea diseña la portada del libro.,Afirmación,Tr19,19,,,,,,,,,,,,,0,38,38,38,,,,,3,0.300514210974,2018_may._02_1249,60.0083281338,Experimento Piloto1,001,101,
2.5,Stim\\05_075.jpg,En75_4,Enojo,4,Jorge sustituye a Gustavo cada sábado.,Afirmación,En75,75,,,,,,,,,,,,,0,39,39,39,,,,,3,0.283997699148,2018_may._02_1249,60.0083281338,Experimento Piloto1,001,101,
0.25,Stim\\05_078.jpg,En78_6,Enojo,6,Eduardo camina hacia la biblioteca.,Afirmación,En78,78,,,,,,,,,,,,,0,40,40,40,,,,,3,0.283713885749,2018_may._02_1249,60.0083281338,Experimento Piloto1,001,101,
0.25,Stim\\03_078.jpg,Tr78_3,Tristeza,3,Andrea diseña la portada del libro.,Afirmación,Tr78,78,,,,,,,,,,,,,0,41,41,41,,,,,3,0.299962649086,2018_may._02_1249,60.0083281338,Experimento Piloto1,001,101,
0.25,Stim\\05_078.jpg,En78_15,Enojo,15,Ángel envía una carta a la abuela.,Afirmación,En78,78,,,,,,,,,,,,,0,42,42,42,,,,,3,0.3004120203,2018_may._02_1249,60.0083281338,Experimento Piloto1,001,101,
2.5,Stim\\05_078.jpg,En78_2,Enojo,2,Jonathan pasea al perro.,Afirmación,En78,78,,,,,,,,,,,,,0,43,43,43,,,,,3,0.300322324557,2018_may._02_1249,60.0083281338,Experimento Piloto1,001,101,
2.5,Stim\\02_078.jpg,Al78_4,Alegría,4,Jorge sustituye a Gustavo cada sábado.,Afirmación,Al78,78,,,,,,,,,,,,,0,44,44,44,,,,,3,0.350297133887,2018_may._02_1249,60.0083281338,Experimento Piloto1,001,101,
2.5,Stim\\05_078.jpg,En78_4,Enojo,4,Jorge sustituye a Gustavo cada sábado.,Afirmación,En78,78,,,,,,,,,,,,,0,45,45,45,,,,,3,0.250385446263,2018_may._02_1249,60.0083281338,Experimento Piloto1,001,101,
0.25,Stim\\05_019.jpg,En19_9,Enojo,9,Marco colabora en la organización del evento.,Afirmación,En19,19,,,,,,,,,,,,,0,46,46,46,,,,,3,0.25047112578,2018_may._02_1249,60.0083281338,Experimento Piloto1,001,101,
0.25,Stim\\05_019.jpg,En19_15,Enojo,15,Ángel envía una carta a la abuela.,Afirmación,En19,19,,,,,,,,,,,,,0,47,47,47,,,,,3,0.283869179873,2018_may._02_1249,60.0083281338,Experimento Piloto1,001,101,
2.5,Stim\\02_028.jpg,Al28_2,Alegría,2,Jonathan pasea al perro.,Afirmación,Al28,28,,,,,,,,,,,,,0,48,48,48,,,,,3,0.283654088586,2018_may._02_1249,60.0083281338,Experimento Piloto1,001,101,
0.25,Stim\\03_075.jpg,Tr75_1,Tristeza,1,Juan colecciona monedas antiguas.,Afirmación,Tr75,75,,,,,,,,,,,,,0,49,49,49,,,,,3,0.250334127803,2018_may._02_1249,60.0083281338,Experimento Piloto1,001,101,
2.5,Stim\\02_028.jpg,Al28_12,Alegría,12,Ana compra el libro.,Afirmación,Al28,28,,,,,,,,,,,,,0,50,50,50,,,,,3,0.250417576081,2018_may._02_1249,60.0083281338,Experimento Piloto1,001,101,
0.25,Stim\\05_019.jpg,En19_5,Enojo,5,Emilio revisa el formato del archivo.,Afirmación,En19,19,,,,,,,,,,,,,0,51,51,51,,,,,3,0.283712100759,2018_may._02_1249,60.0083281338,Experimento Piloto1,001,101,
0.25,Stim\\02_075.jpg,Al75_9,Alegría,9,Marco colabora en la organización del evento.,Afirmación,Al75,75,,,,,,,,,,,,,0,52,52,52,,,,,3,0.250343498999,2018_may._02_1249,60.0083281338,Experimento Piloto1,001,101,
2.5,Stim\\03_019.jpg,Tr19_12,Tristeza,12,Ana compra el libro.,Afirmación,Tr19,19,,,,,,,,,,,,,0,53,53,53,,,,,3,0.250473357017,2018_may._02_1249,60.0083281338,Experimento Piloto1,001,101,
2.5,Stim\\02_019.jpg,Al19_4,Alegría,4,Jorge sustituye a Gustavo cada sábado.,Afirmación,Al19,19,,,,,,,,,,,,,0,54,54,54,,,,,3,0.250048975661,2018_may._02_1249,60.0083281338,Experimento Piloto1,001,101,
0.25,Stim\\02_019.jpg,Al19_12,Alegría,12,Ana compra el libro.,Afirmación,Al19,19,,,,,,,,,,,,,0,55,55,55,,,,,3,0.283705853294,2018_may._02_1249,60.0083281338,Experimento Piloto1,001,101,
2.5,Stim\\02_078.jpg,Al78_7,Alegría,7,Roberto contesta los cuestionarios solicitados.,Afirmación,Al78,78,,,,,,,,,,,,,0,56,56,56,,,,,3,0.233837250866,2018_may._02_1249,60.0083281338,Experimento Piloto1,001,101,
2.5,Stim\\03_078.jpg,Tr78_13,Tristeza,13,Rocío consume alimentos nutritivos.,Afirmación,Tr78,78,,,,,,,,,,,,,0,57,57,57,,,,,3,0.233830110906,2018_may._02_1249,60.0083281338,Experimento Piloto1,001,101,
2.5,Stim\\02_075.jpg,Al75_9,Alegría,9,Marco colabora en la organización del evento.,Afirmación,Al75,75,,,,,,,,,,,,,0,58,58,58,,,,,3,0.233672139297,2018_may._02_1249,60.0083281338,Experimento Piloto1,001,101,
0.25,Stim\\02_028.jpg,Al28_5,Alegría,5,Emilio revisa el formato del archivo.,Afirmación,Al28,28,,,,,,,,,,,,,0,59,59,59,,,,,3,0.233710070333,2018_may._02_1249,60.0083281338,Experimento Piloto1,001,101,
2.5,Stim\\03_028.jpg,Tr28_7,Tristeza,7,Roberto contesta los cuestionarios solicitados.,Afirmación,Tr28,28,,,,,,,,,,,,,0,60,60,60,,,,,3,0.233758265061,2018_may._02_1249,60.0083281338,Experimento Piloto1,001,101,
0.25,Stim\\05_078.jpg,En78_7,Enojo,7,Roberto contesta los cuestionarios solicitados.,Afirmación,En78,78,,,,,,,,,,,,,0,61,61,61,,,,,3,0.233832342143,2018_may._02_1249,60.0083281338,Experimento Piloto1,001,101,
2.5,Stim\\03_028.jpg,Tr28_5,Tristeza,5,Emilio revisa el formato del archivo.,Afirmación,Tr28,28,,,,,,,,,,,,,0,62,62,62,,,,,3,0.233603417184,2018_may._02_1249,60.0083281338,Experimento Piloto1,001,101,
0.25,Stim\\02_019.jpg,Al19_13,Alegría,13,Rocío consume alimentos nutritivos.,Afirmación,Al19,19,,,,,,,,,,,,,0,63,63,63,,,,,3,0.300120620695,2018_may._02_1249,60.0083281338,Experimento Piloto1,001,101,
2.5,Stim\\05_019.jpg,En19_13,Enojo,13,Rocío consume alimentos nutritivos.,Afirmación,En19,19,,,,,,,,,,,,,0,64,64,64,,,,,3,0.300058146047,2018_may._02_1249,60.0083281338,Experimento Piloto1,001,101,
2.5,Stim\\03_078.jpg,Tr78_4,Tristeza,4,Jorge sustituye a Gustavo cada sábado.,Afirmación,Tr78,78,,,,,,,,,,,,,0,65,65,65,,,,,3,0.233784147415,2018_may._02_1249,60.0083281338,Experimento Piloto1,001,101,
0.25,Stim\\05_028.jpg,En28_13,Enojo,13,Rocío consume alimentos nutritivos.,Afirmación,En28,28,,,,,,,,,,,,,0,66,66,66,,,,,3,0.233756926319,2018_may._02_1249,60.0083281338,Experimento Piloto1,001,101,
0.25,Stim\\02_075.jpg,Al75_4,Alegría,4,Jorge sustituye a Gustavo cada sábado.,Afirmación,Al75,75,,,,,,,,,,,,,0,67,67,67,,,,,3,0.283660782299,2018_may._02_1249,60.0083281338,Experimento Piloto1,001,101,
0.25,Stim\\03_019.jpg,Tr19_14,Tristeza,14,Elizabeth elige la ropa un día antes.,Afirmación,Tr19,19,,,,,,,,,,,,,0,68,68,68,,,,,3,0.283722810699,2018_may._02_1249,60.0083281338,Experimento Piloto1,001,101,
2.5,Stim\\02_075.jpg,Al75_4,Alegría,4,Jorge sustituye a Gustavo cada sábado.,Afirmación,Al75,75,,,,,,,,,,,,,0,69,69,69,,,,,3,0.250437657219,2018_may._02_1249,60.0083281338,Experimento Piloto1,001,101,
2.5,Stim\\05_078.jpg,En78_7,Enojo,7,Roberto contesta los cuestionarios solicitados.,Afirmación,En78,78,,,,,,,,,,,,,0,70,70,70,,,,,3,0.250375628819,2018_may._02_1249,60.0083281338,Experimento Piloto1,001,101,
2.5,Stim\\05_028.jpg,En28_6,Enojo,6,Eduardo camina hacia la biblioteca.,Afirmación,En28,28,,,,,,,,,,,,,0,71,71,71,,,,,3,0.233699360394,2018_may._02_1249,60.0083281338,Experimento Piloto1,001,101,
2.5,Stim\\05_028.jpg,En28_7,Enojo,7,Roberto contesta los cuestionarios solicitados.,Afirmación,En28,28,,,,,,,,,,,,,0,72,72,72,,,,,3,0.250305567964,2018_may._02_1249,60.0083281338,Experimento Piloto1,001,101,
2.5,Stim\\03_028.jpg,Tr28_14,Tristeza,14,Elizabeth elige la ropa un día antes.,Afirmación,Tr28,28,,,,,,,,,,,,,0,73,73,73,,,,,3,0.300362040583,2018_may._02_1249,60.0083281338,Experimento Piloto1,001,101,
2.5,Stim\\02_019.jpg,Al19_11,Alegría,11,María asiste a la cena.,Afirmación,Al19,19,,,,,,,,,,,,,0,74,74,74,,,,,3,0.233701591631,2018_may._02_1249,60.0083281338,Experimento Piloto1,001,101,
0.25,Stim\\05_028.jpg,En28_7,Enojo,7,Roberto contesta los cuestionarios solicitados.,Afirmación,En28,28,,,,,,,,,,,,,0,75,75,75,,,,,3,0.250371166343,2018_may._02_1249,60.0083281338,Experimento Piloto1,001,101,
0.25,Stim\\05_078.jpg,En78_13,Enojo,13,Rocío consume alimentos nutritivos.,Afirmación,En78,78,,,,,,,,,,,,,0,76,76,76,,,,,3,0.550429312391,2018_may._02_1249,60.0083281338,Experimento Piloto1,001,101,
0.25,Stim\\03_028.jpg,Tr28_14,Tristeza,14,Elizabeth elige la ropa un día antes.,Afirmación,Tr28,28,,,,,,,,,,,,,0,77,77,77,,,,,3,0.300325002042,2018_may._02_1249,60.0083281338,Experimento Piloto1,001,101,
2.5,Stim\\03_075.jpg,Tr75_14,Tristeza,14,Elizabeth elige la ropa un día antes.,Afirmación,Tr75,75,,,,,,,,,,,,,0,78,78,78,,,,,3,0.250334127802,2018_may._02_1249,60.0083281338,Experimento Piloto1,001,101,
0.25,Stim\\05_019.jpg,En19_10,Enojo,10,Laura finaliza la obra.,Afirmación,En19,19,,,,,,,,,,,,,0,79,79,79,,,,,3,0.28376341922,2018_may._02_1249,60.0083281338,Experimento Piloto1,001,101,
0.25,Stim\\05_078.jpg,En78_9,Enojo,9,Marco colabora en la organización del evento.,Afirmación,En78,78,,,,,,,,,,,,,0,80,80,80,,,,,3,0.283659889804,2018_may._02_1249,60.0083281338,Experimento Piloto1,001,101,
0.25,Stim\\02_028.jpg,Al28_6,Alegría,6,Eduardo camina hacia la biblioteca.,Afirmación,Al28,28,,,,,,,,,,,,,0,81,81,81,,,,,3,0.300411127806,2018_may._02_1249,60.0083281338,Experimento Piloto1,001,101,
0.25,Stim\\05_078.jpg,En78_12,Enojo,12,Ana compra el libro.,Afirmación,En78,78,,,,,,,,,,,,,0,82,82,82,,,,,3,0.283782161614,2018_may._02_1249,60.0083281338,Experimento Piloto1,001,101,
2.5,Stim\\05_075.jpg,En75_1,Enojo,1,Juan colecciona monedas antiguas.,Afirmación,En75,75,,,,,,,,,,,,,0,83,83,83,,,,,3,0.249813356991,2018_may._02_1249,60.0083281338,Experimento Piloto1,001,101,
0.25,Stim\\03_019.jpg,Tr19_13,Tristeza,13,Rocío consume alimentos nutritivos.,Afirmación,Tr19,19,,,,,,,,,,,,,0,84,84,84,,,,,3,0.283869626121,2018_may._02_1249,60.0083281338,Experimento Piloto1,001,101,
2.5,Stim\\03_078.jpg,Tr78_11,Tristeza,11,María asiste a la cena.,Afirmación,Tr78,78,,,,,,,,,,,,,0,85,85,85,,,,,3,0.233669461812,2018_may._02_1249,60.0083281338,Experimento Piloto1,001,101,
2.5,Stim\\05_019.jpg,En19_1,Enojo,1,Juan colecciona monedas antiguas.,Afirmación,En19,19,,,,,,,,,,,,,0,86,86,86,,,,,3,0.233727027738,2018_may._02_1249,60.0083281338,Experimento Piloto1,001,101,
0.25,Stim\\02_075.jpg,Al75_10,Alegría,10,Laura finaliza la obra.,Afirmación,Al75,75,,,,,,,,,,,,,0,87,87,87,,,,,3,0.233767636258,2018_may._02_1249,60.0083281338,Experimento Piloto1,001,101,
2.5,Stim\\02_019.jpg,Al19_14,Alegría,14,Elizabeth elige la ropa un día antes.,Afirmación,Al19,19,,,,,,,,,,,,,0,88,88,88,,,,,3,0.299950154156,2018_may._02_1249,60.0083281338,Experimento Piloto1,001,101,
0.25,Stim\\03_028.jpg,Tr28_6,Tristeza,6,Eduardo camina hacia la biblioteca.,Afirmación,Tr28,28,,,,,,,,,,,,,0,89,89,89,,,,,3,0.283705407047,2018_may._02_1249,60.0083281338,Experimento Piloto1,001,101,
0.25,Stim\\02_075.jpg,Al75_8,Alegría,8,Estefanía despierta a las 7 a.m.,Afirmación,Al75,75,,,,,,,,,,,,,0,90,90,90,,,,,3,0.300431208942,2018_may._02_1249,60.0083281338,Experimento Piloto1,001,101,
2.5,Stim\\02_019.jpg,Al19_6,Alegría,6,Eduardo camina hacia la biblioteca.,Afirmación,Al19,19,,,,,,,,,,,,,0,91,91,91,,,,,3,0.283724149441,2018_may._02_1249,60.0083281338,Experimento Piloto1,001,101,
2.5,Stim\\03_078.jpg,Tr78_7,Tristeza,7,Roberto contesta los cuestionarios solicitados.,Afirmación,Tr78,78,,,,,,,,,,,,,0,92,92,92,,,,,3,0.300301797172,2018_may._02_1249,60.0083281338,Experimento Piloto1,001,101,
2.5,Stim\\02_028.jpg,Al28_8,Alegría,8,Estefanía despierta a las 7 a.m.,Afirmación,Al28,28,,,,,,,,,,,,,0,93,93,93,,,,,3,0.300334373239,2018_may._02_1249,60.0083281338,Experimento Piloto1,001,101,
0.25,Stim\\03_075.jpg,Tr75_13,Tristeza,13,Rocío consume alimentos nutritivos.,Afirmación,Tr75,75,,,,,,,,,,,,,0,94,94,94,,,,,3,0.250398833688,2018_may._02_1249,60.0083281338,Experimento Piloto1,001,101,
2.5,Stim\\02_075.jpg,Al75_6,Alegría,6,Eduardo camina hacia la biblioteca.,Afirmación,Al75,75,,,,,,,,,,,,,0,95,95,95,,,,,3,0.300151858018,2018_may._02_1249,60.0083281338,Experimento Piloto1,001,101,
0.25,Stim\\02_028.jpg,Al28_9,Alegría,9,Marco colabora en la organización del evento.,Afirmación,Al28,28,,,,,,,,,,,,,0,96,96,96,,,,,3,0.299992547667,2018_may._02_1249,60.0083281338,Experimento Piloto1,001,101,
0.25,Stim\\02_019.jpg,Al19_8,Alegría,8,Estefanía despierta a las 7 a.m.,Afirmación,Al19,19,,,,,,,,,,,,,0,97,97,97,,,,,3,0.28374199934,2018_may._02_1249,60.0083281338,Experimento Piloto1,001,101,
2.5,Stim\\02_019.jpg,Al19_1,Alegría,1,Juan colecciona monedas antiguas.,Afirmación,Al19,19,,,,,,,,,,,,,0,98,98,98,,,,,3,0.233617250857,2018_may._02_1249,60.0083281338,Experimento Piloto1,001,101,
0.25,Stim\\02_019.jpg,Al19_5,Alegría,5,Emilio revisa el formato del archivo.,Afirmación,Al19,19,,,,,,,,,,,,,0,99,99,99,,,,,3,0.250404188657,2018_may._02_1249,60.0083281338,Experimento Piloto1,001,101,
2.5,Stim\\02_078.jpg,Al78_13,Alegría,13,Rocío consume alimentos nutritivos.,Afirmación,Al78,78,,,,,,,,,,,,,0,100,100,100,,,,,3,0.250388569996,2018_may._02_1249,60.0083281338,Experimento Piloto1,001,101,
2.5,Stim\\05_078.jpg,En78_12,Enojo,12,Ana compra el libro.,Afirmación,En78,78,,,,,,,,,,,,,0,101,101,101,,,,,3,0.200059440165,2018_may._02_1249,60.0083281338,Experimento Piloto1,001,101,
2.5,Stim\\03_075.jpg,Tr75_11,Tristeza,11,María asiste a la cena.,Afirmación,Tr75,75,,,,,,,,,,,,,0,102,102,102,,,,,3,0.350436363101,2018_may._02_1249,60.0083281338,Experimento Piloto1,001,101,
0.25,Stim\\02_078.jpg,Al78_13,Alegría,13,Rocío consume alimentos nutritivos.,Afirmación,Al78,78,,,,,,,,,,,,,0,103,103,103,,,,,3,0.300428977705,2018_may._02_1249,60.0083281338,Experimento Piloto1,001,101,
0.25,Stim\\03_075.jpg,Tr75_11,Tristeza,11,María asiste a la cena.,Afirmación,Tr75,75,,,,,,,,,,,,,0,104,104,104,,,,,3,0.283750031795,2018_may._02_1249,60.0083281338,Experimento Piloto1,001,101,
2.5,Stim\\05_075.jpg,En75_8,Enojo,8,Estefanía despierta a las 7 a.m.,Afirmación,En75,75,,,,,,,,,,,,,0,105,105,105,,,,,3,0.233535587568,2018_may._02_1249,60.0083281338,Experimento Piloto1,001,101,
2.5,Stim\\03_078.jpg,Tr78_2,Tristeza,2,Jonathan pasea al perro.,Afirmación,Tr78,78,,,,,,,,,,,,,0,106,106,106,,,,,3,0.400305411777,2018_may._02_1249,60.0083281338,Experimento Piloto1,001,101,
2.5,Stim\\03_078.jpg,Tr78_12,Tristeza,12,Ana compra el libro.,Afirmación,Tr78,78,,,,,,,,,,,,,0,107,107,107,,,,,3,0.300551249515,2018_may._02_1249,60.0083281338,Experimento Piloto1,001,101,
2.5,Stim\\05_019.jpg,En19_10,Enojo,10,Laura finaliza la obra.,Afirmación,En19,19,,,,,,,,,,,,,0,108,108,108,,,,,3,0.23377789995,2018_may._02_1249,60.0083281338,Experimento Piloto1,001,101,
2.5,Stim\\05_078.jpg,En78_15,Enojo,15,Ángel envía una carta a la abuela.,Afirmación,En78,78,,,,,,,,,,,,,0,109,109,109,,,,,3,0.350489466551,2018_may._02_1249,60.0083281338,Experimento Piloto1,001,101,
0.25,Stim\\02_028.jpg,Al28_15,Alegría,15,Ángel envía una carta a la abuela.,Afirmación,Al28,28,,,,,,,,,,,,,0,110,110,110,,,,,3,0.283653642339,2018_may._02_1249,60.0083281338,Experimento Piloto1,001,101,
2.5,Stim\\02_075.jpg,Al75_13,Alegría,13,Rocío consume alimentos nutritivos.,Afirmación,Al75,75,,,,,,,,,,,,,0,111,111,111,,,,,3,0.233590476008,2018_may._02_1249,60.0083281338,Experimento Piloto1,001,101,
2.5,Stim\\02_078.jpg,Al78_5,Alegría,5,Emilio revisa el formato del archivo.,Afirmación,Al78,78,,,,,,,,,,,,,0,112,112,112,,,,,3,0.283755833012,2018_may._02_1249,60.0083281338,Experimento Piloto1,001,101,
2.5,Stim\\05_019.jpg,En19_12,Enojo,12,Ana compra el libro.,Afirmación,En19,19,,,,,,,,,,,,,0,113,113,113,,,,,3,0.550362821516,2018_may._02_1249,60.0083281338,Experimento Piloto1,001,101,
2.5,Stim\\03_028.jpg,Tr28_13,Tristeza,13,Rocío consume alimentos nutritivos.,Afirmación,Tr28,28,,,,,,,,,,,,,0,114,114,114,,,,,3,0.300427638962,2018_may._02_1249,60.0083281338,Experimento Piloto1,001,101,
2.5,Stim\\02_075.jpg,Al75_1,Alegría,1,Juan colecciona monedas antiguas.,Afirmación,Al75,75,,,,,,,,,,,,,0,115,115,115,,,,,3,0.300534738358,2018_may._02_1249,60.0083281338,Experimento Piloto1,001,101,
2.5,Stim\\02_028.jpg,Al28_3,Alegría,3,Andrea diseña la portada del libro.,Afirmación,Al28,28,,,,,,,,,,,,,0,116,116,116,,,,,3,0.283911573384,2018_may._02_1249,60.0083281338,Experimento Piloto1,001,101,
0.25,Stim\\05_028.jpg,En28_10,Enojo,10,Laura finaliza la obra.,Afirmación,En28,28,,,,,,,,,,,,,0,117,117,117,,,,,3,0.283783054109,2018_may._02_1249,60.0083281338,Experimento Piloto1,001,101,
0.25,Stim\\02_078.jpg,Al78_3,Alegría,3,Andrea diseña la portada del libro.,Afirmación,Al78,78,,,,,,,,,,,,,0,118,118,118,,,,,3,0.35033194119,2018_may._02_1249,60.0083281338,Experimento Piloto1,001,101,
2.5,Stim\\03_075.jpg,Tr75_15,Tristeza,15,Ángel envía una carta a la abuela.,Afirmación,Tr75,75,,,,,,,,,,,,,0,119,119,119,,,,,3,0.300294657213,2018_may._02_1249,60.0083281338,Experimento Piloto1,001,101,
