Tiempo,ImagenesE,ClaveEn,Emocion,NumEn,Enunciado,ActoHabla,Clave,Cara,trials.thisRepN,trials.thisTrialN,trials.thisN,trials.thisIndex,Bloque2.thisRepN,Bloque2.thisTrialN,Bloque2.thisN,Bloque2.thisIndex,Bloque3.thisRepN,Bloque3.thisTrialN,Bloque3.thisN,Bloque3.thisIndex,Bloque1.thisRepN,Bloque1.thisTrialN,Bloque1.thisN,Bloque1.thisIndex,Resp_Bloque2.keys,Resp_Bloque2.rt,Resp_Bloque3.keys,Resp_Bloque3.rt,Resp_Bloque1.keys,Resp_Bloque1.rt,date,frameRate,expName,session,participant,
2.5,Stim\\03_028.jpg,Tr28_1,Tristeza,1,Juan colecciona monedas antiguas.,Afirmación,Tr28,28,,,,,0,0,0,0,,,,,,,,,4,3.63264237861,,,,,2018_may._02_1419,60.0528733291,Experimento Piloto1,001,102,
0.25,Stim\\03_019.jpg,Tr19_1,Tristeza,1,Juan colecciona monedas antiguas.,Afirmación,Tr19,19,,,,,0,1,1,1,,,,,,,,,3,3.81588676738,,,,,2018_may._02_1419,60.0528733291,Experimento Piloto1,001,102,
2.5,Stim\\03_078.jpg,Tr78_10,Tristeza,10,Laura finaliza la obra.,Afirmación,Tr78,78,,,,,0,2,2,2,,,,,,,,,4,2.49975344827,,,,,2018_may._02_1419,60.0528733291,Experimento Piloto1,001,102,
0.25,Stim\\02_075.jpg,Al75_5,Alegría,5,Emilio revisa el formato del archivo.,Afirmación,Al75,75,,,,,0,3,3,3,,,,,,,,,3,0.800431878314,,,,,2018_may._02_1419,60.0528733291,Experimento Piloto1,001,102,
0.25,Stim\\02_019.jpg,Al19_15,Alegría,15,Ángel envía una carta a la abuela.,Afirmación,Al19,19,,,,,0,4,4,4,,,,,,,,,3,1.05004710142,,,,,2018_may._02_1419,60.0528733291,Experimento Piloto1,001,102,
2.5,Stim\\02_075.jpg,Al75_7,Alegría,7,Roberto contesta los cuestionarios solicitados.,Afirmación,Al75,75,,,,,0,5,5,5,,,,,,,,,2,0.916732004735,,,,,2018_may._02_1419,60.0528733291,Experimento Piloto1,001,102,
0.25,Stim\\03_075.jpg,Tr75_8,Tristeza,8,Estefanía despierta a las 7 a.m.,Afirmación,Tr75,75,,,,,0,6,6,6,,,,,,,,,4,0.950238943215,,,,,2018_may._02_1419,60.0528733291,Experimento Piloto1,001,102,
0.25,Stim\\02_019.jpg,Al19_11,Alegría,11,María asiste a la cena.,Afirmación,Al19,19,,,,,0,7,7,7,,,,,,,,,2,0.750238853965,,,,,2018_may._02_1419,60.0528733291,Experimento Piloto1,001,102,
2.5,Stim\\02_019.jpg,Al19_2,Alegría,2,Jonathan pasea al perro.,Afirmación,Al19,19,,,,,0,8,8,8,,,,,,,,,3,0.916698089927,,,,,2018_may._02_1419,60.0528733291,Experimento Piloto1,001,102,
2.5,Stim\\05_075.jpg,En75_5,Enojo,5,Emilio revisa el formato del archivo.,Afirmación,En75,75,,,,,0,9,9,9,,,,,,,,,4,1.16676848547,,,,,2018_may._02_1419,60.0528733291,Experimento Piloto1,001,102,
0.25,Stim\\03_078.jpg,Tr78_10,Tristeza,10,Laura finaliza la obra.,Afirmación,Tr78,78,,,,,0,10,10,10,,,,,,,,,4,0.916904256264,,,,,2018_may._02_1419,60.0528733291,Experimento Piloto1,001,102,
0.25,Stim\\02_019.jpg,Al19_6,Alegría,6,Eduardo camina hacia la biblioteca.,Afirmación,Al19,19,,,,,0,11,11,11,,,,,,,,,3,0.600252843824,,,,,2018_may._02_1419,60.0528733291,Experimento Piloto1,001,102,
2.5,Stim\\05_019.jpg,En19_3,Enojo,3,Andrea diseña la portada del libro.,Afirmación,En19,19,,,,,0,12,12,12,,,,,,,,,2,1.11683071468,,,,,2018_may._02_1419,60.0528733291,Experimento Piloto1,001,102,
0.25,Stim\\05_019.jpg,En19_3,Enojo,3,Andrea diseña la portada del libro.,Afirmación,En19,19,,,,,0,13,13,13,,,,,,,,,2,1.06671578364,,,,,2018_may._02_1419,60.0528733291,Experimento Piloto1,001,102,
2.5,Stim\\02_028.jpg,Al28_1,Alegría,1,Juan colecciona monedas antiguas.,Afirmación,Al28,28,,,,,0,14,14,14,,,,,,,,,3,1.73333276809,,,,,2018_may._02_1419,60.0528733291,Experimento Piloto1,001,102,
0.25,Stim\\02_019.jpg,Al19_2,Alegría,2,Jonathan pasea al perro.,Afirmación,Al19,19,,,,,0,15,15,15,,,,,,,,,3,0.600369314417,,,,,2018_may._02_1419,60.0528733291,Experimento Piloto1,001,102,
0.25,Stim\\05_028.jpg,En28_11,Enojo,11,María asiste a la cena.,Afirmación,En28,28,,,,,0,16,16,16,,,,,,,,,2,0.766566603106,,,,,2018_may._02_1419,60.0528733291,Experimento Piloto1,001,102,
0.25,Stim\\03_028.jpg,Tr28_1,Tristeza,1,Juan colecciona monedas antiguas.,Afirmación,Tr28,28,,,,,0,17,17,17,,,,,,,,,4,0.650249965527,,,,,2018_may._02_1419,60.0528733291,Experimento Piloto1,001,102,
0.25,Stim\\03_078.jpg,Tr78_1,Tristeza,1,Juan colecciona monedas antiguas.,Afirmación,Tr78,78,,,,,0,18,18,18,,,,,,,,,4,1.11672986275,,,,,2018_may._02_1419,60.0528733291,Experimento Piloto1,001,102,
0.25,Stim\\02_019.jpg,Al19_1,Alegría,1,Juan colecciona monedas antiguas.,Afirmación,Al19,19,,,,,0,19,19,19,,,,,,,,,3,0.950273750518,,,,,2018_may._02_1419,60.0528733291,Experimento Piloto1,001,102,
0.25,Stim\\02_019.jpg,Al19_10,Alegría,10,Laura finaliza la obra.,Afirmación,Al19,19,,,,,0,20,20,20,,,,,,,,,3,1.63334209466,,,,,2018_may._02_1419,60.0528733291,Experimento Piloto1,001,102,
2.5,Stim\\03_019.jpg,Tr19_13,Tristeza,13,Rocío consume alimentos nutritivos.,Afirmación,Tr19,19,,,,,0,21,21,21,,,,,,,,,3,2.44938103243,,,,,2018_may._02_1419,60.0528733291,Experimento Piloto1,001,102,
2.5,Stim\\05_075.jpg,En75_6,Enojo,6,Eduardo camina hacia la biblioteca.,Afirmación,En75,75,,,,,0,22,22,22,,,,,,,,,2,0.800139586213,,,,,2018_may._02_1419,60.0528733291,Experimento Piloto1,001,102,
0.25,Stim\\05_078.jpg,En78_10,Enojo,10,Laura finaliza la obra.,Afirmación,En78,78,,,,,0,23,23,23,,,,,,,,,2,0.700300190681,,,,,2018_may._02_1419,60.0528733291,Experimento Piloto1,001,102,
2.5,Stim\\05_075.jpg,En75_14,Enojo,14,Elizabeth elige la ropa un día antes.,Afirmación,En75,75,,,,,0,24,24,24,,,,,,,,,2,0.383590766069,,,,,2018_may._02_1419,60.0528733291,Experimento Piloto1,001,102,
0.25,Stim\\05_019.jpg,En19_7,Enojo,7,Roberto contesta los cuestionarios solicitados.,Afirmación,En19,19,,,,,0,25,25,25,,,,,,,,,2,0.499985050709,,,,,2018_may._02_1419,60.0528733291,Experimento Piloto1,001,102,
0.25,Stim\\02_078.jpg,Al78_14,Alegría,14,Elizabeth elige la ropa un día antes.,Afirmación,Al78,78,,,,,0,26,26,26,,,,,,,,,3,0.500271541594,,,,,2018_may._02_1419,60.0528733291,Experimento Piloto1,001,102,
0.25,Stim\\03_028.jpg,Tr28_13,Tristeza,13,Rocío consume alimentos nutritivos.,Afirmación,Tr28,28,,,,,0,27,27,27,,,,,,,,,4,0.450231580131,,,,,2018_may._02_1419,60.0528733291,Experimento Piloto1,001,102,
2.5,Stim\\03_019.jpg,Tr19_8,Tristeza,8,Estefanía despierta a las 7 a.m.,Afirmación,Tr19,19,,,,,0,28,28,28,,,,,,,,,2,1.48301425895,,,,,2018_may._02_1419,60.0528733291,Experimento Piloto1,001,102,
2.5,Stim\\02_019.jpg,Al19_8,Alegría,8,Estefanía despierta a las 7 a.m.,Afirmación,Al19,19,,,,,0,29,29,29,,,,,,,,,3,0.649968383366,,,,,2018_may._02_1419,60.0528733291,Experimento Piloto1,001,102,
2.5,Stim\\02_028.jpg,Al28_9,Alegría,9,Marco colabora en la organización del evento.,Afirmación,Al28,28,,,,,0,30,30,30,,,,,,,,,3,0.850193381346,,,,,2018_may._02_1419,60.0528733291,Experimento Piloto1,001,102,
2.5,Stim\\03_075.jpg,Tr75_1,Tristeza,1,Juan colecciona monedas antiguas.,Afirmación,Tr75,75,,,,,0,31,31,31,,,,,,,,,4,0.384056202192,,,,,2018_may._02_1419,60.0528733291,Experimento Piloto1,001,102,
2.5,Stim\\05_078.jpg,En78_8,Enojo,8,Estefanía despierta a las 7 a.m.,Afirmación,En78,78,,,,,0,32,32,32,,,,,,,,,2,0.750201369176,,,,,2018_may._02_1419,60.0528733291,Experimento Piloto1,001,102,
0.25,Stim\\02_028.jpg,Al28_12,Alegría,12,Ana compra el libro.,Afirmación,Al28,28,,,,,0,33,33,33,,,,,,,,,3,0.3500200142,,,,,2018_may._02_1419,60.0528733291,Experimento Piloto1,001,102,
0.25,Stim\\05_075.jpg,En75_1,Enojo,1,Juan colecciona monedas antiguas.,Afirmación,En75,75,,,,,0,34,34,34,,,,,,,,,2,1.36676991346,,,,,2018_may._02_1419,60.0528733291,Experimento Piloto1,001,102,
0.25,Stim\\03_028.jpg,Tr28_4,Tristeza,4,Jorge sustituye a Gustavo cada sábado.,Afirmación,Tr28,28,,,,,0,35,35,35,,,,,,,,,4,0.333814090622,,,,,2018_may._02_1419,60.0528733291,Experimento Piloto1,001,102,
2.5,Stim\\03_078.jpg,Tr78_3,Tristeza,3,Andrea diseña la portada del libro.,Afirmación,Tr78,78,,,,,0,36,36,36,,,,,,,,,4,2.13320130358,,,,,2018_may._02_1419,60.0528733291,Experimento Piloto1,001,102,
0.25,Stim\\05_078.jpg,En78_4,Enojo,4,Jorge sustituye a Gustavo cada sábado.,Afirmación,En78,78,,,,,0,37,37,37,,,,,,,,,2,0.283645163637,,,,,2018_may._02_1419,60.0528733291,Experimento Piloto1,001,102,
2.5,Stim\\03_019.jpg,Tr19_7,Tristeza,7,Roberto contesta los cuestionarios solicitados.,Afirmación,Tr19,19,,,,,0,38,38,38,,,,,,,,,3,0.500325091291,,,,,2018_may._02_1419,60.0528733291,Experimento Piloto1,001,102,
0.25,Stim\\02_078.jpg,Al78_2,Alegría,2,Jonathan pasea al perro.,Afirmación,Al78,78,,,,,0,39,39,39,,,,,,,,,3,0.233775668713,,,,,2018_may._02_1419,60.0528733291,Experimento Piloto1,001,102,
0.25,Stim\\02_078.jpg,Al78_5,Alegría,5,Emilio revisa el formato del archivo.,Afirmación,Al78,78,,,,,0,40,40,40,,,,,,,,,3,0.599984202839,,,,,2018_may._02_1419,60.0528733291,Experimento Piloto1,001,102,
2.5,Stim\\05_019.jpg,En19_11,Enojo,11,María asiste a la cena.,Afirmación,En19,19,,,,,0,41,41,41,,,,,,,,,2,0.800268551736,,,,,2018_may._02_1419,60.0528733291,Experimento Piloto1,001,102,
2.5,Stim\\02_028.jpg,Al28_15,Alegría,15,Ángel envía una carta a la abuela.,Afirmación,Al28,28,,,,,0,42,42,42,,,,,,,,,3,0.650510574057,,,,,2018_may._02_1419,60.0528733291,Experimento Piloto1,001,102,
0.25,Stim\\03_019.jpg,Tr19_4,Tristeza,4,Jorge sustituye a Gustavo cada sábado.,Afirmación,Tr19,19,,,,,0,43,43,43,,,,,,,,,4,2.0831724983,,,,,2018_may._02_1419,60.0528733291,Experimento Piloto1,001,102,
2.5,Stim\\02_075.jpg,Al75_12,Alegría,12,Ana compra el libro.,Afirmación,Al75,75,,,,,0,44,44,44,,,,,,,,,2,0.816981858701,,,,,2018_may._02_1419,60.0528733291,Experimento Piloto1,001,102,
2.5,Stim\\05_028.jpg,En28_12,Enojo,12,Ana compra el libro.,Afirmación,En28,28,,,,,0,45,45,45,,,,,,,,,2,0.600429557827,,,,,2018_may._02_1419,60.0528733291,Experimento Piloto1,001,102,
0.25,Stim\\02_028.jpg,Al28_14,Alegría,14,Elizabeth elige la ropa un día antes.,Afirmación,Al28,28,,,,,0,46,46,46,,,,,,,,,3,1.98330945166,,,,,2018_may._02_1419,60.0528733291,Experimento Piloto1,001,102,
2.5,Stim\\03_075.jpg,Tr75_6,Tristeza,6,Eduardo camina hacia la biblioteca.,Afirmación,Tr75,75,,,,,0,47,47,47,,,,,,,,,4,0.650295482771,,,,,2018_may._02_1419,60.0528733291,Experimento Piloto1,001,102,
0.25,Stim\\05_028.jpg,En28_8,Enojo,8,Estefanía despierta a las 7 a.m.,Afirmación,En28,28,,,,,0,48,48,48,,,,,,,,,3,0.700317594334,,,,,2018_may._02_1419,60.0528733291,Experimento Piloto1,001,102,
2.5,Stim\\05_019.jpg,En19_7,Enojo,7,Roberto contesta los cuestionarios solicitados.,Afirmación,En19,19,,,,,0,49,49,49,,,,,,,,,2,2.1831863766,,,,,2018_may._02_1419,60.0528733291,Experimento Piloto1,001,102,
2.5,Stim\\02_019.jpg,Al19_10,Alegría,10,Laura finaliza la obra.,Afirmación,Al19,19,,,,,0,50,50,50,,,,,,,,,3,0.55036728399,,,,,2018_may._02_1419,60.0528733291,Experimento Piloto1,001,102,
0.25,Stim\\05_028.jpg,En28_14,Enojo,14,Elizabeth elige la ropa un día antes.,Afirmación,En28,28,,,,,0,51,51,51,,,,,,,,,2,0.966752331308,,,,,2018_may._02_1419,60.0528733291,Experimento Piloto1,001,102,
2.5,Stim\\03_028.jpg,Tr28_8,Tristeza,8,Estefanía despierta a las 7 a.m.,Afirmación,Tr28,28,,,,,0,52,52,52,,,,,,,,,4,0.533754828955,,,,,2018_may._02_1419,60.0528733291,Experimento Piloto1,001,102,
0.25,Stim\\02_075.jpg,Al75_3,Alegría,3,Andrea diseña la portada del libro.,Afirmación,Al75,75,,,,,0,53,53,53,,,,,,,,,2,0.950241174452,,,,,2018_may._02_1419,60.0528733291,Experimento Piloto1,001,102,
0.25,Stim\\02_028.jpg,Al28_1,Alegría,1,Juan colecciona monedas antiguas.,Afirmación,Al28,28,,,,,0,54,54,54,,,,,,,,,3,0.333573116981,,,,,2018_may._02_1419,60.0528733291,Experimento Piloto1,001,102,
0.25,Stim\\03_028.jpg,Tr28_3,Tristeza,3,Andrea diseña la portada del libro.,Afirmación,Tr28,28,,,,,0,55,55,55,,,,,,,,,4,0.283758510497,,,,,2018_may._02_1419,60.0528733291,Experimento Piloto1,001,102,
2.5,Stim\\02_078.jpg,Al78_11,Alegría,11,María asiste a la cena.,Afirmación,Al78,78,,,,,0,56,56,56,,,,,,,,,3,0.600376900624,,,,,2018_may._02_1419,60.0528733291,Experimento Piloto1,001,102,
0.25,Stim\\03_019.jpg,Tr19_12,Tristeza,12,Ana compra el libro.,Afirmación,Tr19,19,,,,,0,57,57,57,,,,,,,,,2,0.350052144018,,,,,2018_may._02_1419,60.0528733291,Experimento Piloto1,001,102,
2.5,Stim\\02_078.jpg,Al78_14,Alegría,14,Elizabeth elige la ropa un día antes.,Afirmación,Al78,78,,,,,0,58,58,58,,,,,,,,,3,0.600265785001,,,,,2018_may._02_1419,60.0528733291,Experimento Piloto1,001,102,
0.25,Stim\\03_019.jpg,Tr19_2,Tristeza,2,Jonathan pasea al perro.,Afirmación,Tr19,19,,,,,0,59,59,59,,,,,,,,,2,0.200332989872,,,,,2018_may._02_1419,60.0528733291,Experimento Piloto1,001,102,
2.5,Stim\\03_078.jpg,Tr78_1,Tristeza,1,Juan colecciona monedas antiguas.,Afirmación,Tr78,78,,,,,0,60,60,60,,,,,,,,,4,1.51672245504,,,,,2018_may._02_1419,60.0528733291,Experimento Piloto1,001,102,
0.25,Stim\\03_078.jpg,Tr78_4,Tristeza,4,Jorge sustituye a Gustavo cada sábado.,Afirmación,Tr78,78,,,,,0,61,61,61,,,,,,,,,2,3.31627344082,,,,,2018_may._02_1419,60.0528733291,Experimento Piloto1,001,102,
0.25,Stim\\05_019.jpg,En19_14,Enojo,14,Elizabeth elige la ropa un día antes.,Afirmación,En19,19,,,,,0,62,62,62,,,,,,,,,2,2.03312227315,,,,,2018_may._02_1419,60.0528733291,Experimento Piloto1,001,102,
0.25,Stim\\02_075.jpg,Al75_15,Alegría,15,Ángel envía una carta a la abuela.,Afirmación,Al75,75,,,,,0,63,63,63,,,,,,,,,2,0.550359251536,,,,,2018_may._02_1419,60.0528733291,Experimento Piloto1,001,102,
2.5,Stim\\03_028.jpg,Tr28_2,Tristeza,2,Jonathan pasea al perro.,Afirmación,Tr28,28,,,,,0,64,64,64,,,,,,,,,4,0.750269645042,,,,,2018_may._02_1419,60.0528733291,Experimento Piloto1,001,102,
0.25,Stim\\05_028.jpg,En28_3,Enojo,3,Andrea diseña la portada del libro.,Afirmación,En28,28,,,,,0,65,65,65,,,,,,,,,3,0.75023617648,,,,,2018_may._02_1419,60.0528733291,Experimento Piloto1,001,102,
0.25,Stim\\05_078.jpg,En78_3,Enojo,3,Andrea diseña la portada del libro.,Afirmación,En78,78,,,,,0,66,66,66,,,,,,,,,2,2.49960841783,,,,,2018_may._02_1419,60.0528733291,Experimento Piloto1,001,102,
0.25,Stim\\05_075.jpg,En75_9,Enojo,9,Marco colabora en la organización del evento.,Afirmación,En75,75,,,,,0,67,67,67,,,,,,,,,2,0.550330691697,,,,,2018_may._02_1419,60.0528733291,Experimento Piloto1,001,102,
2.5,Stim\\05_075.jpg,En75_7,Enojo,7,Roberto contesta los cuestionarios solicitados.,Afirmación,En75,75,,,,,0,68,68,68,,,,,,,,,2,0.550330245449,,,,,2018_may._02_1419,60.0528733291,Experimento Piloto1,001,102,
0.25,Stim\\03_078.jpg,Tr78_14,Tristeza,14,Elizabeth elige la ropa un día antes.,Afirmación,Tr78,78,,,,,0,69,69,69,,,,,,,,,4,1.10025485194,,,,,2018_may._02_1419,60.0528733291,Experimento Piloto1,001,102,
2.5,Stim\\03_019.jpg,Tr19_5,Tristeza,5,Emilio revisa el formato del archivo.,Afirmación,Tr19,19,,,,,0,70,70,70,,,,,,,,,3,0.300381675472,,,,,2018_may._02_1419,60.0528733291,Experimento Piloto1,001,102,
2.5,Stim\\05_028.jpg,En28_13,Enojo,13,Rocío consume alimentos nutritivos.,Afirmación,En28,28,,,,,0,71,71,71,,,,,,,,,2,0.284130680898,,,,,2018_may._02_1419,60.0528733291,Experimento Piloto1,001,102,
0.25,Stim\\05_075.jpg,En75_15,Enojo,15,Ángel envía una carta a la abuela.,Afirmación,En75,75,,,,,0,72,72,72,,,,,,,,,4,0.71624372074,,,,,2018_may._02_1419,60.0528733291,Experimento Piloto1,001,102,
2.5,Stim\\05_019.jpg,En19_6,Enojo,6,Eduardo camina hacia la biblioteca.,Afirmación,En19,19,,,,,0,73,73,73,,,,,,,,,2,0.233710516581,,,,,2018_may._02_1419,60.0528733291,Experimento Piloto1,001,102,
2.5,Stim\\05_078.jpg,En78_10,Enojo,10,Laura finaliza la obra.,Afirmación,En78,78,,,,,0,74,74,74,,,,,,,,,2,0.800548348907,,,,,2018_may._02_1419,60.0528733291,Experimento Piloto1,001,102,
2.5,Stim\\05_019.jpg,En19_9,Enojo,9,Marco colabora en la organización del evento.,Afirmación,En19,19,,,,,0,75,75,75,,,,,,,,,2,0.550299454373,,,,,2018_may._02_1419,60.0528733291,Experimento Piloto1,001,102,
2.5,Stim\\02_078.jpg,Al78_6,Alegría,6,Eduardo camina hacia la biblioteca.,Afirmación,Al78,78,,,,,0,76,76,76,,,,,,,,,4,0.966854968229,,,,,2018_may._02_1419,60.0528733291,Experimento Piloto1,001,102,
2.5,Stim\\05_078.jpg,En78_13,Enojo,13,Rocío consume alimentos nutritivos.,Afirmación,En78,78,,,,,0,77,77,77,,,,,,,,,2,0.716851063564,,,,,2018_may._02_1419,60.0528733291,Experimento Piloto1,001,102,
0.25,Stim\\05_028.jpg,En28_2,Enojo,2,Jonathan pasea al perro.,Afirmación,En28,28,,,,,0,78,78,78,,,,,,,,,2,0.700200231245,,,,,2018_may._02_1419,60.0528733291,Experimento Piloto1,001,102,
0.25,Stim\\05_019.jpg,En19_6,Enojo,6,Eduardo camina hacia la biblioteca.,Afirmación,En19,19,,,,,0,79,79,79,,,,,,,,,2,0.283566177833,,,,,2018_may._02_1419,60.0528733291,Experimento Piloto1,001,102,
2.5,Stim\\03_019.jpg,Tr19_11,Tristeza,11,María asiste a la cena.,Afirmación,Tr19,19,,,,,0,80,80,80,,,,,,,,,3,0.700198000008,,,,,2018_may._02_1419,60.0528733291,Experimento Piloto1,001,102,
2.5,Stim\\05_028.jpg,En28_11,Enojo,11,María asiste a la cena.,Afirmación,En28,28,,,,,0,81,81,81,,,,,,,,,2,1.31668711224,,,,,2018_may._02_1419,60.0528733291,Experimento Piloto1,001,102,
0.25,Stim\\02_078.jpg,Al78_9,Alegría,9,Marco colabora en la organización del evento.,Afirmación,Al78,78,,,,,0,82,82,82,,,,,,,,,4,0.966796509809,,,,,2018_may._02_1419,60.0528733291,Experimento Piloto1,001,102,
0.25,Stim\\05_019.jpg,En19_13,Enojo,13,Rocío consume alimentos nutritivos.,Afirmación,En19,19,,,,,0,83,83,83,,,,,,,,,2,0.333798471959,,,,,2018_may._02_1419,60.0528733291,Experimento Piloto1,001,102,
0.25,Stim\\03_078.jpg,Tr78_11,Tristeza,11,María asiste a la cena.,Afirmación,Tr78,78,,,,,0,84,84,84,,,,,,,,,4,0.850275044636,,,,,2018_may._02_1419,60.0528733291,Experimento Piloto1,001,102,
2.5,Stim\\05_028.jpg,En28_5,Enojo,5,Emilio revisa el formato del archivo.,Afirmación,En28,28,,,,,0,85,85,85,,,,,,,,,2,0.333618634224,,,,,2018_may._02_1419,60.0528733291,Experimento Piloto1,001,102,
0.25,Stim\\03_028.jpg,Tr28_10,Tristeza,10,Laura finaliza la obra.,Afirmación,Tr28,28,,,,,0,86,86,86,,,,,,,,,4,0.750424939165,,,,,2018_may._02_1419,60.0528733291,Experimento Piloto1,001,102,
0.25,Stim\\05_019.jpg,En19_11,Enojo,11,María asiste a la cena.,Afirmación,En19,19,,,,,0,87,87,87,,,,,,,,,2,0.450397584195,,,,,2018_may._02_1419,60.0528733291,Experimento Piloto1,001,102,
2.5,Stim\\03_028.jpg,Tr28_9,Tristeza,9,Marco colabora en la organización del evento.,Afirmación,Tr28,28,,,,,0,88,88,88,,,,,,,,,4,0.800266320497,,,,,2018_may._02_1419,60.0528733291,Experimento Piloto1,001,102,
2.5,Stim\\05_019.jpg,En19_8,Enojo,8,Estefanía despierta a las 7 a.m.,Afirmación,En19,19,,,,,0,89,89,89,,,,,,,,,2,1.88318267275,,,,,2018_may._02_1419,60.0528733291,Experimento Piloto1,001,102,
0.25,Stim\\03_075.jpg,Tr75_9,Tristeza,9,Marco colabora en la organización del evento.,Afirmación,Tr75,75,,,,,0,90,90,90,,,,,,,,,4,1.6166890311,,,,,2018_may._02_1419,60.0528733291,Experimento Piloto1,001,102,
2.5,Stim\\02_075.jpg,Al75_3,Alegría,3,Andrea diseña la portada del libro.,Afirmación,Al75,75,,,,,0,91,91,91,,,,,,,,,2,0.599973492901,,,,,2018_may._02_1419,60.0528733291,Experimento Piloto1,001,102,
0.25,Stim\\05_028.jpg,En28_12,Enojo,12,Ana compra el libro.,Afirmación,En28,28,,,,,0,92,92,92,,,,,,,,,2,0.283748693053,,,,,2018_may._02_1419,60.0528733291,Experimento Piloto1,001,102,
0.25,Stim\\03_028.jpg,Tr28_7,Tristeza,7,Roberto contesta los cuestionarios solicitados.,Afirmación,Tr28,28,,,,,0,93,93,93,,,,,,,,,4,1.68292822243,,,,,2018_may._02_1419,60.0528733291,Experimento Piloto1,001,102,
0.25,Stim\\03_019.jpg,Tr19_8,Tristeza,8,Estefanía despierta a las 7 a.m.,Afirmación,Tr19,19,,,,,0,94,94,94,,,,,,,,,3,0.600404567967,,,,,2018_may._02_1419,60.0528733291,Experimento Piloto1,001,102,
0.25,Stim\\02_019.jpg,Al19_4,Alegría,4,Jorge sustituye a Gustavo cada sábado.,Afirmación,Al19,19,,,,,0,95,95,95,,,,,,,,,3,0.383741151471,,,,,2018_may._02_1419,60.0528733291,Experimento Piloto1,001,102,
2.5,Stim\\05_019.jpg,En19_15,Enojo,15,Ángel envía una carta a la abuela.,Afirmación,En19,19,,,,,0,96,96,96,,,,,,,,,2,0.850427661275,,,,,2018_may._02_1419,60.0528733291,Experimento Piloto1,001,102,
0.25,Stim\\05_075.jpg,En75_13,Enojo,13,Rocío consume alimentos nutritivos.,Afirmación,En75,75,,,,,0,97,97,97,,,,,,,,,2,1.01681148141,,,,,2018_may._02_1419,60.0528733291,Experimento Piloto1,001,102,
0.25,Stim\\02_078.jpg,Al78_7,Alegría,7,Roberto contesta los cuestionarios solicitados.,Afirmación,Al78,78,,,,,0,98,98,98,,,,,,,,,3,0.283549666674,,,,,2018_may._02_1419,60.0528733291,Experimento Piloto1,001,102,
2.5,Stim\\03_028.jpg,Tr28_3,Tristeza,3,Andrea diseña la portada del libro.,Afirmación,Tr28,28,,,,,0,99,99,99,,,,,,,,,4,0.750166115626,,,,,2018_may._02_1419,60.0528733291,Experimento Piloto1,001,102,
2.5,Stim\\05_075.jpg,En75_15,Enojo,15,Ángel envía una carta a la abuela.,Afirmación,En75,75,,,,,0,100,100,100,,,,,,,,,2,0.383706344166,,,,,2018_may._02_1419,60.0528733291,Experimento Piloto1,001,102,
0.25,Stim\\02_028.jpg,Al28_13,Alegría,13,Rocío consume alimentos nutritivos.,Afirmación,Al28,28,,,,,0,101,101,101,,,,,,,,,3,0.700352847885,,,,,2018_may._02_1419,60.0528733291,Experimento Piloto1,001,102,
0.25,Stim\\03_028.jpg,Tr28_15,Tristeza,15,Ángel envía una carta a la abuela.,Afirmación,Tr28,28,,,,,0,102,102,102,,,,,,,,,4,0.65034144626,,,,,2018_may._02_1419,60.0528733291,Experimento Piloto1,001,102,
0.25,Stim\\05_019.jpg,En19_2,Enojo,2,Jonathan pasea al perro.,Afirmación,En19,19,,,,,0,103,103,103,,,,,,,,,2,1.31670719337,,,,,2018_may._02_1419,60.0528733291,Experimento Piloto1,001,102,
0.25,Stim\\03_078.jpg,Tr78_13,Tristeza,13,Rocío consume alimentos nutritivos.,Afirmación,Tr78,78,,,,,0,104,104,104,,,,,,,,,4,0.700281894535,,,,,2018_may._02_1419,60.0528733291,Experimento Piloto1,001,102,
2.5,Stim\\03_075.jpg,Tr75_2,Tristeza,2,Jonathan pasea al perro.,Afirmación,Tr75,75,,,,,0,105,105,105,,,,,,,,,4,0.800288632872,,,,,2018_may._02_1419,60.0528733291,Experimento Piloto1,001,102,
2.5,Stim\\05_075.jpg,En75_10,Enojo,10,Laura finaliza la obra.,Afirmación,En75,75,,,,,0,106,106,106,,,,,,,,,2,0.384549751909,,,,,2018_may._02_1419,60.0528733291,Experimento Piloto1,001,102,
2.5,Stim\\05_028.jpg,En28_3,Enojo,3,Andrea diseña la portada del libro.,Afirmación,En28,28,,,,,0,107,107,107,,,,,,,,,2,0.400099691688,,,,,2018_may._02_1419,60.0528733291,Experimento Piloto1,001,102,
2.5,Stim\\02_078.jpg,Al78_8,Alegría,8,Estefanía despierta a las 7 a.m.,Afirmación,Al78,78,,,,,0,108,108,108,,,,,,,,,3,0.900127582154,,,,,2018_may._02_1419,60.0528733291,Experimento Piloto1,001,102,
2.5,Stim\\05_075.jpg,En75_2,Enojo,2,Jonathan pasea al perro.,Afirmación,En75,75,,,,,0,109,109,109,,,,,,,,,2,1.61677694186,,,,,2018_may._02_1419,60.0528733291,Experimento Piloto1,001,102,
0.25,Stim\\05_078.jpg,En78_2,Enojo,2,Jonathan pasea al perro.,Afirmación,En78,78,,,,,0,110,110,110,,,,,,,,,2,0.38366662814,,,,,2018_may._02_1419,60.0528733291,Experimento Piloto1,001,102,
2.5,Stim\\05_078.jpg,En78_14,Enojo,14,Elizabeth elige la ropa un día antes.,Afirmación,En78,78,,,,,0,111,111,111,,,,,,,,,2,0.250296196768,,,,,2018_may._02_1419,60.0528733291,Experimento Piloto1,001,102,
2.5,Stim\\05_028.jpg,En28_1,Enojo,1,Juan colecciona monedas antiguas.,Afirmación,En28,28,,,,,0,112,112,112,,,,,,,,,2,0.283726826927,,,,,2018_may._02_1419,60.0528733291,Experimento Piloto1,001,102,
0.25,Stim\\05_019.jpg,En19_12,Enojo,12,Ana compra el libro.,Afirmación,En19,19,,,,,0,113,113,113,,,,,,,,,2,0.400350929021,,,,,2018_may._02_1419,60.0528733291,Experimento Piloto1,001,102,
0.25,Stim\\02_075.jpg,Al75_13,Alegría,13,Rocío consume alimentos nutritivos.,Afirmación,Al75,75,,,,,0,114,114,114,,,,,,,,,2,0.283731289401,,,,,2018_may._02_1419,60.0528733291,Experimento Piloto1,001,102,
2.5,Stim\\03_019.jpg,Tr19_6,Tristeza,6,Eduardo camina hacia la biblioteca.,Afirmación,Tr19,19,,,,,0,115,115,115,,,,,,,,,2,1.16691708588,,,,,2018_may._02_1419,60.0528733291,Experimento Piloto1,001,102,
2.5,Stim\\05_028.jpg,En28_14,Enojo,14,Elizabeth elige la ropa un día antes.,Afirmación,En28,28,,,,,0,116,116,116,,,,,,,,,2,0.350389953363,,,,,2018_may._02_1419,60.0528733291,Experimento Piloto1,001,102,
2.5,Stim\\02_028.jpg,Al28_5,Alegría,5,Emilio revisa el formato del archivo.,Afirmación,Al28,28,,,,,0,117,117,117,,,,,,,,,3,0.333573563228,,,,,2018_may._02_1419,60.0528733291,Experimento Piloto1,001,102,
2.5,Stim\\02_078.jpg,Al78_9,Alegría,9,Marco colabora en la organización del evento.,Afirmación,Al78,78,,,,,0,118,118,118,,,,,,,,,3,0.300388369184,,,,,2018_may._02_1419,60.0528733291,Experimento Piloto1,001,102,
0.25,Stim\\03_019.jpg,Tr19_3,Tristeza,3,Andrea diseña la portada del libro.,Afirmación,Tr19,19,,,,,0,119,119,119,,,,,,,,,3,1.21675623598,,,,,2018_may._02_1419,60.0528733291,Experimento Piloto1,001,102,
0.25,Stim\\02_075.jpg,Al75_11,Alegría,11,María asiste a la cena.,Afirmación,Al75,75,,,,,,,,,0,0,0,0,,,,,,,2,0.750247332666,,,2018_may._02_1419,60.0528733291,Experimento Piloto1,001,102,
2.5,Stim\\03_019.jpg,Tr19_9,Tristeza,9,Marco colabora en la organización del evento.,Afirmación,Tr19,19,,,,,,,,,0,1,1,1,,,,,,,2,0.250028894525,,,2018_may._02_1419,60.0528733291,Experimento Piloto1,001,102,
2.5,Stim\\02_075.jpg,Al75_8,Alegría,8,Estefanía despierta a las 7 a.m.,Afirmación,Al75,75,,,,,,,,,0,2,2,2,,,,,,,2,0.53371511293,,,2018_may._02_1419,60.0528733291,Experimento Piloto1,001,102,
2.5,Stim\\03_075.jpg,Tr75_13,Tristeza,13,Rocío consume alimentos nutritivos.,Afirmación,Tr75,75,,,,,,,,,0,3,3,3,,,,,,,4,1.51667381406,,,2018_may._02_1419,60.0528733291,Experimento Piloto1,001,102,
0.25,Stim\\03_019.jpg,Tr19_15,Tristeza,15,Ángel envía una carta a la abuela.,Afirmación,Tr19,19,,,,,,,,,0,4,4,4,,,,,,,3,1.01687440231,,,2018_may._02_1419,60.0528733291,Experimento Piloto1,001,102,
2.5,Stim\\05_075.jpg,En75_11,Enojo,11,María asiste a la cena.,Afirmación,En75,75,,,,,,,,,0,5,5,5,,,,,,,2,0.033886695086,,,2018_may._02_1419,60.0528733291,Experimento Piloto1,001,102,
0.25,Stim\\05_028.jpg,En28_4,Enojo,4,Jorge sustituye a Gustavo cada sábado.,Afirmación,En28,28,,,,,,,,,0,6,6,6,,,,,,,2,0.483746104817,,,2018_may._02_1419,60.0528733291,Experimento Piloto1,001,102,
2.5,Stim\\05_028.jpg,En28_9,Enojo,9,Marco colabora en la organización del evento.,Afirmación,En28,28,,,,,,,,,0,7,7,7,,,,,,,2,0.333707437472,,,2018_may._02_1419,60.0528733291,Experimento Piloto1,001,102,
2.5,Stim\\03_075.jpg,Tr75_9,Tristeza,9,Marco colabora en la organización del evento.,Afirmación,Tr75,75,,,,,,,,,0,8,8,8,,,,,,,4,0.333491007443,,,2018_may._02_1419,60.0528733291,Experimento Piloto1,001,102,
2.5,Stim\\05_028.jpg,En28_15,Enojo,15,Ángel envía una carta a la abuela.,Afirmación,En28,28,,,,,,,,,0,9,9,9,,,,,,,2,0.33368646384,,,2018_may._02_1419,60.0528733291,Experimento Piloto1,001,102,
0.25,Stim\\03_078.jpg,Tr78_8,Tristeza,8,Estefanía despierta a las 7 a.m.,Afirmación,Tr78,78,,,,,,,,,0,10,10,10,,,,,,,4,1.51660643069,,,2018_may._02_1419,60.0528733291,Experimento Piloto1,001,102,
0.25,Stim\\02_075.jpg,Al75_1,Alegría,1,Juan colecciona monedas antiguas.,Afirmación,Al75,75,,,,,,,,,0,11,11,11,,,,,,,2,0.450475231257,,,2018_may._02_1419,60.0528733291,Experimento Piloto1,001,102,
0.25,Stim\\05_078.jpg,En78_11,Enojo,11,María asiste a la cena.,Afirmación,En78,78,,,,,,,,,0,12,12,12,,,,,,,2,0.950242513194,,,2018_may._02_1419,60.0528733291,Experimento Piloto1,001,102,
2.5,Stim\\03_028.jpg,Tr28_15,Tristeza,15,Ángel envía una carta a la abuela.,Afirmación,Tr28,28,,,,,,,,,0,13,13,13,,,,,,,4,1.11664686072,,,2018_may._02_1419,60.0528733291,Experimento Piloto1,001,102,
2.5,Stim\\02_019.jpg,Al19_3,Alegría,3,Andrea diseña la portada del libro.,Afirmación,Al19,19,,,,,,,,,0,14,14,14,,,,,,,3,0.333518228541,,,2018_may._02_1419,60.0528733291,Experimento Piloto1,001,102,
2.5,Stim\\05_019.jpg,En19_5,Enojo,5,Emilio revisa el formato del archivo.,Afirmación,En19,19,,,,,,,,,0,15,15,15,,,,,,,2,0.383777297517,,,2018_may._02_1419,60.0528733291,Experimento Piloto1,001,102,
0.25,Stim\\02_028.jpg,Al28_11,Alegría,11,María asiste a la cena.,Afirmación,Al28,28,,,,,,,,,0,16,16,16,,,,,,,3,0.55023965721,,,2018_may._02_1419,60.0528733291,Experimento Piloto1,001,102,
0.25,Stim\\03_019.jpg,Tr19_11,Tristeza,11,María asiste a la cena.,Afirmación,Tr19,19,,,,,,,,,0,17,17,17,,,,,,,2,0.70011098175,,,2018_may._02_1419,60.0528733291,Experimento Piloto1,001,102,
2.5,Stim\\03_078.jpg,Tr78_14,Tristeza,14,Elizabeth elige la ropa un día antes.,Afirmación,Tr78,78,,,,,,,,,0,18,18,18,,,,,,,4,0.450363223139,,,2018_may._02_1419,60.0528733291,Experimento Piloto1,001,102,
0.25,Stim\\02_019.jpg,Al19_9,Alegría,9,Marco colabora en la organización del evento.,Afirmación,Al19,19,,,,,,,,,0,19,19,19,,,,,,,3,0.333719039909,,,2018_may._02_1419,60.0528733291,Experimento Piloto1,001,102,
2.5,Stim\\02_075.jpg,Al75_11,Alegría,11,María asiste a la cena.,Afirmación,Al75,75,,,,,,,,,0,20,20,20,,,,,,,3,0.333399526709,,,2018_may._02_1419,60.0528733291,Experimento Piloto1,001,102,
0.25,Stim\\02_028.jpg,Al28_4,Alegría,4,Jorge sustituye a Gustavo cada sábado.,Afirmación,Al28,28,,,,,,,,,0,21,21,21,,,,,,,3,0.800230174453,,,2018_may._02_1419,60.0528733291,Experimento Piloto1,001,102,
2.5,Stim\\02_075.jpg,Al75_10,Alegría,10,Laura finaliza la obra.,Afirmación,Al75,75,,,,,,,,,0,22,22,22,,,,,,,2,0.70035686411,,,2018_may._02_1419,60.0528733291,Experimento Piloto1,001,102,
0.25,Stim\\05_075.jpg,En75_4,Enojo,4,Jorge sustituye a Gustavo cada sábado.,Afirmación,En75,75,,,,,,,,,0,23,23,23,,,,,,,2,0.183920007461,,,2018_may._02_1419,60.0528733291,Experimento Piloto1,001,102,
2.5,Stim\\02_028.jpg,Al28_11,Alegría,11,María asiste a la cena.,Afirmación,Al28,28,,,,,,,,,0,24,24,24,,,,,,,3,0.650294590276,,,2018_may._02_1419,60.0528733291,Experimento Piloto1,001,102,
0.25,Stim\\02_078.jpg,Al78_1,Alegría,1,Juan colecciona monedas antiguas.,Afirmación,Al78,78,,,,,,,,,0,25,25,25,,,,,,,3,0.250385446263,,,2018_may._02_1419,60.0528733291,Experimento Piloto1,001,102,
2.5,Stim\\02_019.jpg,Al19_7,Alegría,7,Roberto contesta los cuestionarios solicitados.,Afirmación,Al19,19,,,,,,,,,0,26,26,26,,,,,,,3,0.300010843814,,,2018_may._02_1419,60.0528733291,Experimento Piloto1,001,102,
0.25,Stim\\05_028.jpg,En28_15,Enojo,15,Ángel envía una carta a la abuela.,Afirmación,En28,28,,,,,,,,,0,27,27,27,,,,,,,2,1.98317691615,,,2018_may._02_1419,60.0528733291,Experimento Piloto1,001,102,
0.25,Stim\\03_075.jpg,Tr75_2,Tristeza,2,Jonathan pasea al perro.,Afirmación,Tr75,75,,,,,,,,,0,28,28,28,,,,,,,4,0.600603594345,,,2018_may._02_1419,60.0528733291,Experimento Piloto1,001,102,
0.25,Stim\\05_075.jpg,En75_3,Enojo,3,Andrea diseña la portada del libro.,Afirmación,En75,75,,,,,,,,,0,29,29,29,,,,,,,2,0.500368823543,,,2018_may._02_1419,60.0528733291,Experimento Piloto1,001,102,
2.5,Stim\\05_028.jpg,En28_10,Enojo,10,Laura finaliza la obra.,Afirmación,En28,28,,,,,,,,,0,30,30,30,,,,,,,2,0.25006325558,,,2018_may._02_1419,60.0528733291,Experimento Piloto1,001,102,
0.25,Stim\\05_019.jpg,En19_4,Enojo,4,Jorge sustituye a Gustavo cada sábado.,Afirmación,En19,19,,,,,,,,,0,31,31,31,,,,,,,2,0.450294947274,,,2018_may._02_1419,60.0528733291,Experimento Piloto1,001,102,
2.5,Stim\\02_078.jpg,Al78_1,Alegría,1,Juan colecciona monedas antiguas.,Afirmación,Al78,78,,,,,,,,,0,32,32,32,,,,,,,3,0.750324087234,,,2018_may._02_1419,60.0528733291,Experimento Piloto1,001,102,
0.25,Stim\\05_075.jpg,En75_6,Enojo,6,Eduardo camina hacia la biblioteca.,Afirmación,En75,75,,,,,,,,,0,33,33,33,,,,,,,3,0.700240393518,,,2018_may._02_1419,60.0528733291,Experimento Piloto1,001,102,
2.5,Stim\\02_019.jpg,Al19_12,Alegría,12,Ana compra el libro.,Afirmación,Al19,19,,,,,,,,,0,34,34,34,,,,,,,3,0.80028015417,,,2018_may._02_1419,60.0528733291,Experimento Piloto1,001,102,
0.25,Stim\\05_075.jpg,En75_8,Enojo,8,Estefanía despierta a las 7 a.m.,Afirmación,En75,75,,,,,,,,,0,35,35,35,,,,,,,2,0.300354008128,,,2018_may._02_1419,60.0528733291,Experimento Piloto1,001,102,
2.5,Stim\\03_028.jpg,Tr28_4,Tristeza,4,Jorge sustituye a Gustavo cada sábado.,Afirmación,Tr28,28,,,,,,,,,0,36,36,36,,,,,,,4,0.550276695752,,,2018_may._02_1419,60.0528733291,Experimento Piloto1,001,102,
0.25,Stim\\03_078.jpg,Tr78_12,Tristeza,12,Ana compra el libro.,Afirmación,Tr78,78,,,,,,,,,0,37,37,37,,,,,,,4,0.850394192714,,,2018_may._02_1419,60.0528733291,Experimento Piloto1,001,102,
2.5,Stim\\03_019.jpg,Tr19_3,Tristeza,3,Andrea diseña la portada del libro.,Afirmación,Tr19,19,,,,,,,,,0,38,38,38,,,,,,,2,0.350456890485,,,2018_may._02_1419,60.0528733291,Experimento Piloto1,001,102,
2.5,Stim\\05_075.jpg,En75_4,Enojo,4,Jorge sustituye a Gustavo cada sábado.,Afirmación,En75,75,,,,,,,,,0,39,39,39,,,,,,,2,1.56687040839,,,2018_may._02_1419,60.0528733291,Experimento Piloto1,001,102,
0.25,Stim\\05_078.jpg,En78_6,Enojo,6,Eduardo camina hacia la biblioteca.,Afirmación,En78,78,,,,,,,,,0,40,40,40,,,,,,,2,0.433648577429,,,2018_may._02_1419,60.0528733291,Experimento Piloto1,001,102,
0.25,Stim\\03_078.jpg,Tr78_3,Tristeza,3,Andrea diseña la portada del libro.,Afirmación,Tr78,78,,,,,,,,,0,41,41,41,,,,,,,4,0.351038350957,,,2018_may._02_1419,60.0528733291,Experimento Piloto1,001,102,
0.25,Stim\\05_078.jpg,En78_15,Enojo,15,Ángel envía una carta a la abuela.,Afirmación,En78,78,,,,,,,,,0,42,42,42,,,,,,,4,0.433816366483,,,2018_may._02_1419,60.0528733291,Experimento Piloto1,001,102,
2.5,Stim\\05_078.jpg,En78_2,Enojo,2,Jonathan pasea al perro.,Afirmación,En78,78,,,,,,,,,0,43,43,43,,,,,,,2,0.85036474038,,,2018_may._02_1419,60.0528733291,Experimento Piloto1,001,102,
2.5,Stim\\02_078.jpg,Al78_4,Alegría,4,Jorge sustituye a Gustavo cada sábado.,Afirmación,Al78,78,,,,,,,,,0,44,44,44,,,,,,,3,0.300004150102,,,2018_may._02_1419,60.0528733291,Experimento Piloto1,001,102,
2.5,Stim\\05_078.jpg,En78_4,Enojo,4,Jorge sustituye a Gustavo cada sábado.,Afirmación,En78,78,,,,,,,,,0,45,45,45,,,,,,,2,0.716948345515,,,2018_may._02_1419,60.0528733291,Experimento Piloto1,001,102,
0.25,Stim\\05_019.jpg,En19_9,Enojo,9,Marco colabora en la organización del evento.,Afirmación,En19,19,,,,,,,,,0,46,46,46,,,,,,,2,0.600080592294,,,2018_may._02_1419,60.0528733291,Experimento Piloto1,001,102,
0.25,Stim\\05_019.jpg,En19_15,Enojo,15,Ángel envía una carta a la abuela.,Afirmación,En19,19,,,,,,,,,0,47,47,47,,,,,,,2,0.700123030432,,,2018_may._02_1419,60.0528733291,Experimento Piloto1,001,102,
2.5,Stim\\02_028.jpg,Al28_2,Alegría,2,Jonathan pasea al perro.,Afirmación,Al28,28,,,,,,,,,0,48,48,48,,,,,,,3,0.549643916822,,,2018_may._02_1419,60.0528733291,Experimento Piloto1,001,102,
0.25,Stim\\03_075.jpg,Tr75_1,Tristeza,1,Juan colecciona monedas antiguas.,Afirmación,Tr75,75,,,,,,,,,0,49,49,49,,,,,,,4,0.700292604473,,,2018_may._02_1419,60.0528733291,Experimento Piloto1,001,102,
2.5,Stim\\02_028.jpg,Al28_12,Alegría,12,Ana compra el libro.,Afirmación,Al28,28,,,,,,,,,0,50,50,50,,,,,,,3,0.183973110912,,,2018_may._02_1419,60.0528733291,Experimento Piloto1,001,102,
0.25,Stim\\05_019.jpg,En19_5,Enojo,5,Emilio revisa el formato del archivo.,Afirmación,En19,19,,,,,,,,,0,51,51,51,,,,,,,4,2.38393080665,,,2018_may._02_1419,60.0528733291,Experimento Piloto1,001,102,
0.25,Stim\\02_075.jpg,Al75_9,Alegría,9,Marco colabora en la organización del evento.,Afirmación,Al75,75,,,,,,,,,0,52,52,52,,,,,,,2,0.70036266533,,,2018_may._02_1419,60.0528733291,Experimento Piloto1,001,102,
2.5,Stim\\03_019.jpg,Tr19_12,Tristeza,12,Ana compra el libro.,Afirmación,Tr19,19,,,,,,,,,0,53,53,53,,,,,,,2,0.28373485938,,,2018_may._02_1419,60.0528733291,Experimento Piloto1,001,102,
2.5,Stim\\02_019.jpg,Al19_4,Alegría,4,Jorge sustituye a Gustavo cada sábado.,Afirmación,Al19,19,,,,,,,,,0,54,54,54,,,,,,,3,0.600268462485,,,2018_may._02_1419,60.0528733291,Experimento Piloto1,001,102,
0.25,Stim\\02_019.jpg,Al19_12,Alegría,12,Ana compra el libro.,Afirmación,Al19,19,,,,,,,,,0,55,55,55,,,,,,,3,1.16650386071,,,2018_may._02_1419,60.0528733291,Experimento Piloto1,001,102,
2.5,Stim\\02_078.jpg,Al78_7,Alegría,7,Roberto contesta los cuestionarios solicitados.,Afirmación,Al78,78,,,,,,,,,0,56,56,56,,,,,,,3,0.550425296164,,,2018_may._02_1419,60.0528733291,Experimento Piloto1,001,102,
2.5,Stim\\03_078.jpg,Tr78_13,Tristeza,13,Rocío consume alimentos nutritivos.,Afirmación,Tr78,78,,,,,,,,,0,57,57,57,,,,,,,4,0.300622649112,,,2018_may._02_1419,60.0528733291,Experimento Piloto1,001,102,
2.5,Stim\\02_075.jpg,Al75_9,Alegría,9,Marco colabora en la organización del evento.,Afirmación,Al75,75,,,,,,,,,0,58,58,58,,,,,,,2,0.334107721465,,,2018_may._02_1419,60.0528733291,Experimento Piloto1,001,102,
0.25,Stim\\02_028.jpg,Al28_5,Alegría,5,Emilio revisa el formato del archivo.,Afirmación,Al28,28,,,,,,,,,0,59,59,59,,,,,,,3,0.300422730241,,,2018_may._02_1419,60.0528733291,Experimento Piloto1,001,102,
2.5,Stim\\03_028.jpg,Tr28_7,Tristeza,7,Roberto contesta los cuestionarios solicitados.,Afirmación,Tr28,28,,,,,,,,,0,60,60,60,,,,,,,4,0.45038598176,,,2018_may._02_1419,60.0528733291,Experimento Piloto1,001,102,
0.25,Stim\\05_078.jpg,En78_7,Enojo,7,Roberto contesta los cuestionarios solicitados.,Afirmación,En78,78,,,,,,,,,0,61,61,61,,,,,,,2,0.33376455715,,,2018_may._02_1419,60.0528733291,Experimento Piloto1,001,102,
2.5,Stim\\03_028.jpg,Tr28_5,Tristeza,5,Emilio revisa el formato del archivo.,Afirmación,Tr28,28,,,,,,,,,0,62,62,62,,,,,,,4,0.400168413798,,,2018_may._02_1419,60.0528733291,Experimento Piloto1,001,102,
0.25,Stim\\02_019.jpg,Al19_13,Alegría,13,Rocío consume alimentos nutritivos.,Afirmación,Al19,19,,,,,,,,,0,63,63,63,,,,,,,3,0.283841958777,,,2018_may._02_1419,60.0528733291,Experimento Piloto1,001,102,
2.5,Stim\\05_019.jpg,En19_13,Enojo,13,Rocío consume alimentos nutritivos.,Afirmación,En19,19,,,,,,,,,0,64,64,64,,,,,,,2,1.16675331305,,,2018_may._02_1419,60.0528733291,Experimento Piloto1,001,102,
2.5,Stim\\03_078.jpg,Tr78_4,Tristeza,4,Jorge sustituye a Gustavo cada sábado.,Afirmación,Tr78,78,,,,,,,,,0,65,65,65,,,,,,,4,0.333752062221,,,2018_may._02_1419,60.0528733291,Experimento Piloto1,001,102,
0.25,Stim\\05_028.jpg,En28_13,Enojo,13,Rocío consume alimentos nutritivos.,Afirmación,En28,28,,,,,,,,,0,66,66,66,,,,,,,2,0.500278235306,,,2018_may._02_1419,60.0528733291,Experimento Piloto1,001,102,
0.25,Stim\\02_075.jpg,Al75_4,Alegría,4,Jorge sustituye a Gustavo cada sábado.,Afirmación,Al75,75,,,,,,,,,0,67,67,67,,,,,,,2,0.233736398934,,,2018_may._02_1419,60.0528733291,Experimento Piloto1,001,102,
0.25,Stim\\03_019.jpg,Tr19_14,Tristeza,14,Elizabeth elige la ropa un día antes.,Afirmación,Tr19,19,,,,,,,,,0,68,68,68,,,,,,,2,0.55044180732,,,2018_may._02_1419,60.0528733291,Experimento Piloto1,001,102,
2.5,Stim\\02_075.jpg,Al75_4,Alegría,4,Jorge sustituye a Gustavo cada sábado.,Afirmación,Al75,75,,,,,,,,,0,69,69,69,,,,,,,2,0.550264200821,,,2018_may._02_1419,60.0528733291,Experimento Piloto1,001,102,
2.5,Stim\\05_078.jpg,En78_7,Enojo,7,Roberto contesta los cuestionarios solicitados.,Afirmación,En78,78,,,,,,,,,0,70,70,70,,,,,,,2,0.60029255985,,,2018_may._02_1419,60.0528733291,Experimento Piloto1,001,102,
2.5,Stim\\05_028.jpg,En28_6,Enojo,6,Eduardo camina hacia la biblioteca.,Afirmación,En28,28,,,,,,,,,0,71,71,71,,,,,,,2,0.700273415832,,,2018_may._02_1419,60.0528733291,Experimento Piloto1,001,102,
2.5,Stim\\05_028.jpg,En28_7,Enojo,7,Roberto contesta los cuestionarios solicitados.,Afirmación,En28,28,,,,,,,,,0,72,72,72,,,,,,,2,0.850107255583,,,2018_may._02_1419,60.0528733291,Experimento Piloto1,001,102,
2.5,Stim\\03_028.jpg,Tr28_14,Tristeza,14,Elizabeth elige la ropa un día antes.,Afirmación,Tr28,28,,,,,,,,,0,73,73,73,,,,,,,4,1.16649225828,,,2018_may._02_1419,60.0528733291,Experimento Piloto1,001,102,
2.5,Stim\\02_019.jpg,Al19_11,Alegría,11,María asiste a la cena.,Afirmación,Al19,19,,,,,,,,,0,74,74,74,,,,,,,3,0.283790194069,,,2018_may._02_1419,60.0528733291,Experimento Piloto1,001,102,
0.25,Stim\\05_028.jpg,En28_7,Enojo,7,Roberto contesta los cuestionarios solicitados.,Afirmación,En28,28,,,,,,,,,0,75,75,75,,,,,,,2,0.250370720096,,,2018_may._02_1419,60.0528733291,Experimento Piloto1,001,102,
0.25,Stim\\05_078.jpg,En78_13,Enojo,13,Rocío consume alimentos nutritivos.,Afirmación,En78,78,,,,,,,,,0,76,76,76,,,,,,,2,1.93322084922,,,2018_may._02_1419,60.0528733291,Experimento Piloto1,001,102,
0.25,Stim\\03_028.jpg,Tr28_14,Tristeza,14,Elizabeth elige la ropa un día antes.,Afirmación,Tr28,28,,,,,,,,,0,77,77,77,,,,,,,4,0.550219576073,,,2018_may._02_1419,60.0528733291,Experimento Piloto1,001,102,
2.5,Stim\\03_075.jpg,Tr75_14,Tristeza,14,Elizabeth elige la ropa un día antes.,Afirmación,Tr75,75,,,,,,,,,0,78,78,78,,,,,,,4,0.800267212991,,,2018_may._02_1419,60.0528733291,Experimento Piloto1,001,102,
0.25,Stim\\05_019.jpg,En19_10,Enojo,10,Laura finaliza la obra.,Afirmación,En19,19,,,,,,,,,0,79,79,79,,,,,,,2,0.500045294119,,,2018_may._02_1419,60.0528733291,Experimento Piloto1,001,102,
0.25,Stim\\05_078.jpg,En78_9,Enojo,9,Marco colabora en la organización del evento.,Afirmación,En78,78,,,,,,,,,0,80,80,80,,,,,,,2,0.700211387431,,,2018_may._02_1419,60.0528733291,Experimento Piloto1,001,102,
0.25,Stim\\02_028.jpg,Al28_6,Alegría,6,Eduardo camina hacia la biblioteca.,Afirmación,Al28,28,,,,,,,,,0,81,81,81,,,,,,,3,0.550268663297,,,2018_may._02_1419,60.0528733291,Experimento Piloto1,001,102,
0.25,Stim\\05_078.jpg,En78_12,Enojo,12,Ana compra el libro.,Afirmación,En78,78,,,,,,,,,0,82,82,82,,,,,,,2,0.283775467902,,,2018_may._02_1419,60.0528733291,Experimento Piloto1,001,102,
2.5,Stim\\05_075.jpg,En75_1,Enojo,1,Juan colecciona monedas antiguas.,Afirmación,En75,75,,,,,,,,,0,83,83,83,,,,,,,2,1.78327410886,,,2018_may._02_1419,60.0528733291,Experimento Piloto1,001,102,
0.25,Stim\\03_019.jpg,Tr19_13,Tristeza,13,Rocío consume alimentos nutritivos.,Afirmación,Tr19,19,,,,,,,,,0,84,84,84,,,,,,,3,0.750085791078,,,2018_may._02_1419,60.0528733291,Experimento Piloto1,001,102,
2.5,Stim\\03_078.jpg,Tr78_11,Tristeza,11,María asiste a la cena.,Afirmación,Tr78,78,,,,,,,,,0,85,85,85,,,,,,,4,0.400244722119,,,2018_may._02_1419,60.0528733291,Experimento Piloto1,001,102,
2.5,Stim\\05_019.jpg,En19_1,Enojo,1,Juan colecciona monedas antiguas.,Afirmación,En19,19,,,,,,,,,0,86,86,86,,,,,,,2,4.13248239888,,,2018_may._02_1419,60.0528733291,Experimento Piloto1,001,102,
0.25,Stim\\02_075.jpg,Al75_10,Alegría,10,Laura finaliza la obra.,Afirmación,Al75,75,,,,,,,,,0,87,87,87,,,,,,,2,0.183690190008,,,2018_may._02_1419,60.0528733291,Experimento Piloto1,001,102,
2.5,Stim\\02_019.jpg,Al19_14,Alegría,14,Elizabeth elige la ropa un día antes.,Afirmación,Al19,19,,,,,,,,,0,88,88,88,,,,,,,3,0.233808691026,,,2018_may._02_1419,60.0528733291,Experimento Piloto1,001,102,
0.25,Stim\\03_028.jpg,Tr28_6,Tristeza,6,Eduardo camina hacia la biblioteca.,Afirmación,Tr28,28,,,,,,,,,0,89,89,89,,,,,,,4,1.0668197593,,,2018_may._02_1419,60.0528733291,Experimento Piloto1,001,102,
0.25,Stim\\02_075.jpg,Al75_8,Alegría,8,Estefanía despierta a las 7 a.m.,Afirmación,Al75,75,,,,,,,,,0,90,90,90,,,,,,,2,0.300302243419,,,2018_may._02_1419,60.0528733291,Experimento Piloto1,001,102,
2.5,Stim\\02_019.jpg,Al19_6,Alegría,6,Eduardo camina hacia la biblioteca.,Afirmación,Al19,19,,,,,,,,,0,91,91,91,,,,,,,3,0.650383393524,,,2018_may._02_1419,60.0528733291,Experimento Piloto1,001,102,
2.5,Stim\\03_078.jpg,Tr78_7,Tristeza,7,Roberto contesta los cuestionarios solicitados.,Afirmación,Tr78,78,,,,,,,,,0,92,92,92,,,,,,,4,0.383817013542,,,2018_may._02_1419,60.0528733291,Experimento Piloto1,001,102,
2.5,Stim\\02_028.jpg,Al28_8,Alegría,8,Estefanía despierta a las 7 a.m.,Afirmación,Al28,28,,,,,,,,,0,93,93,93,,,,,,,3,0.300231736317,,,2018_may._02_1419,60.0528733291,Experimento Piloto1,001,102,
0.25,Stim\\03_075.jpg,Tr75_13,Tristeza,13,Rocío consume alimentos nutritivos.,Afirmación,Tr75,75,,,,,,,,,0,94,94,94,,,,,,,4,1.36658338201,,,2018_may._02_1419,60.0528733291,Experimento Piloto1,001,102,
2.5,Stim\\02_075.jpg,Al75_6,Alegría,6,Eduardo camina hacia la biblioteca.,Afirmación,Al75,75,,,,,,,,,0,95,95,95,,,,,,,2,1.41683664977,,,2018_may._02_1419,60.0528733291,Experimento Piloto1,001,102,
0.25,Stim\\02_028.jpg,Al28_9,Alegría,9,Marco colabora en la organización del evento.,Afirmación,Al28,28,,,,,,,,,0,96,96,96,,,,,,,3,0.650314671413,,,2018_may._02_1419,60.0528733291,Experimento Piloto1,001,102,
0.25,Stim\\02_019.jpg,Al19_8,Alegría,8,Estefanía despierta a las 7 a.m.,Afirmación,Al19,19,,,,,,,,,0,97,97,97,,,,,,,3,0.233813599749,,,2018_may._02_1419,60.0528733291,Experimento Piloto1,001,102,
2.5,Stim\\02_019.jpg,Al19_1,Alegría,1,Juan colecciona monedas antiguas.,Afirmación,Al19,19,,,,,,,,,0,98,98,98,,,,,,,3,0.48374922855,,,2018_may._02_1419,60.0528733291,Experimento Piloto1,001,102,
0.25,Stim\\02_019.jpg,Al19_5,Alegría,5,Emilio revisa el formato del archivo.,Afirmación,Al19,19,,,,,,,,,0,99,99,99,,,,,,,3,0.350287762689,,,2018_may._02_1419,60.0528733291,Experimento Piloto1,001,102,
2.5,Stim\\02_078.jpg,Al78_13,Alegría,13,Rocío consume alimentos nutritivos.,Afirmación,Al78,78,,,,,,,,,0,100,100,100,,,,,,,3,0.249964188639,,,2018_may._02_1419,60.0528733291,Experimento Piloto1,001,102,
2.5,Stim\\05_078.jpg,En78_12,Enojo,12,Ana compra el libro.,Afirmación,En78,78,,,,,,,,,0,101,101,101,,,,,,,4,0.500010933063,,,2018_may._02_1419,60.0528733291,Experimento Piloto1,001,102,
2.5,Stim\\03_075.jpg,Tr75_11,Tristeza,11,María asiste a la cena.,Afirmación,Tr75,75,,,,,,,,,0,102,102,102,,,,,,,4,0.233750678854,,,2018_may._02_1419,60.0528733291,Experimento Piloto1,001,102,
0.25,Stim\\02_078.jpg,Al78_13,Alegría,13,Rocío consume alimentos nutritivos.,Afirmación,Al78,78,,,,,,,,,0,103,103,103,,,,,,,3,0.55024501218,,,2018_may._02_1419,60.0528733291,Experimento Piloto1,001,102,
0.25,Stim\\03_075.jpg,Tr75_11,Tristeza,11,María asiste a la cena.,Afirmación,Tr75,75,,,,,,,,,0,104,104,104,,,,,,,4,0.550339170399,,,2018_may._02_1419,60.0528733291,Experimento Piloto1,001,102,
2.5,Stim\\05_075.jpg,En75_8,Enojo,8,Estefanía despierta a las 7 a.m.,Afirmación,En75,75,,,,,,,,,0,105,105,105,,,,,,,2,0.233824755936,,,2018_may._02_1419,60.0528733291,Experimento Piloto1,001,102,
2.5,Stim\\03_078.jpg,Tr78_2,Tristeza,2,Jonathan pasea al perro.,Afirmación,Tr78,78,,,,,,,,,0,106,106,106,,,,,,,4,0.550289636927,,,2018_may._02_1419,60.0528733291,Experimento Piloto1,001,102,
2.5,Stim\\03_078.jpg,Tr78_12,Tristeza,12,Ana compra el libro.,Afirmación,Tr78,78,,,,,,,,,0,107,107,107,,,,,,,4,0.433780666684,,,2018_may._02_1419,60.0528733291,Experimento Piloto1,001,102,
2.5,Stim\\05_019.jpg,En19_10,Enojo,10,Laura finaliza la obra.,Afirmación,En19,19,,,,,,,,,0,108,108,108,,,,,,,2,0.600549598399,,,2018_may._02_1419,60.0528733291,Experimento Piloto1,001,102,
2.5,Stim\\05_078.jpg,En78_15,Enojo,15,Ángel envía una carta a la abuela.,Afirmación,En78,78,,,,,,,,,0,109,109,109,,,,,,,2,0.250345730237,,,2018_may._02_1419,60.0528733291,Experimento Piloto1,001,102,
0.25,Stim\\02_028.jpg,Al28_15,Alegría,15,Ángel envía una carta a la abuela.,Afirmación,Al28,28,,,,,,,,,0,110,110,110,,,,,,,3,0.183751325912,,,2018_may._02_1419,60.0528733291,Experimento Piloto1,001,102,
2.5,Stim\\02_075.jpg,Al75_13,Alegría,13,Rocío consume alimentos nutritivos.,Afirmación,Al75,75,,,,,,,,,0,111,111,111,,,,,,,2,0.283760741733,,,2018_may._02_1419,60.0528733291,Experimento Piloto1,001,102,
2.5,Stim\\02_078.jpg,Al78_5,Alegría,5,Emilio revisa el formato del archivo.,Afirmación,Al78,78,,,,,,,,,0,112,112,112,,,,,,,3,0.250323417864,,,2018_may._02_1419,60.0528733291,Experimento Piloto1,001,102,
2.5,Stim\\05_019.jpg,En19_12,Enojo,12,Ana compra el libro.,Afirmación,En19,19,,,,,,,,,0,113,113,113,,,,,,,2,0.250377860055,,,2018_may._02_1419,60.0528733291,Experimento Piloto1,001,102,
2.5,Stim\\03_028.jpg,Tr28_13,Tristeza,13,Rocío consume alimentos nutritivos.,Afirmación,Tr28,28,,,,,,,,,0,114,114,114,,,,,,,4,0.333890398941,,,2018_may._02_1419,60.0528733291,Experimento Piloto1,001,102,
2.5,Stim\\02_075.jpg,Al75_1,Alegría,1,Juan colecciona monedas antiguas.,Afirmación,Al75,75,,,,,,,,,0,115,115,115,,,,,,,2,0.500417910767,,,2018_may._02_1419,60.0528733291,Experimento Piloto1,001,102,
2.5,Stim\\02_028.jpg,Al28_3,Alegría,3,Andrea diseña la portada del libro.,Afirmación,Al28,28,,,,,,,,,0,116,116,116,,,,,,,3,0.233893924295,,,2018_may._02_1419,60.0528733291,Experimento Piloto1,001,102,
0.25,Stim\\05_028.jpg,En28_10,Enojo,10,Laura finaliza la obra.,Afirmación,En28,28,,,,,,,,,0,117,117,117,,,,,,,4,0.30035713186,,,2018_may._02_1419,60.0528733291,Experimento Piloto1,001,102,
0.25,Stim\\02_078.jpg,Al78_3,Alegría,3,Andrea diseña la portada del libro.,Afirmación,Al78,78,,,,,,,,,0,118,118,118,,,,,,,2,1.11668300676,,,2018_may._02_1419,60.0528733291,Experimento Piloto1,001,102,
2.5,Stim\\03_075.jpg,Tr75_15,Tristeza,15,Ángel envía una carta a la abuela.,Afirmación,Tr75,75,,,,,,,,,0,119,119,119,,,,,,,4,0.600430896569,,,2018_may._02_1419,60.0528733291,Experimento Piloto1,001,102,
0.25,Stim\\03_028.jpg,Tr28_2,Tristeza,2,Jonathan pasea al perro.,Afirmación,Tr28,28,,,,,,,,,,,,,0,0,0,0,,,,,4,1.21672901488,2018_may._02_1419,60.0528733291,Experimento Piloto1,001,102,
2.5,Stim\\05_075.jpg,En75_12,Enojo,12,Ana compra el libro.,Afirmación,En75,75,,,,,,,,,,,,,0,1,1,1,,,,,2,0.300385691698,2018_may._02_1419,60.0528733291,Experimento Piloto1,001,102,
0.25,Stim\\02_078.jpg,Al78_11,Alegría,11,María asiste a la cena.,Afirmación,Al78,78,,,,,,,,,,,,,0,2,2,2,,,,,3,0.300552588256,2018_may._02_1419,60.0528733291,Experimento Piloto1,001,102,
0.25,Stim\\02_078.jpg,Al78_8,Alegría,8,Estefanía despierta a las 7 a.m.,Afirmación,Al78,78,,,,,,,,,,,,,0,3,3,3,,,,,3,0.350036971604,2018_may._02_1419,60.0528733291,Experimento Piloto1,001,102,
0.25,Stim\\05_028.jpg,En28_6,Enojo,6,Eduardo camina hacia la biblioteca.,Afirmación,En28,28,,,,,,,,,,,,,0,4,4,4,,,,,2,0.766481816085,2018_may._02_1419,60.0528733291,Experimento Piloto1,001,102,
0.25,Stim\\02_019.jpg,Al19_14,Alegría,14,Elizabeth elige la ropa un día antes.,Afirmación,Al19,19,,,,,,,,,,,,,0,5,5,5,,,,,3,0.300438348902,2018_may._02_1419,60.0528733291,Experimento Piloto1,001,102,
2.5,Stim\\05_078.jpg,En78_1,Enojo,1,Juan colecciona monedas antiguas.,Afirmación,En78,78,,,,,,,,,,,,,0,6,6,6,,,,,2,0.283762526726,2018_may._02_1419,60.0528733291,Experimento Piloto1,001,102,
2.5,Stim\\02_078.jpg,Al78_15,Alegría,15,Ángel envía una carta a la abuela.,Afirmación,Al78,78,,,,,,,,,,,,,0,7,7,7,,,,,3,0.650777876299,2018_may._02_1419,60.0528733291,Experimento Piloto1,001,102,
0.25,Stim\\02_075.jpg,Al75_14,Alegría,14,Elizabeth elige la ropa un día antes.,Afirmación,Al75,75,,,,,,,,,,,,,0,8,8,8,,,,,2,0.300562851951,2018_may._02_1419,60.0528733291,Experimento Piloto1,001,102,
2.5,Stim\\02_075.jpg,Al75_2,Alegría,2,Jonathan pasea al perro.,Afirmación,Al75,75,,,,,,,,,,,,,0,9,9,9,,,,,2,0.533840508473,2018_may._02_1419,60.0528733291,Experimento Piloto1,001,102,
0.25,Stim\\05_075.jpg,En75_12,Enojo,12,Ana compra el libro.,Afirmación,En75,75,,,,,,,,,,,,,0,10,10,10,,,,,4,0.300353115634,2018_may._02_1419,60.0528733291,Experimento Piloto1,001,102,
2.5,Stim\\03_078.jpg,Tr78_8,Tristeza,8,Estefanía despierta a las 7 a.m.,Afirmación,Tr78,78,,,,,,,,,,,,,0,11,11,11,,,,,4,0.300338835712,2018_may._02_1419,60.0528733291,Experimento Piloto1,001,102,
0.25,Stim\\03_078.jpg,Tr78_15,Tristeza,15,Ángel envía una carta a la abuela.,Afirmación,Tr78,78,,,,,,,,,,,,,0,12,12,12,,,,,4,0.54995986004,2018_may._02_1419,60.0528733291,Experimento Piloto1,001,102,
0.25,Stim\\03_078.jpg,Tr78_5,Tristeza,5,Emilio revisa el formato del archivo.,Afirmación,Tr78,78,,,,,,,,,,,,,0,13,13,13,,,,,4,0.700249764715,2018_may._02_1419,60.0528733291,Experimento Piloto1,001,102,
2.5,Stim\\02_019.jpg,Al19_5,Alegría,5,Emilio revisa el formato del archivo.,Afirmación,Al19,19,,,,,,,,,,,,,0,14,14,14,,,,,3,0.283737983113,2018_may._02_1419,60.0528733291,Experimento Piloto1,001,102,
2.5,Stim\\03_075.jpg,Tr75_10,Tristeza,10,Laura finaliza la obra.,Afirmación,Tr75,75,,,,,,,,,,,,,0,15,15,15,,,,,4,0.50029340772,2018_may._02_1419,60.0528733291,Experimento Piloto1,001,102,
2.5,Stim\\03_075.jpg,Tr75_4,Tristeza,4,Jorge sustituye a Gustavo cada sábado.,Afirmación,Tr75,75,,,,,,,,,,,,,0,16,16,16,,,,,4,0.766550984445,2018_may._02_1419,60.0528733291,Experimento Piloto1,001,102,
0.25,Stim\\03_028.jpg,Tr28_5,Tristeza,5,Emilio revisa el formato del archivo.,Afirmación,Tr28,28,,,,,,,,,,,,,0,17,17,17,,,,,4,0.500267079118,2018_may._02_1419,60.0528733291,Experimento Piloto1,001,102,
0.25,Stim\\05_075.jpg,En75_11,Enojo,11,María asiste a la cena.,Afirmación,En75,75,,,,,,,,,,,,,0,18,18,18,,,,,2,0.283759849241,2018_may._02_1419,60.0528733291,Experimento Piloto1,001,102,
0.25,Stim\\02_075.jpg,Al75_6,Alegría,6,Eduardo camina hacia la biblioteca.,Afirmación,Al75,75,,,,,,,,,,,,,0,19,19,19,,,,,2,1.26672479784,2018_may._02_1419,60.0528733291,Experimento Piloto1,001,102,
0.25,Stim\\05_078.jpg,En78_1,Enojo,1,Juan colecciona monedas antiguas.,Afirmación,En78,78,,,,,,,,,,,,,0,20,20,20,,,,,2,0.300344190682,2018_may._02_1419,60.0528733291,Experimento Piloto1,001,102,
2.5,Stim\\03_019.jpg,Tr19_4,Tristeza,4,Jorge sustituye a Gustavo cada sábado.,Afirmación,Tr19,19,,,,,,,,,,,,,0,21,21,21,,,,,3,0.300432993932,2018_may._02_1419,60.0528733291,Experimento Piloto1,001,102,
0.25,Stim\\03_028.jpg,Tr28_11,Tristeza,11,María asiste a la cena.,Afirmación,Tr28,28,,,,,,,,,,,,,0,22,22,22,,,,,4,0.633667409074,2018_may._02_1419,60.0528733291,Experimento Piloto1,001,102,
0.25,Stim\\02_019.jpg,Al19_7,Alegría,7,Roberto contesta los cuestionarios solicitados.,Afirmación,Al19,19,,,,,,,,,,,,,0,23,23,23,,,,,3,0.300288409748,2018_may._02_1419,60.0528733291,Experimento Piloto1,001,102,
0.25,Stim\\05_028.jpg,En28_1,Enojo,1,Juan colecciona monedas antiguas.,Afirmación,En28,28,,,,,,,,,,,,,0,24,24,24,,,,,2,0.300064839759,2018_may._02_1419,60.0528733291,Experimento Piloto1,001,102,
0.25,Stim\\03_019.jpg,Tr19_6,Tristeza,6,Eduardo camina hacia la biblioteca.,Afirmación,Tr19,19,,,,,,,,,,,,,0,25,25,25,,,,,2,0.550131665319,2018_may._02_1419,60.0528733291,Experimento Piloto1,001,102,
0.25,Stim\\03_078.jpg,Tr78_7,Tristeza,7,Roberto contesta los cuestionarios solicitados.,Afirmación,Tr78,78,,,,,,,,,,,,,0,26,26,26,,,,,4,0.500317505084,2018_may._02_1419,60.0528733291,Experimento Piloto1,001,102,
2.5,Stim\\03_019.jpg,Tr19_15,Tristeza,15,Ángel envía una carta a la abuela.,Afirmación,Tr19,19,,,,,,,,,,,,,0,27,27,27,,,,,2,0.700317594334,2018_may._02_1419,60.0528733291,Experimento Piloto1,001,102,
2.5,Stim\\02_028.jpg,Al28_4,Alegría,4,Jorge sustituye a Gustavo cada sábado.,Afirmación,Al28,28,,,,,,,,,,,,,0,28,28,28,,,,,3,0.150393880342,2018_may._02_1419,60.0528733291,Experimento Piloto1,001,102,
2.5,Stim\\03_078.jpg,Tr78_5,Tristeza,5,Emilio revisa el formato del archivo.,Afirmación,Tr78,78,,,,,,,,,,,,,0,29,29,29,,,,,4,0.400373687642,2018_may._02_1419,60.0528733291,Experimento Piloto1,001,102,
2.5,Stim\\03_028.jpg,Tr28_12,Tristeza,12,Ana compra el libro.,Afirmación,Tr28,28,,,,,,,,,,,,,0,30,30,30,,,,,4,0.950276428004,2018_may._02_1419,60.0528733291,Experimento Piloto1,001,102,
0.25,Stim\\02_028.jpg,Al28_2,Alegría,2,Jonathan pasea al perro.,Afirmación,Al28,28,,,,,,,,,,,,,0,31,31,31,,,,,3,0.283880782306,2018_may._02_1419,60.0528733291,Experimento Piloto1,001,102,
0.25,Stim\\05_019.jpg,En19_8,Enojo,8,Estefanía despierta a las 7 a.m.,Afirmación,En19,19,,,,,,,,,,,,,0,32,32,32,,,,,2,0.650170087227,2018_may._02_1419,60.0528733291,Experimento Piloto1,001,102,
0.25,Stim\\03_019.jpg,Tr19_9,Tristeza,9,Marco colabora en la organización del evento.,Afirmación,Tr19,19,,,,,,,,,,,,,0,33,33,33,,,,,2,0.800558612598,2018_may._02_1419,60.0528733291,Experimento Piloto1,001,102,
2.5,Stim\\02_078.jpg,Al78_10,Alegría,10,Laura finaliza la obra.,Afirmación,Al78,78,,,,,,,,,,,,,0,34,34,34,,,,,3,0.300276807313,2018_may._02_1419,60.0528733291,Experimento Piloto1,001,102,
2.5,Stim\\02_075.jpg,Al75_15,Alegría,15,Ángel envía una carta a la abuela.,Afirmación,Al75,75,,,,,,,,,,,,,0,35,35,35,,,,,2,0.650308423947,2018_may._02_1419,60.0528733291,Experimento Piloto1,001,102,
2.5,Stim\\03_028.jpg,Tr28_6,Tristeza,6,Eduardo camina hacia la biblioteca.,Afirmación,Tr28,28,,,,,,,,,,,,,0,36,36,36,,,,,4,1.26677165383,2018_may._02_1419,60.0528733291,Experimento Piloto1,001,102,
0.25,Stim\\03_075.jpg,Tr75_14,Tristeza,14,Elizabeth elige la ropa un día antes.,Afirmación,Tr75,75,,,,,,,,,,,,,0,37,37,37,,,,,2,0.750243762688,2018_may._02_1419,60.0528733291,Experimento Piloto1,001,102,
2.5,Stim\\05_075.jpg,En75_13,Enojo,13,Rocío consume alimentos nutritivos.,Afirmación,En75,75,,,,,,,,,,,,,0,38,38,38,,,,,2,0.650309316443,2018_may._02_1419,60.0528733291,Experimento Piloto1,001,102,
2.5,Stim\\03_075.jpg,Tr75_8,Tristeza,8,Estefanía despierta a las 7 a.m.,Afirmación,Tr75,75,,,,,,,,,,,,,0,39,39,39,,,,,4,1.26670159297,2018_may._02_1419,60.0528733291,Experimento Piloto1,001,102,
0.25,Stim\\05_075.jpg,En75_7,Enojo,7,Roberto contesta los cuestionarios solicitados.,Afirmación,En75,75,,,,,,,,,,,,,0,40,40,40,,,,,2,1.10015355376,2018_may._02_1419,60.0528733291,Experimento Piloto1,001,102,
2.5,Stim\\03_019.jpg,Tr19_10,Tristeza,10,Laura finaliza la obra.,Afirmación,Tr19,19,,,,,,,,,,,,,0,41,41,41,,,,,2,1.31672191954,2018_may._02_1419,60.0528733291,Experimento Piloto1,001,102,
2.5,Stim\\03_019.jpg,Tr19_2,Tristeza,2,Jonathan pasea al perro.,Afirmación,Tr19,19,,,,,,,,,,,,,0,42,42,42,,,,,2,0.483736287373,2018_may._02_1419,60.0528733291,Experimento Piloto1,001,102,
0.25,Stim\\03_075.jpg,Tr75_15,Tristeza,15,Ángel envía una carta a la abuela.,Afirmación,Tr75,75,,,,,,,,,,,,,0,43,43,43,,,,,4,0.650401689672,2018_may._02_1419,60.0528733291,Experimento Piloto1,001,102,
0.25,Stim\\05_019.jpg,En19_1,Enojo,1,Juan colecciona monedas antiguas.,Afirmación,En19,19,,,,,,,,,,,,,0,44,44,44,,,,,2,1.116730309,2018_may._02_1419,60.0528733291,Experimento Piloto1,001,102,
0.25,Stim\\03_078.jpg,Tr78_2,Tristeza,2,Jonathan pasea al perro.,Afirmación,Tr78,78,,,,,,,,,,,,,0,45,45,45,,,,,4,0.500400953362,2018_may._02_1419,60.0528733291,Experimento Piloto1,001,102,
2.5,Stim\\02_019.jpg,Al19_9,Alegría,9,Marco colabora en la organización del evento.,Afirmación,Al19,19,,,,,,,,,,,,,0,46,46,46,,,,,3,0.900218616642,2018_may._02_1419,60.0528733291,Experimento Piloto1,001,102,
2.5,Stim\\03_028.jpg,Tr28_11,Tristeza,11,María asiste a la cena.,Afirmación,Tr28,28,,,,,,,,,,,,,0,47,47,47,,,,,4,0.549930853953,2018_may._02_1419,60.0528733291,Experimento Piloto1,001,102,
2.5,Stim\\05_078.jpg,En78_6,Enojo,6,Eduardo camina hacia la biblioteca.,Afirmación,En78,78,,,,,,,,,,,,,0,48,48,48,,,,,2,0.383710806642,2018_may._02_1419,60.0528733291,Experimento Piloto1,001,102,
2.5,Stim\\02_028.jpg,Al28_14,Alegría,14,Elizabeth elige la ropa un día antes.,Afirmación,Al28,28,,,,,,,,,,,,,0,49,49,49,,,,,3,0.233756480071,2018_may._02_1419,60.0528733291,Experimento Piloto1,001,102,
0.25,Stim\\03_019.jpg,Tr19_10,Tristeza,10,Laura finaliza la obra.,Afirmación,Tr19,19,,,,,,,,,,,,,0,50,50,50,,,,,2,0.700316255592,2018_may._02_1419,60.0528733291,Experimento Piloto1,001,102,
2.5,Stim\\05_019.jpg,En19_2,Enojo,2,Jonathan pasea al perro.,Afirmación,En19,19,,,,,,,,,,,,,0,51,51,51,,,,,2,0.350362286017,2018_may._02_1419,60.0528733291,Experimento Piloto1,001,102,
0.25,Stim\\05_078.jpg,En78_5,Enojo,5,Emilio revisa el formato del archivo.,Afirmación,En78,78,,,,,,,,,,,,,0,52,52,52,,,,,2,0.233798873582,2018_may._02_1419,60.0528733291,Experimento Piloto1,001,102,
2.5,Stim\\02_075.jpg,Al75_5,Alegría,5,Emilio revisa el formato del archivo.,Afirmación,Al75,75,,,,,,,,,,,,,0,53,53,53,,,,,2,0.333664151467,2018_may._02_1419,60.0528733291,Experimento Piloto1,001,102,
0.25,Stim\\05_028.jpg,En28_9,Enojo,9,Marco colabora en la organización del evento.,Afirmación,En28,28,,,,,,,,,,,,,0,54,54,54,,,,,2,0.300287071006,2018_may._02_1419,60.0528733291,Experimento Piloto1,001,102,
2.5,Stim\\03_019.jpg,Tr19_1,Tristeza,1,Juan colecciona monedas antiguas.,Afirmación,Tr19,19,,,,,,,,,,,,,0,55,55,55,,,,,2,0.483788944575,2018_may._02_1419,60.0528733291,Experimento Piloto1,001,102,
0.25,Stim\\02_028.jpg,Al28_3,Alegría,3,Andrea diseña la portada del libro.,Afirmación,Al28,28,,,,,,,,,,,,,0,56,56,56,,,,,3,0.550275357009,2018_may._02_1419,60.0528733291,Experimento Piloto1,001,102,
0.25,Stim\\05_028.jpg,En28_5,Enojo,5,Emilio revisa el formato del archivo.,Afirmación,En28,28,,,,,,,,,,,,,0,57,57,57,,,,,2,0.250054330631,2018_may._02_1419,60.0528733291,Experimento Piloto1,001,102,
2.5,Stim\\03_078.jpg,Tr78_15,Tristeza,15,Ángel envía una carta a la abuela.,Afirmación,Tr78,78,,,,,,,,,,,,,0,58,58,58,,,,,4,0.600300592303,2018_may._02_1419,60.0528733291,Experimento Piloto1,001,102,
0.25,Stim\\02_078.jpg,Al78_10,Alegría,10,Laura finaliza la obra.,Afirmación,Al78,78,,,,,,,,,,,,,0,59,59,59,,,,,3,0.233742200151,2018_may._02_1419,60.0528733291,Experimento Piloto1,001,102,
0.25,Stim\\03_075.jpg,Tr75_7,Tristeza,7,Roberto contesta los cuestionarios solicitados.,Afirmación,Tr75,75,,,,,,,,,,,,,0,60,60,60,,,,,4,0.250191328609,2018_may._02_1419,60.0528733291,Experimento Piloto1,001,102,
0.25,Stim\\03_075.jpg,Tr75_5,Tristeza,5,Emilio revisa el formato del archivo.,Afirmación,Tr75,75,,,,,,,,,,,,,0,61,61,61,,,,,4,0.283944595698,2018_may._02_1419,60.0528733291,Experimento Piloto1,001,102,
0.25,Stim\\05_075.jpg,En75_14,Enojo,14,Elizabeth elige la ropa un día antes.,Afirmación,En75,75,,,,,,,,,,,,,0,62,62,62,,,,,2,0.450340018269,2018_may._02_1419,60.0528733291,Experimento Piloto1,001,102,
0.25,Stim\\05_075.jpg,En75_2,Enojo,2,Jonathan pasea al perro.,Afirmación,En75,75,,,,,,,,,,,,,0,63,63,63,,,,,2,0.24993919878,2018_may._02_1419,60.0528733291,Experimento Piloto1,001,102,
0.25,Stim\\02_078.jpg,Al78_6,Alegría,6,Eduardo camina hacia la biblioteca.,Afirmación,Al78,78,,,,,,,,,,,,,0,64,64,64,,,,,3,0.200339683583,2018_may._02_1419,60.0528733291,Experimento Piloto1,001,102,
0.25,Stim\\03_075.jpg,Tr75_4,Tristeza,4,Jorge sustituye a Gustavo cada sábado.,Afirmación,Tr75,75,,,,,,,,,,,,,0,65,65,65,,,,,4,1.06674434348,2018_may._02_1419,60.0528733291,Experimento Piloto1,001,102,
0.25,Stim\\03_075.jpg,Tr75_3,Tristeza,3,Andrea diseña la portada del libro.,Afirmación,Tr75,75,,,,,,,,,,,,,0,66,66,66,,,,,4,0.25040909738,2018_may._02_1419,60.0528733291,Experimento Piloto1,001,102,
0.25,Stim\\02_028.jpg,Al28_10,Alegría,10,Laura finaliza la obra.,Afirmación,Al28,28,,,,,,,,,,,,,0,67,67,67,,,,,3,0.183703577432,2018_may._02_1419,60.0528733291,Experimento Piloto1,001,102,
0.25,Stim\\03_028.jpg,Tr28_12,Tristeza,12,Ana compra el libro.,Afirmación,Tr28,28,,,,,,,,,,,,,0,68,68,68,,,,,4,0.550163795138,2018_may._02_1419,60.0528733291,Experimento Piloto1,001,102,
0.25,Stim\\03_075.jpg,Tr75_10,Tristeza,10,Laura finaliza la obra.,Afirmación,Tr75,75,,,,,,,,,,,,,0,69,69,69,,,,,4,0.250351531455,2018_may._02_1419,60.0528733291,Experimento Piloto1,001,102,
0.25,Stim\\02_028.jpg,Al28_8,Alegría,8,Estefanía despierta a las 7 a.m.,Afirmación,Al28,28,,,,,,,,,,,,,0,70,70,70,,,,,3,0.183697329967,2018_may._02_1419,60.0528733291,Experimento Piloto1,001,102,
0.25,Stim\\05_078.jpg,En78_14,Enojo,14,Elizabeth elige la ropa un día antes.,Afirmación,En78,78,,,,,,,,,,,,,0,71,71,71,,,,,2,0.433647238688,2018_may._02_1419,60.0528733291,Experimento Piloto1,001,102,
2.5,Stim\\03_078.jpg,Tr78_9,Tristeza,9,Marco colabora en la organización del evento.,Afirmación,Tr78,78,,,,,,,,,,,,,0,72,72,72,,,,,4,0.283716563234,2018_may._02_1419,60.0528733291,Experimento Piloto1,001,102,
0.25,Stim\\02_019.jpg,Al19_3,Alegría,3,Andrea diseña la portada del libro.,Afirmación,Al19,19,,,,,,,,,,,,,0,73,73,73,,,,,3,0.233779238693,2018_may._02_1419,60.0528733291,Experimento Piloto1,001,102,
0.25,Stim\\03_078.jpg,Tr78_6,Tristeza,6,Eduardo camina hacia la biblioteca.,Afirmación,Tr78,78,,,,,,,,,,,,,0,74,74,74,,,,,4,0.350399324559,2018_may._02_1419,60.0528733291,Experimento Piloto1,001,102,
0.25,Stim\\03_028.jpg,Tr28_8,Tristeza,8,Estefanía despierta a las 7 a.m.,Afirmación,Tr28,28,,,,,,,,,,,,,0,75,75,75,,,,,4,0.283705407046,2018_may._02_1419,60.0528733291,Experimento Piloto1,001,102,
2.5,Stim\\05_078.jpg,En78_9,Enojo,9,Marco colabora en la organización del evento.,Afirmación,En78,78,,,,,,,,,,,,,0,76,76,76,,,,,2,0.28384999123,2018_may._02_1419,60.0528733291,Experimento Piloto1,001,102,
2.5,Stim\\02_028.jpg,Al28_6,Alegría,6,Eduardo camina hacia la biblioteca.,Afirmación,Al28,28,,,,,,,,,,,,,0,77,77,77,,,,,3,0.233884553099,2018_may._02_1419,60.0528733291,Experimento Piloto1,001,102,
2.5,Stim\\03_078.jpg,Tr78_6,Tristeza,6,Eduardo camina hacia la biblioteca.,Afirmación,Tr78,78,,,,,,,,,,,,,0,78,78,78,,,,,4,0.250401957421,2018_may._02_1419,60.0528733291,Experimento Piloto1,001,102,
2.5,Stim\\02_078.jpg,Al78_2,Alegría,2,Jonathan pasea al perro.,Afirmación,Al78,78,,,,,,,,,,,,,0,79,79,79,,,,,3,0.600072559841,2018_may._02_1419,60.0528733291,Experimento Piloto1,001,102,
2.5,Stim\\02_028.jpg,Al28_10,Alegría,10,Laura finaliza la obra.,Afirmación,Al28,28,,,,,,,,,,,,,0,80,80,80,,,,,3,0.300242446257,2018_may._02_1419,60.0528733291,Experimento Piloto1,001,102,
2.5,Stim\\02_019.jpg,Al19_15,Alegría,15,Ángel envía una carta a la abuela.,Afirmación,Al19,19,,,,,,,,,,,,,0,81,81,81,,,,,3,0.81677613861,2018_may._02_1419,60.0528733291,Experimento Piloto1,001,102,
0.25,Stim\\03_019.jpg,Tr19_5,Tristeza,5,Emilio revisa el formato del archivo.,Afirmación,Tr19,19,,,,,,,,,,,,,0,82,82,82,,,,,3,0.750328995957,2018_may._02_1419,60.0528733291,Experimento Piloto1,001,102,
0.25,Stim\\02_075.jpg,Al75_12,Alegría,12,Ana compra el libro.,Afirmación,Al75,75,,,,,,,,,,,,,0,83,83,83,,,,,2,0.28381295269,2018_may._02_1419,60.0528733291,Experimento Piloto1,001,102,
2.5,Stim\\05_078.jpg,En78_3,Enojo,3,Andrea diseña la portada del libro.,Afirmación,En78,78,,,,,,,,,,,,,0,84,84,84,,,,,2,0.233739968913,2018_may._02_1419,60.0528733291,Experimento Piloto1,001,102,
2.5,Stim\\03_075.jpg,Tr75_5,Tristeza,5,Emilio revisa el formato del archivo.,Afirmación,Tr75,75,,,,,,,,,,,,,0,85,85,85,,,,,4,0.650256659241,2018_may._02_1419,60.0528733291,Experimento Piloto1,001,102,
2.5,Stim\\05_028.jpg,En28_2,Enojo,2,Jonathan pasea al perro.,Afirmación,En28,28,,,,,,,,,,,,,0,86,86,86,,,,,2,0.2336627681,2018_may._02_1419,60.0528733291,Experimento Piloto1,001,102,
0.25,Stim\\03_028.jpg,Tr28_9,Tristeza,9,Marco colabora en la organización del evento.,Afirmación,Tr28,28,,,,,,,,,,,,,0,87,87,87,,,,,4,0.25036313389,2018_may._02_1419,60.0528733291,Experimento Piloto1,001,102,
0.25,Stim\\03_078.jpg,Tr78_9,Tristeza,9,Marco colabora en la organización del evento.,Afirmación,Tr78,78,,,,,,,,,,,,,0,88,88,88,,,,,4,0.233923822878,2018_may._02_1419,60.0528733291,Experimento Piloto1,001,102,
2.5,Stim\\03_075.jpg,Tr75_12,Tristeza,12,Ana compra el libro.,Afirmación,Tr75,75,,,,,,,,,,,,,0,89,89,89,,,,,4,0.233922930382,2018_may._02_1419,60.0528733291,Experimento Piloto1,001,102,
2.5,Stim\\05_078.jpg,En78_11,Enojo,11,María asiste a la cena.,Afirmación,En78,78,,,,,,,,,,,,,0,90,90,90,,,,,4,0.533781157557,2018_may._02_1419,60.0528733291,Experimento Piloto1,001,102,
2.5,Stim\\02_075.jpg,Al75_14,Alegría,14,Elizabeth elige la ropa un día antes.,Afirmación,Al75,75,,,,,,,,,,,,,0,91,91,91,,,,,2,0.499946227179,2018_may._02_1419,60.0528733291,Experimento Piloto1,001,102,
0.25,Stim\\03_019.jpg,Tr19_7,Tristeza,7,Roberto contesta los cuestionarios solicitados.,Afirmación,Tr19,19,,,,,,,,,,,,,0,92,92,92,,,,,2,0.383754538894,2018_may._02_1419,60.0528733291,Experimento Piloto1,001,102,
0.25,Stim\\05_075.jpg,En75_5,Enojo,5,Emilio revisa el formato del archivo.,Afirmación,En75,75,,,,,,,,,,,,,0,93,93,93,,,,,2,0.300516442212,2018_may._02_1419,60.0528733291,Experimento Piloto1,001,102,
2.5,Stim\\05_019.jpg,En19_14,Enojo,14,Elizabeth elige la ropa un día antes.,Afirmación,En19,19,,,,,,,,,,,,,0,94,94,94,,,,,2,0.80036672618,2018_may._02_1419,60.0528733291,Experimento Piloto1,001,102,
0.25,Stim\\02_075.jpg,Al75_2,Alegría,2,Jonathan pasea al perro.,Afirmación,Al75,75,,,,,,,,,,,,,0,95,95,95,,,,,2,0.450302533482,2018_may._02_1419,60.0528733291,Experimento Piloto1,001,102,
2.5,Stim\\03_028.jpg,Tr28_10,Tristeza,10,Laura finaliza la obra.,Afirmación,Tr28,28,,,,,,,,,,,,,0,96,96,96,,,,,4,0.183816478046,2018_may._02_1419,60.0528733291,Experimento Piloto1,001,102,
2.5,Stim\\02_078.jpg,Al78_3,Alegría,3,Andrea diseña la portada del libro.,Afirmación,Al78,78,,,,,,,,,,,,,0,97,97,97,,,,,3,0.250359563908,2018_may._02_1419,60.0528733291,Experimento Piloto1,001,102,
2.5,Stim\\05_075.jpg,En75_3,Enojo,3,Andrea diseña la portada del libro.,Afirmación,En75,75,,,,,,,,,,,,,0,98,98,98,,,,,2,0.650433373243,2018_may._02_1419,60.0528733291,Experimento Piloto1,001,102,
2.5,Stim\\03_075.jpg,Tr75_3,Tristeza,3,Andrea diseña la portada del libro.,Afirmación,Tr75,75,,,,,,,,,,,,,0,99,99,99,,,,,4,0.350319892508,2018_may._02_1419,60.0528733291,Experimento Piloto1,001,102,
2.5,Stim\\03_075.jpg,Tr75_7,Tristeza,7,Roberto contesta los cuestionarios solicitados.,Afirmación,Tr75,75,,,,,,,,,,,,,0,100,100,100,,,,,4,1.26681717107,2018_may._02_1419,60.0528733291,Experimento Piloto1,001,102,
2.5,Stim\\03_019.jpg,Tr19_14,Tristeza,14,Elizabeth elige la ropa un día antes.,Afirmación,Tr19,19,,,,,,,,,,,,,0,101,101,101,,,,,2,0.499941318456,2018_may._02_1419,60.0528733291,Experimento Piloto1,001,102,
2.5,Stim\\05_078.jpg,En78_5,Enojo,5,Emilio revisa el formato del archivo.,Afirmación,En78,78,,,,,,,,,,,,,0,102,102,102,,,,,2,0.650218728204,2018_may._02_1419,60.0528733291,Experimento Piloto1,001,102,
2.5,Stim\\02_078.jpg,Al78_12,Alegría,12,Ana compra el libro.,Afirmación,Al78,78,,,,,,,,,,,,,0,103,103,103,,,,,3,0.233790394879,2018_may._02_1419,60.0528733291,Experimento Piloto1,001,102,
2.5,Stim\\02_028.jpg,Al28_13,Alegría,13,Rocío consume alimentos nutritivos.,Afirmación,Al28,28,,,,,,,,,,,,,0,104,104,104,,,,,3,0.283726826927,2018_may._02_1419,60.0528733291,Experimento Piloto1,001,102,
2.5,Stim\\05_028.jpg,En28_4,Enojo,4,Jorge sustituye a Gustavo cada sábado.,Afirmación,En28,28,,,,,,,,,,,,,0,105,105,105,,,,,2,0.533591502377,2018_may._02_1419,60.0528733291,Experimento Piloto1,001,102,
0.25,Stim\\02_028.jpg,Al28_7,Alegría,7,Roberto contesta los cuestionarios solicitados.,Afirmación,Al28,28,,,,,,,,,,,,,0,106,106,106,,,,,3,0.700333659242,2018_may._02_1419,60.0528733291,Experimento Piloto1,001,102,
0.25,Stim\\02_078.jpg,Al78_12,Alegría,12,Ana compra el libro.,Afirmación,Al78,78,,,,,,,,,,,,,0,107,107,107,,,,,3,0.200247756602,2018_may._02_1419,60.0528733291,Experimento Piloto1,001,102,
2.5,Stim\\02_028.jpg,Al28_7,Alegría,7,Roberto contesta los cuestionarios solicitados.,Afirmación,Al28,28,,,,,,,,,,,,,0,108,108,108,,,,,3,0.233676601772,2018_may._02_1419,60.0528733291,Experimento Piloto1,001,102,
0.25,Stim\\02_075.jpg,Al75_7,Alegría,7,Roberto contesta los cuestionarios solicitados.,Afirmación,Al75,75,,,,,,,,,,,,,0,109,109,109,,,,,2,0.200351286019,2018_may._02_1419,60.0528733291,Experimento Piloto1,001,102,
0.25,Stim\\05_075.jpg,En75_10,Enojo,10,Laura finaliza la obra.,Afirmación,En75,75,,,,,,,,,,,,,0,110,110,110,,,,,2,0.183900372571,2018_may._02_1419,60.0528733291,Experimento Piloto1,001,102,
2.5,Stim\\05_028.jpg,En28_8,Enojo,8,Estefanía despierta a las 7 a.m.,Afirmación,En28,28,,,,,,,,,,,,,0,111,111,111,,,,,2,0.250372058839,2018_may._02_1419,60.0528733291,Experimento Piloto1,001,102,
0.25,Stim\\03_075.jpg,Tr75_6,Tristeza,6,Eduardo camina hacia la biblioteca.,Afirmación,Tr75,75,,,,,,,,,,,,,0,112,112,112,,,,,4,0.30032901827,2018_may._02_1419,60.0528733291,Experimento Piloto1,001,102,
0.25,Stim\\02_078.jpg,Al78_4,Alegría,4,Jorge sustituye a Gustavo cada sábado.,Afirmación,Al78,78,,,,,,,,,,,,,0,113,113,113,,,,,3,0.233848407053,2018_may._02_1419,60.0528733291,Experimento Piloto1,001,102,
2.5,Stim\\02_019.jpg,Al19_13,Alegría,13,Rocío consume alimentos nutritivos.,Afirmación,Al19,19,,,,,,,,,,,,,0,114,114,114,,,,,3,0.650345462489,2018_may._02_1419,60.0528733291,Experimento Piloto1,001,102,
0.25,Stim\\02_078.jpg,Al78_15,Alegría,15,Ángel envía una carta a la abuela.,Afirmación,Al78,78,,,,,,,,,,,,,0,115,115,115,,,,,3,0.183887431394,2018_may._02_1419,60.0528733291,Experimento Piloto1,001,102,
2.5,Stim\\05_019.jpg,En19_4,Enojo,4,Jorge sustituye a Gustavo cada sábado.,Afirmación,En19,19,,,,,,,,,,,,,0,116,116,116,,,,,2,0.550211543619,2018_may._02_1419,60.0528733291,Experimento Piloto1,001,102,
2.5,Stim\\05_075.jpg,En75_9,Enojo,9,Marco colabora en la organización del evento.,Afirmación,En75,75,,,,,,,,,,,,,0,117,117,117,,,,,2,0.250367596364,2018_may._02_1419,60.0528733291,Experimento Piloto1,001,102,
0.25,Stim\\05_078.jpg,En78_8,Enojo,8,Estefanía despierta a las 7 a.m.,Afirmación,En78,78,,,,,,,,,,,,,0,118,118,118,,,,,2,0.20042357811,2018_may._02_1419,60.0528733291,Experimento Piloto1,001,102,
0.25,Stim\\03_075.jpg,Tr75_12,Tristeza,12,Ana compra el libro.,Afirmación,Tr75,75,,,,,,,,,,,,,0,119,119,119,,,,,4,0.233782362426,2018_may._02_1419,60.0528733291,Experimento Piloto1,001,102,
