Tiempo,ImagenesE,ClaveEn,Emocion,NumEn,Enunciado,ActoHabla,Clave,Cara,trials.thisRepN,trials.thisTrialN,trials.thisN,trials.thisIndex,Bloque3.thisRepN,Bloque3.thisTrialN,Bloque3.thisN,Bloque3.thisIndex,Bloque2.thisRepN,Bloque2.thisTrialN,Bloque2.thisN,Bloque2.thisIndex,Bloque1.thisRepN,Bloque1.thisTrialN,Bloque1.thisN,Bloque1.thisIndex,Resp_Bloque3.keys,Resp_Bloque3.rt,Resp_Bloque2.keys,Resp_Bloque2.rt,Resp_Bloque1.keys,Resp_Bloque1.rt,date,frameRate,expName,session,participant,
0.25,Stim\\02_075.jpg,Al75_11,Alegría,11,María asiste a la cena.,Afirmación,Al75,75,,,,,0,0,0,0,,,,,,,,,3,1.98321840219,,,,,2018_may._03_1018,59.9719797998,Experimento Piloto1,001,103,
2.5,Stim\\03_019.jpg,Tr19_9,Tristeza,9,Marco colabora en la organización del evento.,Afirmación,Tr19,19,,,,,0,1,1,1,,,,,,,,,3,7.31585201885,,,,,2018_may._03_1018,59.9719797998,Experimento Piloto1,001,103,
2.5,Stim\\02_075.jpg,Al75_8,Alegría,8,Estefanía despierta a las 7 a.m.,Afirmación,Al75,75,,,,,0,2,2,2,,,,,,,,,3,2.74982183553,,,,,2018_may._03_1018,59.9719797998,Experimento Piloto1,001,103,
2.5,Stim\\03_075.jpg,Tr75_13,Tristeza,13,Rocío consume alimentos nutritivos.,Afirmación,Tr75,75,,,,,0,3,3,3,,,,,,,,,4,3.3660339318,,,,,2018_may._03_1018,59.9719797998,Experimento Piloto1,001,103,
0.25,Stim\\03_019.jpg,Tr19_15,Tristeza,15,Ángel envía una carta a la abuela.,Afirmación,Tr19,19,,,,,0,4,4,4,,,,,,,,,4,1.98373069476,,,,,2018_may._03_1018,59.9719797998,Experimento Piloto1,001,103,
2.5,Stim\\05_075.jpg,En75_11,Enojo,11,María asiste a la cena.,Afirmación,En75,75,,,,,0,5,5,5,,,,,,,,,2,0.916715419248,,,,,2018_may._03_1018,59.9719797998,Experimento Piloto1,001,103,
0.25,Stim\\05_028.jpg,En28_4,Enojo,4,Jorge sustituye a Gustavo cada sábado.,Afirmación,En28,28,,,,,0,6,6,6,,,,,,,,,2,1.30015971212,,,,,2018_may._03_1018,59.9719797998,Experimento Piloto1,001,103,
2.5,Stim\\05_028.jpg,En28_9,Enojo,9,Marco colabora en la organización del evento.,Afirmación,En28,28,,,,,0,7,7,7,,,,,,,,,2,1.01717741968,,,,,2018_may._03_1018,59.9719797998,Experimento Piloto1,001,103,
2.5,Stim\\03_075.jpg,Tr75_9,Tristeza,9,Marco colabora en la organización del evento.,Afirmación,Tr75,75,,,,,0,8,8,8,,,,,,,,,4,1.06715004237,,,,,2018_may._03_1018,59.9719797998,Experimento Piloto1,001,103,
2.5,Stim\\05_028.jpg,En28_15,Enojo,15,Ángel envía una carta a la abuela.,Afirmación,En28,28,,,,,0,9,9,9,,,,,,,,,2,1.53415469718,,,,,2018_may._03_1018,59.9719797998,Experimento Piloto1,001,103,
0.25,Stim\\03_078.jpg,Tr78_8,Tristeza,8,Estefanía despierta a las 7 a.m.,Afirmación,Tr78,78,,,,,0,10,10,10,,,,,,,,,4,0.916360652182,,,,,2018_may._03_1018,59.9719797998,Experimento Piloto1,001,103,
0.25,Stim\\02_075.jpg,Al75_1,Alegría,1,Juan colecciona monedas antiguas.,Afirmación,Al75,75,,,,,0,11,11,11,,,,,,,,,3,0.950303158498,,,,,2018_may._03_1018,59.9719797998,Experimento Piloto1,001,103,
0.25,Stim\\05_078.jpg,En78_11,Enojo,11,María asiste a la cena.,Afirmación,En78,78,,,,,0,12,12,12,,,,,,,,,4,1.36669393241,,,,,2018_may._03_1018,59.9719797998,Experimento Piloto1,001,103,
2.5,Stim\\03_028.jpg,Tr28_15,Tristeza,15,Ángel envía una carta a la abuela.,Afirmación,Tr28,28,,,,,0,13,13,13,,,,,,,,,4,0.900254227417,,,,,2018_may._03_1018,59.9719797998,Experimento Piloto1,001,103,
2.5,Stim\\02_019.jpg,Al19_3,Alegría,3,Andrea diseña la portada del libro.,Afirmación,Al19,19,,,,,0,14,14,14,,,,,,,,,3,0.650159511305,,,,,2018_may._03_1018,59.9719797998,Experimento Piloto1,001,103,
2.5,Stim\\05_019.jpg,En19_5,Enojo,5,Emilio revisa el formato del archivo.,Afirmación,En19,19,,,,,0,15,15,15,,,,,,,,,2,1.76687162832,,,,,2018_may._03_1018,59.9719797998,Experimento Piloto1,001,103,
0.25,Stim\\02_028.jpg,Al28_11,Alegría,11,María asiste a la cena.,Afirmación,Al28,28,,,,,0,16,16,16,,,,,,,,,3,0.550464610981,,,,,2018_may._03_1018,59.9719797998,Experimento Piloto1,001,103,
0.25,Stim\\03_019.jpg,Tr19_11,Tristeza,11,María asiste a la cena.,Afirmación,Tr19,19,,,,,0,17,17,17,,,,,,,,,4,2.39946637678,,,,,2018_may._03_1018,59.9719797998,Experimento Piloto1,001,103,
2.5,Stim\\03_078.jpg,Tr78_14,Tristeza,14,Elizabeth elige la ropa un día antes.,Afirmación,Tr78,78,,,,,0,18,18,18,,,,,,,,,4,1.366781397,,,,,2018_may._03_1018,59.9719797998,Experimento Piloto1,001,103,
0.25,Stim\\02_019.jpg,Al19_9,Alegría,9,Marco colabora en la organización del evento.,Afirmación,Al19,19,,,,,0,19,19,19,,,,,,,,,3,1.11672416571,,,,,2018_may._03_1018,59.9719797998,Experimento Piloto1,001,103,
2.5,Stim\\02_075.jpg,Al75_11,Alegría,11,María asiste a la cena.,Afirmación,Al75,75,,,,,0,20,20,20,,,,,,,,,3,0.600145833807,,,,,2018_may._03_1018,59.9719797998,Experimento Piloto1,001,103,
0.25,Stim\\02_028.jpg,Al28_4,Alegría,4,Jorge sustituye a Gustavo cada sábado.,Afirmación,Al28,28,,,,,0,21,21,21,,,,,,,,,3,0.600361817782,,,,,2018_may._03_1018,59.9719797998,Experimento Piloto1,001,103,
2.5,Stim\\02_075.jpg,Al75_10,Alegría,10,Laura finaliza la obra.,Afirmación,Al75,75,,,,,0,22,22,22,,,,,,,,,3,0.700351241707,,,,,2018_may._03_1018,59.9719797998,Experimento Piloto1,001,103,
0.25,Stim\\05_075.jpg,En75_4,Enojo,4,Jorge sustituye a Gustavo cada sábado.,Afirmación,En75,75,,,,,0,23,23,23,,,,,,,,,2,1.63318468816,,,,,2018_may._03_1018,59.9719797998,Experimento Piloto1,001,103,
2.5,Stim\\02_028.jpg,Al28_11,Alegría,11,María asiste a la cena.,Afirmación,Al28,28,,,,,0,24,24,24,,,,,,,,,3,1.98316529869,,,,,2018_may._03_1018,59.9719797998,Experimento Piloto1,001,103,
0.25,Stim\\02_078.jpg,Al78_1,Alegría,1,Juan colecciona monedas antiguas.,Afirmación,Al78,78,,,,,0,25,25,25,,,,,,,,,3,0.650398700169,,,,,2018_may._03_1018,59.9719797998,Experimento Piloto1,001,103,
2.5,Stim\\02_019.jpg,Al19_7,Alegría,7,Roberto contesta los cuestionarios solicitados.,Afirmación,Al19,19,,,,,0,26,26,26,,,,,,,,,3,0.55073012847,,,,,2018_may._03_1018,59.9719797998,Experimento Piloto1,001,103,
0.25,Stim\\05_028.jpg,En28_15,Enojo,15,Ángel envía una carta a la abuela.,Afirmación,En28,28,,,,,0,27,27,27,,,,,,,,,2,0.966580049953,,,,,2018_may._03_1018,59.9719797998,Experimento Piloto1,001,103,
0.25,Stim\\03_075.jpg,Tr75_2,Tristeza,2,Jonathan pasea al perro.,Afirmación,Tr75,75,,,,,0,28,28,28,,,,,,,,,4,0.916851971099,,,,,2018_may._03_1018,59.9719797998,Experimento Piloto1,001,103,
0.25,Stim\\05_075.jpg,En75_3,Enojo,3,Andrea diseña la portada del libro.,Afirmación,En75,75,,,,,0,29,29,29,,,,,,,,,2,1.06701973799,,,,,2018_may._03_1018,59.9719797998,Experimento Piloto1,001,103,
2.5,Stim\\05_028.jpg,En28_10,Enojo,10,Laura finaliza la obra.,Afirmación,En28,28,,,,,0,30,30,30,,,,,,,,,2,0.900048953393,,,,,2018_may._03_1018,59.9719797998,Experimento Piloto1,001,103,
0.25,Stim\\05_019.jpg,En19_4,Enojo,4,Jorge sustituye a Gustavo cada sábado.,Afirmación,En19,19,,,,,0,31,31,31,,,,,,,,,2,1.10028394753,,,,,2018_may._03_1018,59.9719797998,Experimento Piloto1,001,103,
2.5,Stim\\02_078.jpg,Al78_1,Alegría,1,Juan colecciona monedas antiguas.,Afirmación,Al78,78,,,,,0,32,32,32,,,,,,,,,3,0.500311704145,,,,,2018_may._03_1018,59.9719797998,Experimento Piloto1,001,103,
0.25,Stim\\05_075.jpg,En75_6,Enojo,6,Eduardo camina hacia la biblioteca.,Afirmación,En75,75,,,,,0,33,33,33,,,,,,,,,2,0.850237426185,,,,,2018_may._03_1018,59.9719797998,Experimento Piloto1,001,103,
2.5,Stim\\02_019.jpg,Al19_12,Alegría,12,Ana compra el libro.,Afirmación,Al19,19,,,,,0,34,34,34,,,,,,,,,3,0.916834121184,,,,,2018_may._03_1018,59.9719797998,Experimento Piloto1,001,103,
0.25,Stim\\05_075.jpg,En75_8,Enojo,8,Estefanía despierta a las 7 a.m.,Afirmación,En75,75,,,,,0,35,35,35,,,,,,,,,2,1.26679375806,,,,,2018_may._03_1018,59.9719797998,Experimento Piloto1,001,103,
2.5,Stim\\03_028.jpg,Tr28_4,Tristeza,4,Jorge sustituye a Gustavo cada sábado.,Afirmación,Tr28,28,,,,,0,36,36,36,,,,,,,,,4,0.800417420268,,,,,2018_may._03_1018,59.9719797998,Experimento Piloto1,001,103,
0.25,Stim\\03_078.jpg,Tr78_12,Tristeza,12,Ana compra el libro.,Afirmación,Tr78,78,,,,,0,37,37,37,,,,,,,,,4,1.05012390072,,,,,2018_may._03_1018,59.9719797998,Experimento Piloto1,001,103,
2.5,Stim\\03_019.jpg,Tr19_3,Tristeza,3,Andrea diseña la portada del libro.,Afirmación,Tr19,19,,,,,0,38,38,38,,,,,,,,,4,0.500344726488,,,,,2018_may._03_1018,59.9719797998,Experimento Piloto1,001,103,
2.5,Stim\\05_075.jpg,En75_4,Enojo,4,Jorge sustituye a Gustavo cada sábado.,Afirmación,En75,75,,,,,0,39,39,39,,,,,,,,,2,0.70007055179,,,,,2018_may._03_1018,59.9719797998,Experimento Piloto1,001,103,
0.25,Stim\\05_078.jpg,En78_6,Enojo,6,Eduardo camina hacia la biblioteca.,Afirmación,En78,78,,,,,0,40,40,40,,,,,,,,,2,0.866452289185,,,,,2018_may._03_1018,59.9719797998,Experimento Piloto1,001,103,
0.25,Stim\\03_078.jpg,Tr78_3,Tristeza,3,Andrea diseña la portada del libro.,Afirmación,Tr78,78,,,,,0,41,41,41,,,,,,,,,4,0.549966152098,,,,,2018_may._03_1018,59.9719797998,Experimento Piloto1,001,103,
0.25,Stim\\05_078.jpg,En78_15,Enojo,15,Ángel envía una carta a la abuela.,Afirmación,En78,78,,,,,0,42,42,42,,,,,,,,,2,0.700346332981,,,,,2018_may._03_1018,59.9719797998,Experimento Piloto1,001,103,
2.5,Stim\\05_078.jpg,En78_2,Enojo,2,Jonathan pasea al perro.,Afirmación,En78,78,,,,,0,43,43,43,,,,,,,,,2,0.750212302429,,,,,2018_may._03_1018,59.9719797998,Experimento Piloto1,001,103,
2.5,Stim\\02_078.jpg,Al78_4,Alegría,4,Jorge sustituye a Gustavo cada sábado.,Afirmación,Al78,78,,,,,0,44,44,44,,,,,,,,,3,1.11664562608,,,,,2018_may._03_1018,59.9719797998,Experimento Piloto1,001,103,
2.5,Stim\\05_078.jpg,En78_4,Enojo,4,Jorge sustituye a Gustavo cada sábado.,Afirmación,En78,78,,,,,0,45,45,45,,,,,,,,,2,0.866907908271,,,,,2018_may._03_1018,59.9719797998,Experimento Piloto1,001,103,
0.25,Stim\\05_019.jpg,En19_9,Enojo,9,Marco colabora en la organización del evento.,Afirmación,En19,19,,,,,0,46,46,46,,,,,,,,,2,0.950316099686,,,,,2018_may._03_1018,59.9719797998,Experimento Piloto1,001,103,
0.25,Stim\\05_019.jpg,En19_15,Enojo,15,Ángel envía una carta a la abuela.,Afirmación,En19,19,,,,,0,47,47,47,,,,,,,,,2,0.500126511274,,,,,2018_may._03_1018,59.9719797998,Experimento Piloto1,001,103,
2.5,Stim\\02_028.jpg,Al28_2,Alegría,2,Jonathan pasea al perro.,Afirmación,Al28,28,,,,,0,48,48,48,,,,,,,,,3,0.850531503539,,,,,2018_may._03_1018,59.9719797998,Experimento Piloto1,001,103,
0.25,Stim\\03_075.jpg,Tr75_1,Tristeza,1,Juan colecciona monedas antiguas.,Afirmación,Tr75,75,,,,,0,49,49,49,,,,,,,,,4,0.950184010313,,,,,2018_may._03_1018,59.9719797998,Experimento Piloto1,001,103,
2.5,Stim\\02_028.jpg,Al28_12,Alegría,12,Ana compra el libro.,Afirmación,Al28,28,,,,,0,50,50,50,,,,,,,,,3,0.866815088712,,,,,2018_may._03_1018,59.9719797998,Experimento Piloto1,001,103,
0.25,Stim\\05_019.jpg,En19_5,Enojo,5,Emilio revisa el formato del archivo.,Afirmación,En19,19,,,,,0,51,51,51,,,,,,,,,2,1.98317065367,,,,,2018_may._03_1018,59.9719797998,Experimento Piloto1,001,103,
0.25,Stim\\02_075.jpg,Al75_9,Alegría,9,Marco colabora en la organización del evento.,Afirmación,Al75,75,,,,,0,52,52,52,,,,,,,,,3,1.16682129156,,,,,2018_may._03_1018,59.9719797998,Experimento Piloto1,001,103,
2.5,Stim\\03_019.jpg,Tr19_12,Tristeza,12,Ana compra el libro.,Afirmación,Tr19,19,,,,,0,53,53,53,,,,,,,,,4,3.632745134,,,,,2018_may._03_1018,59.9719797998,Experimento Piloto1,001,103,
2.5,Stim\\02_019.jpg,Al19_4,Alegría,4,Jorge sustituye a Gustavo cada sábado.,Afirmación,Al19,19,,,,,0,54,54,54,,,,,,,,,3,1.21676624688,,,,,2018_may._03_1018,59.9719797998,Experimento Piloto1,001,103,
0.25,Stim\\02_019.jpg,Al19_12,Alegría,12,Ana compra el libro.,Afirmación,Al19,19,,,,,0,55,55,55,,,,,,,,,3,1.58322054418,,,,,2018_may._03_1018,59.9719797998,Experimento Piloto1,001,103,
2.5,Stim\\02_078.jpg,Al78_7,Alegría,7,Roberto contesta los cuestionarios solicitados.,Afirmación,Al78,78,,,,,0,56,56,56,,,,,,,,,3,0.816900924492,,,,,2018_may._03_1018,59.9719797998,Experimento Piloto1,001,103,
2.5,Stim\\03_078.jpg,Tr78_13,Tristeza,13,Rocío consume alimentos nutritivos.,Afirmación,Tr78,78,,,,,0,57,57,57,,,,,,,,,4,0.916841707398,,,,,2018_may._03_1018,59.9719797998,Experimento Piloto1,001,103,
2.5,Stim\\02_075.jpg,Al75_9,Alegría,9,Marco colabora en la organización del evento.,Afirmación,Al75,75,,,,,0,58,58,58,,,,,,,,,4,2.6496449875,,,,,2018_may._03_1018,59.9719797998,Experimento Piloto1,001,103,
0.25,Stim\\02_028.jpg,Al28_5,Alegría,5,Emilio revisa el formato del archivo.,Afirmación,Al28,28,,,,,0,59,59,59,,,,,,,,,3,0.500274219323,,,,,2018_may._03_1018,59.9719797998,Experimento Piloto1,001,103,
2.5,Stim\\03_028.jpg,Tr28_7,Tristeza,7,Roberto contesta los cuestionarios solicitados.,Afirmación,Tr28,28,,,,,0,60,60,60,,,,,,,,,4,1.21669395472,,,,,2018_may._03_1018,59.9719797998,Experimento Piloto1,001,103,
0.25,Stim\\05_078.jpg,En78_7,Enojo,7,Roberto contesta los cuestionarios solicitados.,Afirmación,En78,78,,,,,0,61,61,61,,,,,,,,,2,1.01678382905,,,,,2018_may._03_1018,59.9719797998,Experimento Piloto1,001,103,
2.5,Stim\\03_028.jpg,Tr28_5,Tristeza,5,Emilio revisa el formato del archivo.,Afirmación,Tr28,28,,,,,0,62,62,62,,,,,,,,,4,1.56685752689,,,,,2018_may._03_1018,59.9719797998,Experimento Piloto1,001,103,
0.25,Stim\\02_019.jpg,Al19_13,Alegría,13,Rocío consume alimentos nutritivos.,Afirmación,Al19,19,,,,,0,63,63,63,,,,,,,,,3,1.16681013536,,,,,2018_may._03_1018,59.9719797998,Experimento Piloto1,001,103,
2.5,Stim\\05_019.jpg,En19_13,Enojo,13,Rocío consume alimentos nutritivos.,Afirmación,En19,19,,,,,0,64,64,64,,,,,,,,,2,0.96683530374,,,,,2018_may._03_1018,59.9719797998,Experimento Piloto1,001,103,
2.5,Stim\\03_078.jpg,Tr78_4,Tristeza,4,Jorge sustituye a Gustavo cada sábado.,Afirmación,Tr78,78,,,,,0,65,65,65,,,,,,,,,4,2.54976043183,,,,,2018_may._03_1018,59.9719797998,Experimento Piloto1,001,103,
0.25,Stim\\05_028.jpg,En28_13,Enojo,13,Rocío consume alimentos nutritivos.,Afirmación,En28,28,,,,,0,66,66,66,,,,,,,,,2,0.850227608732,,,,,2018_may._03_1018,59.9719797998,Experimento Piloto1,001,103,
0.25,Stim\\02_075.jpg,Al75_4,Alegría,4,Jorge sustituye a Gustavo cada sábado.,Afirmación,Al75,75,,,,,0,67,67,67,,,,,,,,,3,0.750240416045,,,,,2018_may._03_1018,59.9719797998,Experimento Piloto1,001,103,
0.25,Stim\\03_019.jpg,Tr19_14,Tristeza,14,Elizabeth elige la ropa un día antes.,Afirmación,Tr19,19,,,,,0,68,68,68,,,,,,,,,4,1.11697361827,,,,,2018_may._03_1018,59.9719797998,Experimento Piloto1,001,103,
2.5,Stim\\02_075.jpg,Al75_4,Alegría,4,Jorge sustituye a Gustavo cada sábado.,Afirmación,Al75,75,,,,,0,69,69,69,,,,,,,,,3,1.21675642943,,,,,2018_may._03_1018,59.9719797998,Experimento Piloto1,001,103,
2.5,Stim\\05_078.jpg,En78_7,Enojo,7,Roberto contesta los cuestionarios solicitados.,Afirmación,En78,78,,,,,0,70,70,70,,,,,,,,,2,1.11688124496,,,,,2018_may._03_1018,59.9719797998,Experimento Piloto1,001,103,
2.5,Stim\\05_028.jpg,En28_6,Enojo,6,Eduardo camina hacia la biblioteca.,Afirmación,En28,28,,,,,0,71,71,71,,,,,,,,,2,0.550088870265,,,,,2018_may._03_1018,59.9719797998,Experimento Piloto1,001,103,
2.5,Stim\\05_028.jpg,En28_7,Enojo,7,Roberto contesta los cuestionarios solicitados.,Afirmación,En28,28,,,,,0,72,72,72,,,,,,,,,2,0.500342049001,,,,,2018_may._03_1018,59.9719797998,Experimento Piloto1,001,103,
2.5,Stim\\03_028.jpg,Tr28_14,Tristeza,14,Elizabeth elige la ropa un día antes.,Afirmación,Tr28,28,,,,,0,73,73,73,,,,,,,,,4,0.800195635071,,,,,2018_may._03_1018,59.9719797998,Experimento Piloto1,001,103,
2.5,Stim\\02_019.jpg,Al19_11,Alegría,11,María asiste a la cena.,Afirmación,Al19,19,,,,,0,74,74,74,,,,,,,,,3,0.600177963655,,,,,2018_may._03_1018,59.9719797998,Experimento Piloto1,001,103,
0.25,Stim\\05_028.jpg,En28_7,Enojo,7,Roberto contesta los cuestionarios solicitados.,Afirmación,En28,28,,,,,0,75,75,75,,,,,,,,,2,1.00014993929,,,,,2018_may._03_1018,59.9719797998,Experimento Piloto1,001,103,
0.25,Stim\\05_078.jpg,En78_13,Enojo,13,Rocío consume alimentos nutritivos.,Afirmación,En78,78,,,,,0,76,76,76,,,,,,,,,2,3.01618451814,,,,,2018_may._03_1018,59.9719797998,Experimento Piloto1,001,103,
0.25,Stim\\03_028.jpg,Tr28_14,Tristeza,14,Elizabeth elige la ropa un día antes.,Afirmación,Tr28,28,,,,,0,77,77,77,,,,,,,,,4,0.450287762946,,,,,2018_may._03_1018,59.9719797998,Experimento Piloto1,001,103,
2.5,Stim\\03_075.jpg,Tr75_14,Tristeza,14,Elizabeth elige la ropa un día antes.,Afirmación,Tr75,75,,,,,0,78,78,78,,,,,,,,,4,1.36694026124,,,,,2018_may._03_1018,59.9719797998,Experimento Piloto1,001,103,
0.25,Stim\\05_019.jpg,En19_10,Enojo,10,Laura finaliza la obra.,Afirmación,En19,19,,,,,0,79,79,79,,,,,,,,,2,0.750179280086,,,,,2018_may._03_1018,59.9719797998,Experimento Piloto1,001,103,
0.25,Stim\\05_078.jpg,En78_9,Enojo,9,Marco colabora en la organización del evento.,Afirmación,En78,78,,,,,0,80,80,80,,,,,,,,,2,0.600257395778,,,,,2018_may._03_1018,59.9719797998,Experimento Piloto1,001,103,
0.25,Stim\\02_028.jpg,Al28_6,Alegría,6,Eduardo camina hacia la biblioteca.,Afirmación,Al28,28,,,,,0,81,81,81,,,,,,,,,3,1.36683182301,,,,,2018_may._03_1018,59.9719797998,Experimento Piloto1,001,103,
0.25,Stim\\05_078.jpg,En78_12,Enojo,12,Ana compra el libro.,Afirmación,En78,78,,,,,0,82,82,82,,,,,,,,,2,0.500270203092,,,,,2018_may._03_1018,59.9719797998,Experimento Piloto1,001,103,
2.5,Stim\\05_075.jpg,En75_1,Enojo,1,Juan colecciona monedas antiguas.,Afirmación,En75,75,,,,,0,83,83,83,,,,,,,,,2,0.850227608732,,,,,2018_may._03_1018,59.9719797998,Experimento Piloto1,001,103,
0.25,Stim\\03_019.jpg,Tr19_13,Tristeza,13,Rocío consume alimentos nutritivos.,Afirmación,Tr19,19,,,,,0,84,84,84,,,,,,,,,4,1.61649367868,,,,,2018_may._03_1018,59.9719797998,Experimento Piloto1,001,103,
2.5,Stim\\03_078.jpg,Tr78_11,Tristeza,11,María asiste a la cena.,Afirmación,Tr78,78,,,,,0,85,85,85,,,,,,,,,4,0.900126600523,,,,,2018_may._03_1018,59.9719797998,Experimento Piloto1,001,103,
2.5,Stim\\05_019.jpg,En19_1,Enojo,1,Juan colecciona monedas antiguas.,Afirmación,En19,19,,,,,0,86,86,86,,,,,,,,,2,1.9332886193,,,,,2018_may._03_1018,59.9719797998,Experimento Piloto1,001,103,
0.25,Stim\\02_075.jpg,Al75_10,Alegría,10,Laura finaliza la obra.,Afirmación,Al75,75,,,,,0,87,87,87,,,,,,,,,3,0.650279105737,,,,,2018_may._03_1018,59.9719797998,Experimento Piloto1,001,103,
2.5,Stim\\02_019.jpg,Al19_14,Alegría,14,Elizabeth elige la ropa un día antes.,Afirmación,Al19,19,,,,,0,88,88,88,,,,,,,,,3,0.550426233664,,,,,2018_may._03_1018,59.9719797998,Experimento Piloto1,001,103,
0.25,Stim\\03_028.jpg,Tr28_6,Tristeza,6,Eduardo camina hacia la biblioteca.,Afirmación,Tr28,28,,,,,0,89,89,89,,,,,,,,,4,0.650333101731,,,,,2018_may._03_1018,59.9719797998,Experimento Piloto1,001,103,
0.25,Stim\\02_075.jpg,Al75_8,Alegría,8,Estefanía despierta a las 7 a.m.,Afirmación,Al75,75,,,,,0,90,90,90,,,,,,,,,3,2.08328368826,,,,,2018_may._03_1018,59.9719797998,Experimento Piloto1,001,103,
2.5,Stim\\02_019.jpg,Al19_6,Alegría,6,Eduardo camina hacia la biblioteca.,Afirmación,Al19,19,,,,,0,91,91,91,,,,,,,,,3,0.500558925471,,,,,2018_may._03_1018,59.9719797998,Experimento Piloto1,001,103,
2.5,Stim\\03_078.jpg,Tr78_7,Tristeza,7,Roberto contesta los cuestionarios solicitados.,Afirmación,Tr78,78,,,,,0,92,92,92,,,,,,,,,4,0.700443615019,,,,,2018_may._03_1018,59.9719797998,Experimento Piloto1,001,103,
2.5,Stim\\02_028.jpg,Al28_8,Alegría,8,Estefanía despierta a las 7 a.m.,Afirmación,Al28,28,,,,,0,93,93,93,,,,,,,,,3,0.350224708121,,,,,2018_may._03_1018,59.9719797998,Experimento Piloto1,001,103,
0.25,Stim\\03_075.jpg,Tr75_13,Tristeza,13,Rocío consume alimentos nutritivos.,Afirmación,Tr75,75,,,,,0,94,94,94,,,,,,,,,4,0.500358560173,,,,,2018_may._03_1018,59.9719797998,Experimento Piloto1,001,103,
2.5,Stim\\02_075.jpg,Al75_6,Alegría,6,Eduardo camina hacia la biblioteca.,Afirmación,Al75,75,,,,,0,95,95,95,,,,,,,,,4,1.16673695071,,,,,2018_may._03_1018,59.9719797998,Experimento Piloto1,001,103,
0.25,Stim\\02_028.jpg,Al28_9,Alegría,9,Marco colabora en la organización del evento.,Afirmación,Al28,28,,,,,0,96,96,96,,,,,,,,,3,0.333659986782,,,,,2018_may._03_1018,59.9719797998,Experimento Piloto1,001,103,
0.25,Stim\\02_019.jpg,Al19_8,Alegría,8,Estefanía despierta a las 7 a.m.,Afirmación,Al19,19,,,,,0,97,97,97,,,,,,,,,3,0.433674846837,,,,,2018_may._03_1018,59.9719797998,Experimento Piloto1,001,103,
2.5,Stim\\02_019.jpg,Al19_1,Alegría,1,Juan colecciona monedas antiguas.,Afirmación,Al19,19,,,,,0,98,98,98,,,,,,,,,3,0.599799099204,,,,,2018_may._03_1018,59.9719797998,Experimento Piloto1,001,103,
0.25,Stim\\02_019.jpg,Al19_5,Alegría,5,Emilio revisa el formato del archivo.,Afirmación,Al19,19,,,,,0,99,99,99,,,,,,,,,3,0.650260809574,,,,,2018_may._03_1018,59.9719797998,Experimento Piloto1,001,103,
2.5,Stim\\02_078.jpg,Al78_13,Alegría,13,Rocío consume alimentos nutritivos.,Afirmación,Al78,78,,,,,0,100,100,100,,,,,,,,,3,0.383841899731,,,,,2018_may._03_1018,59.9719797998,Experimento Piloto1,001,103,
2.5,Stim\\05_078.jpg,En78_12,Enojo,12,Ana compra el libro.,Afirmación,En78,78,,,,,0,101,101,101,,,,,,,,,2,0.850231178715,,,,,2018_may._03_1018,59.9719797998,Experimento Piloto1,001,103,
2.5,Stim\\03_075.jpg,Tr75_11,Tristeza,11,María asiste a la cena.,Afirmación,Tr75,75,,,,,0,102,102,102,,,,,,,,,4,1.01677088786,,,,,2018_may._03_1018,59.9719797998,Experimento Piloto1,001,103,
0.25,Stim\\02_078.jpg,Al78_13,Alegría,13,Rocío consume alimentos nutritivos.,Afirmación,Al78,78,,,,,0,103,103,103,,,,,,,,,3,0.750318955673,,,,,2018_may._03_1018,59.9719797998,Experimento Piloto1,001,103,
0.25,Stim\\03_075.jpg,Tr75_11,Tristeza,11,María asiste a la cena.,Afirmación,Tr75,75,,,,,0,104,104,104,,,,,,,,,4,1.41670716366,,,,,2018_may._03_1018,59.9719797998,Experimento Piloto1,001,103,
2.5,Stim\\05_075.jpg,En75_8,Enojo,8,Estefanía despierta a las 7 a.m.,Afirmación,En75,75,,,,,0,105,105,105,,,,,,,,,2,1.58320269427,,,,,2018_may._03_1018,59.9719797998,Experimento Piloto1,001,103,
2.5,Stim\\03_078.jpg,Tr78_2,Tristeza,2,Jonathan pasea al perro.,Afirmación,Tr78,78,,,,,0,106,106,106,,,,,,,,,4,1.11679065664,,,,,2018_may._03_1018,59.9719797998,Experimento Piloto1,001,103,
2.5,Stim\\03_078.jpg,Tr78_12,Tristeza,12,Ana compra el libro.,Afirmación,Tr78,78,,,,,0,107,107,107,,,,,,,,,4,0.600294434352,,,,,2018_may._03_1018,59.9719797998,Experimento Piloto1,001,103,
2.5,Stim\\05_019.jpg,En19_10,Enojo,10,Laura finaliza la obra.,Afirmación,En19,19,,,,,0,108,108,108,,,,,,,,,2,0.450164152283,,,,,2018_may._03_1018,59.9719797998,Experimento Piloto1,001,103,
2.5,Stim\\05_078.jpg,En78_15,Enojo,15,Ángel envía una carta a la abuela.,Afirmación,En78,78,,,,,0,109,109,109,,,,,,,,,2,0.700177205033,,,,,2018_may._03_1018,59.9719797998,Experimento Piloto1,001,103,
0.25,Stim\\02_028.jpg,Al28_15,Alegría,15,Ángel envía una carta a la abuela.,Afirmación,Al28,28,,,,,0,110,110,110,,,,,,,,,3,0.916825642474,,,,,2018_may._03_1018,59.9719797998,Experimento Piloto1,001,103,
2.5,Stim\\02_075.jpg,Al75_13,Alegría,13,Rocío consume alimentos nutritivos.,Afirmación,Al75,75,,,,,0,111,111,111,,,,,,,,,3,0.383857964655,,,,,2018_may._03_1018,59.9719797998,Experimento Piloto1,001,103,
2.5,Stim\\02_078.jpg,Al78_5,Alegría,5,Emilio revisa el formato del archivo.,Afirmación,Al78,78,,,,,0,112,112,112,,,,,,,,,3,0.600485428445,,,,,2018_may._03_1018,59.9719797998,Experimento Piloto1,001,103,
2.5,Stim\\05_019.jpg,En19_12,Enojo,12,Ana compra el libro.,Afirmación,En19,19,,,,,0,113,113,113,,,,,,,,,2,1.51676307852,,,,,2018_may._03_1018,59.9719797998,Experimento Piloto1,001,103,
2.5,Stim\\03_028.jpg,Tr28_13,Tristeza,13,Rocío consume alimentos nutritivos.,Afirmación,Tr28,28,,,,,0,114,114,114,,,,,,,,,4,0.650326408012,,,,,2018_may._03_1018,59.9719797998,Experimento Piloto1,001,103,
2.5,Stim\\02_075.jpg,Al75_1,Alegría,1,Juan colecciona monedas antiguas.,Afirmación,Al75,75,,,,,0,115,115,115,,,,,,,,,3,0.550336091591,,,,,2018_may._03_1018,59.9719797998,Experimento Piloto1,001,103,
2.5,Stim\\02_028.jpg,Al28_3,Alegría,3,Andrea diseña la portada del libro.,Afirmación,Al28,28,,,,,0,116,116,116,,,,,,,,,3,1.0666712184,,,,,2018_may._03_1018,59.9719797998,Experimento Piloto1,001,103,
0.25,Stim\\05_028.jpg,En28_10,Enojo,10,Laura finaliza la obra.,Afirmación,En28,28,,,,,0,117,117,117,,,,,,,,,2,1.31654281057,,,,,2018_may._03_1018,59.9719797998,Experimento Piloto1,001,103,
0.25,Stim\\02_078.jpg,Al78_3,Alegría,3,Andrea diseña la portada del libro.,Afirmación,Al78,78,,,,,0,118,118,118,,,,,,,,,3,0.650420566315,,,,,2018_may._03_1018,59.9719797998,Experimento Piloto1,001,103,
2.5,Stim\\03_075.jpg,Tr75_15,Tristeza,15,Ángel envía una carta a la abuela.,Afirmación,Tr75,75,,,,,0,119,119,119,,,,,,,,,4,0.483517611396,,,,,2018_may._03_1018,59.9719797998,Experimento Piloto1,001,103,
2.5,Stim\\03_028.jpg,Tr28_1,Tristeza,1,Juan colecciona monedas antiguas.,Afirmación,Tr28,28,,,,,,,,,0,0,0,0,,,,,,,4,1.81669252673,,,2018_may._03_1018,59.9719797998,Experimento Piloto1,001,103,
0.25,Stim\\03_019.jpg,Tr19_1,Tristeza,1,Juan colecciona monedas antiguas.,Afirmación,Tr19,19,,,,,,,,,0,1,1,1,,,,,,,4,1.36674658966,,,2018_may._03_1018,59.9719797998,Experimento Piloto1,001,103,
2.5,Stim\\03_078.jpg,Tr78_10,Tristeza,10,Laura finaliza la obra.,Afirmación,Tr78,78,,,,,,,,,0,2,2,2,,,,,,,4,0.550226760861,,,2018_may._03_1018,59.9719797998,Experimento Piloto1,001,103,
0.25,Stim\\02_075.jpg,Al75_5,Alegría,5,Emilio revisa el formato del archivo.,Afirmación,Al75,75,,,,,,,,,0,3,3,3,,,,,,,3,0.650263933309,,,2018_may._03_1018,59.9719797998,Experimento Piloto1,001,103,
0.25,Stim\\02_019.jpg,Al19_15,Alegría,15,Ángel envía una carta a la abuela.,Afirmación,Al19,19,,,,,,,,,0,4,4,4,,,,,,,3,0.400313355262,,,2018_may._03_1018,59.9719797998,Experimento Piloto1,001,103,
2.5,Stim\\02_075.jpg,Al75_7,Alegría,7,Roberto contesta los cuestionarios solicitados.,Afirmación,Al75,75,,,,,,,,,0,5,5,5,,,,,,,3,0.40008219886,,,2018_may._03_1018,59.9719797998,Experimento Piloto1,001,103,
0.25,Stim\\03_075.jpg,Tr75_8,Tristeza,8,Estefanía despierta a las 7 a.m.,Afirmación,Tr75,75,,,,,,,,,0,6,6,6,,,,,,,4,0.433612372133,,,2018_may._03_1018,59.9719797998,Experimento Piloto1,001,103,
0.25,Stim\\02_019.jpg,Al19_11,Alegría,11,María asiste a la cena.,Afirmación,Al19,19,,,,,,,,,0,7,7,7,,,,,,,3,0.350427750906,,,2018_may._03_1018,59.9719797998,Experimento Piloto1,001,103,
2.5,Stim\\02_019.jpg,Al19_2,Alegría,2,Jonathan pasea al perro.,Afirmación,Al19,19,,,,,,,,,0,8,8,8,,,,,,,3,0.600282385659,,,2018_may._03_1018,59.9719797998,Experimento Piloto1,001,103,
2.5,Stim\\05_075.jpg,En75_5,Enojo,5,Emilio revisa el formato del archivo.,Afirmación,En75,75,,,,,,,,,0,9,9,9,,,,,,,2,0.65023224971,,,2018_may._03_1018,59.9719797998,Experimento Piloto1,001,103,
0.25,Stim\\03_078.jpg,Tr78_10,Tristeza,10,Laura finaliza la obra.,Afirmación,Tr78,78,,,,,,,,,0,10,10,10,,,,,,,3,1.8665549262,,,2018_may._03_1018,59.9719797998,Experimento Piloto1,001,103,
0.25,Stim\\02_019.jpg,Al19_6,Alegría,6,Eduardo camina hacia la biblioteca.,Afirmación,Al19,19,,,,,,,,,0,11,11,11,,,,,,,4,1.73332182014,,,2018_may._03_1018,59.9719797998,Experimento Piloto1,001,103,
2.5,Stim\\05_019.jpg,En19_3,Enojo,3,Andrea diseña la portada del libro.,Afirmación,En19,19,,,,,,,,,0,12,12,12,,,,,,,2,0.400254004294,,,2018_may._03_1018,59.9719797998,Experimento Piloto1,001,103,
0.25,Stim\\05_019.jpg,En19_3,Enojo,3,Andrea diseña la portada del libro.,Afirmación,En19,19,,,,,,,,,0,13,13,13,,,,,,,2,0.433677078076,,,2018_may._03_1018,59.9719797998,Experimento Piloto1,001,103,
2.5,Stim\\02_028.jpg,Al28_1,Alegría,1,Juan colecciona monedas antiguas.,Afirmación,Al28,28,,,,,,,,,0,14,14,14,,,,,,,3,0.550244610776,,,2018_may._03_1018,59.9719797998,Experimento Piloto1,001,103,
0.25,Stim\\02_019.jpg,Al19_2,Alegría,2,Jonathan pasea al perro.,Afirmación,Al19,19,,,,,,,,,0,15,15,15,,,,,,,3,0.333714429024,,,2018_may._03_1018,59.9719797998,Experimento Piloto1,001,103,
0.25,Stim\\05_028.jpg,En28_11,Enojo,11,María asiste a la cena.,Afirmación,En28,28,,,,,,,,,0,16,16,16,,,,,,,2,0.850328014505,,,2018_may._03_1018,59.9719797998,Experimento Piloto1,001,103,
0.25,Stim\\03_028.jpg,Tr28_1,Tristeza,1,Juan colecciona monedas antiguas.,Afirmación,Tr28,28,,,,,,,,,0,17,17,17,,,,,,,4,0.283586958316,,,2018_may._03_1018,59.9719797998,Experimento Piloto1,001,103,
0.25,Stim\\03_078.jpg,Tr78_1,Tristeza,1,Juan colecciona monedas antiguas.,Afirmación,Tr78,78,,,,,,,,,0,18,18,18,,,,,,,4,0.383839668491,,,2018_may._03_1018,59.9719797998,Experimento Piloto1,001,103,
0.25,Stim\\02_019.jpg,Al19_1,Alegría,1,Juan colecciona monedas antiguas.,Afirmación,Al19,19,,,,,,,,,0,19,19,19,,,,,,,3,0.400361103785,,,2018_may._03_1018,59.9719797998,Experimento Piloto1,001,103,
0.25,Stim\\02_019.jpg,Al19_10,Alegría,10,Laura finaliza la obra.,Afirmación,Al19,19,,,,,,,,,0,20,20,20,,,,,,,3,0.300232004273,,,2018_may._03_1018,59.9719797998,Experimento Piloto1,001,103,
2.5,Stim\\03_019.jpg,Tr19_13,Tristeza,13,Rocío consume alimentos nutritivos.,Afirmación,Tr19,19,,,,,,,,,0,21,21,21,,,,,,,4,0.550246842015,,,2018_may._03_1018,59.9719797998,Experimento Piloto1,001,103,
2.5,Stim\\05_075.jpg,En75_6,Enojo,6,Eduardo camina hacia la biblioteca.,Afirmación,En75,75,,,,,,,,,0,22,22,22,,,,,,,2,0.600325225455,,,2018_may._03_1018,59.9719797998,Experimento Piloto1,001,103,
0.25,Stim\\05_078.jpg,En78_10,Enojo,10,Laura finaliza la obra.,Afirmación,En78,78,,,,,,,,,0,23,23,23,,,,,,,2,1.05036353584,,,2018_may._03_1018,59.9719797998,Experimento Piloto1,001,103,
2.5,Stim\\05_075.jpg,En75_14,Enojo,14,Elizabeth elige la ropa un día antes.,Afirmación,En75,75,,,,,,,,,0,24,24,24,,,,,,,2,0.716471946404,,,2018_may._03_1018,59.9719797998,Experimento Piloto1,001,103,
0.25,Stim\\05_019.jpg,En19_7,Enojo,7,Roberto contesta los cuestionarios solicitados.,Afirmación,En19,19,,,,,,,,,0,25,25,25,,,,,,,2,0.400037574072,,,2018_may._03_1018,59.9719797998,Experimento Piloto1,001,103,
0.25,Stim\\02_078.jpg,Al78_14,Alegría,14,Elizabeth elige la ropa un día antes.,Afirmación,Al78,78,,,,,,,,,0,26,26,26,,,,,,,3,0.600273460702,,,2018_may._03_1018,59.9719797998,Experimento Piloto1,001,103,
0.25,Stim\\03_028.jpg,Tr28_13,Tristeza,13,Rocío consume alimentos nutritivos.,Afirmación,Tr28,28,,,,,,,,,0,27,27,27,,,,,,,4,0.399946985752,,,2018_may._03_1018,59.9719797998,Experimento Piloto1,001,103,
2.5,Stim\\03_019.jpg,Tr19_8,Tristeza,8,Estefanía despierta a las 7 a.m.,Afirmación,Tr19,19,,,,,,,,,0,28,28,28,,,,,,,4,0.300671112188,,,2018_may._03_1018,59.9719797998,Experimento Piloto1,001,103,
2.5,Stim\\02_019.jpg,Al19_8,Alegría,8,Estefanía despierta a las 7 a.m.,Afirmación,Al19,19,,,,,,,,,0,29,29,29,,,,,,,3,0.383877153313,,,2018_may._03_1018,59.9719797998,Experimento Piloto1,001,103,
2.5,Stim\\02_028.jpg,Al28_9,Alegría,9,Marco colabora en la organización del evento.,Afirmación,Al28,28,,,,,,,,,0,30,30,30,,,,,,,3,0.966836196237,,,2018_may._03_1018,59.9719797998,Experimento Piloto1,001,103,
2.5,Stim\\03_075.jpg,Tr75_1,Tristeza,1,Juan colecciona monedas antiguas.,Afirmación,Tr75,75,,,,,,,,,0,31,31,31,,,,,,,4,1.26720118238,,,2018_may._03_1018,59.9719797998,Experimento Piloto1,001,103,
2.5,Stim\\05_078.jpg,En78_8,Enojo,8,Estefanía despierta a las 7 a.m.,Afirmación,En78,78,,,,,,,,,0,32,32,32,,,,,,,2,1.26669469103,,,2018_may._03_1018,59.9719797998,Experimento Piloto1,001,103,
0.25,Stim\\02_028.jpg,Al28_12,Alegría,12,Ana compra el libro.,Afirmación,Al28,28,,,,,,,,,0,33,33,33,,,,,,,2,2.59907796263,,,2018_may._03_1018,59.9719797998,Experimento Piloto1,001,103,
0.25,Stim\\05_075.jpg,En75_1,Enojo,1,Juan colecciona monedas antiguas.,Afirmación,En75,75,,,,,,,,,0,34,34,34,,,,,,,2,0.533515670218,,,2018_may._03_1018,59.9719797998,Experimento Piloto1,001,103,
0.25,Stim\\03_028.jpg,Tr28_4,Tristeza,4,Jorge sustituye a Gustavo cada sábado.,Afirmación,Tr28,28,,,,,,,,,0,35,35,35,,,,,,,4,0.600207416015,,,2018_may._03_1018,59.9719797998,Experimento Piloto1,001,103,
2.5,Stim\\03_078.jpg,Tr78_3,Tristeza,3,Andrea diseña la portada del libro.,Afirmación,Tr78,78,,,,,,,,,0,36,36,36,,,,,,,4,1.56652373347,,,2018_may._03_1018,59.9719797998,Experimento Piloto1,001,103,
0.25,Stim\\05_078.jpg,En78_4,Enojo,4,Jorge sustituye a Gustavo cada sábado.,Afirmación,En78,78,,,,,,,,,0,37,37,37,,,,,,,2,0.650210829811,,,2018_may._03_1018,59.9719797998,Experimento Piloto1,001,103,
2.5,Stim\\03_019.jpg,Tr19_7,Tristeza,7,Roberto contesta los cuestionarios solicitados.,Afirmación,Tr19,19,,,,,,,,,0,38,38,38,,,,,,,4,1.48335071469,,,2018_may._03_1018,59.9719797998,Experimento Piloto1,001,103,
0.25,Stim\\02_078.jpg,Al78_2,Alegría,2,Jonathan pasea al perro.,Afirmación,Al78,78,,,,,,,,,0,39,39,39,,,,,,,3,0.300275736565,,,2018_may._03_1018,59.9719797998,Experimento Piloto1,001,103,
0.25,Stim\\02_078.jpg,Al78_5,Alegría,5,Emilio revisa el formato del archivo.,Afirmación,Al78,78,,,,,,,,,0,40,40,40,,,,,,,3,0.383625469508,,,2018_may._03_1018,59.9719797998,Experimento Piloto1,001,103,
2.5,Stim\\05_019.jpg,En19_11,Enojo,11,María asiste a la cena.,Afirmación,En19,19,,,,,,,,,0,41,41,41,,,,,,,2,0.450262326817,,,2018_may._03_1018,59.9719797998,Experimento Piloto1,001,103,
2.5,Stim\\02_028.jpg,Al28_15,Alegría,15,Ángel envía una carta a la abuela.,Afirmación,Al28,28,,,,,,,,,0,42,42,42,,,,,,,3,0.550280756854,,,2018_may._03_1018,59.9719797998,Experimento Piloto1,001,103,
0.25,Stim\\03_019.jpg,Tr19_4,Tristeza,4,Jorge sustituye a Gustavo cada sábado.,Afirmación,Tr19,19,,,,,,,,,0,43,43,43,,,,,,,4,0.350207304453,,,2018_may._03_1018,59.9719797998,Experimento Piloto1,001,103,
2.5,Stim\\02_075.jpg,Al75_12,Alegría,12,Ana compra el libro.,Afirmación,Al75,75,,,,,,,,,0,44,44,44,,,,,,,3,1.250117921,,,2018_may._03_1018,59.9719797998,Experimento Piloto1,001,103,
2.5,Stim\\05_028.jpg,En28_12,Enojo,12,Ana compra el libro.,Afirmación,En28,28,,,,,,,,,0,45,45,45,,,,,,,2,1.06684570132,,,2018_may._03_1018,59.9719797998,Experimento Piloto1,001,103,
0.25,Stim\\02_028.jpg,Al28_14,Alegría,14,Elizabeth elige la ropa un día antes.,Afirmación,Al28,28,,,,,,,,,0,46,46,46,,,,,,,3,1.11662911491,,,2018_may._03_1018,59.9719797998,Experimento Piloto1,001,103,
2.5,Stim\\03_075.jpg,Tr75_6,Tristeza,6,Eduardo camina hacia la biblioteca.,Afirmación,Tr75,75,,,,,,,,,0,47,47,47,,,,,,,4,1.51676977224,,,2018_may._03_1018,59.9719797998,Experimento Piloto1,001,103,
0.25,Stim\\05_028.jpg,En28_8,Enojo,8,Estefanía despierta a las 7 a.m.,Afirmación,En28,28,,,,,,,,,0,48,48,48,,,,,,,2,0.399998750506,,,2018_may._03_1018,59.9719797998,Experimento Piloto1,001,103,
2.5,Stim\\05_019.jpg,En19_7,Enojo,7,Roberto contesta los cuestionarios solicitados.,Afirmación,En19,19,,,,,,,,,0,49,49,49,,,,,,,2,0.549925989789,,,2018_may._03_1018,59.9719797998,Experimento Piloto1,001,103,
2.5,Stim\\02_019.jpg,Al19_10,Alegría,10,Laura finaliza la obra.,Afirmación,Al19,19,,,,,,,,,0,50,50,50,,,,,,,3,1.15007137735,,,2018_may._03_1018,59.9719797998,Experimento Piloto1,001,103,
0.25,Stim\\05_028.jpg,En28_14,Enojo,14,Elizabeth elige la ropa un día antes.,Afirmación,En28,28,,,,,,,,,0,51,51,51,,,,,,,2,0.650192533648,,,2018_may._03_1018,59.9719797998,Experimento Piloto1,001,103,
2.5,Stim\\03_028.jpg,Tr28_8,Tristeza,8,Estefanía despierta a las 7 a.m.,Afirmación,Tr28,28,,,,,,,,,0,52,52,52,,,,,,,4,0.633742498015,,,2018_may._03_1018,59.9719797998,Experimento Piloto1,001,103,
0.25,Stim\\02_075.jpg,Al75_3,Alegría,3,Andrea diseña la portada del libro.,Afirmación,Al75,75,,,,,,,,,0,53,53,53,,,,,,,3,0.283623996891,,,2018_may._03_1018,59.9719797998,Experimento Piloto1,001,103,
0.25,Stim\\02_028.jpg,Al28_1,Alegría,1,Juan colecciona monedas antiguas.,Afirmación,Al28,28,,,,,,,,,0,54,54,54,,,,,,,3,0.601726890049,,,2018_may._03_1018,59.9719797998,Experimento Piloto1,001,103,
0.25,Stim\\03_028.jpg,Tr28_3,Tristeza,3,Andrea diseña la portada del libro.,Afirmación,Tr28,28,,,,,,,,,0,55,55,55,,,,,,,4,0.550354387755,,,2018_may._03_1018,59.9719797998,Experimento Piloto1,001,103,
2.5,Stim\\02_078.jpg,Al78_11,Alegría,11,María asiste a la cena.,Afirmación,Al78,78,,,,,,,,,0,56,56,56,,,,,,,3,0.333588140873,,,2018_may._03_1018,59.9719797998,Experimento Piloto1,001,103,
0.25,Stim\\03_019.jpg,Tr19_12,Tristeza,12,Ana compra el libro.,Afirmación,Tr19,19,,,,,,,,,0,57,57,57,,,,,,,4,0.333923273032,,,2018_may._03_1018,59.9719797998,Experimento Piloto1,001,103,
2.5,Stim\\02_078.jpg,Al78_14,Alegría,14,Elizabeth elige la ropa un día antes.,Afirmación,Al78,78,,,,,,,,,0,58,58,58,,,,,,,3,0.383734353992,,,2018_may._03_1018,59.9719797998,Experimento Piloto1,001,103,
0.25,Stim\\03_019.jpg,Tr19_2,Tristeza,2,Jonathan pasea al perro.,Afirmación,Tr19,19,,,,,,,,,0,59,59,59,,,,,,,4,0.600244454589,,,2018_may._03_1018,59.9719797998,Experimento Piloto1,001,103,
2.5,Stim\\03_078.jpg,Tr78_1,Tristeza,1,Juan colecciona monedas antiguas.,Afirmación,Tr78,78,,,,,,,,,0,60,60,60,,,,,,,4,0.500254138168,,,2018_may._03_1018,59.9719797998,Experimento Piloto1,001,103,
0.25,Stim\\03_078.jpg,Tr78_4,Tristeza,4,Jorge sustituye a Gustavo cada sábado.,Afirmación,Tr78,78,,,,,,,,,0,61,61,61,,,,,,,4,0.350342071313,,,2018_may._03_1018,59.9719797998,Experimento Piloto1,001,103,
0.25,Stim\\05_019.jpg,En19_14,Enojo,14,Elizabeth elige la ropa un día antes.,Afirmación,En19,19,,,,,,,,,0,62,62,62,,,,,,,2,0.333694794117,,,2018_may._03_1018,59.9719797998,Experimento Piloto1,001,103,
0.25,Stim\\02_075.jpg,Al75_15,Alegría,15,Ángel envía una carta a la abuela.,Afirmación,Al75,75,,,,,,,,,0,63,63,63,,,,,,,3,0.650477239796,,,2018_may._03_1018,59.9719797998,Experimento Piloto1,001,103,
2.5,Stim\\03_028.jpg,Tr28_2,Tristeza,2,Jonathan pasea al perro.,Afirmación,Tr28,28,,,,,,,,,0,64,64,64,,,,,,,4,0.750216764908,,,2018_may._03_1018,59.9719797998,Experimento Piloto1,001,103,
0.25,Stim\\05_028.jpg,En28_3,Enojo,3,Andrea diseña la portada del libro.,Afirmación,En28,28,,,,,,,,,0,65,65,65,,,,,,,2,0.950212570178,,,2018_may._03_1018,59.9719797998,Experimento Piloto1,001,103,
0.25,Stim\\05_078.jpg,En78_3,Enojo,3,Andrea diseña la portada del libro.,Afirmación,En78,78,,,,,,,,,0,66,66,66,,,,,,,2,0.333665788005,,,2018_may._03_1018,59.9719797998,Experimento Piloto1,001,103,
0.25,Stim\\05_075.jpg,En75_9,Enojo,9,Marco colabora en la organización del evento.,Afirmación,En75,75,,,,,,,,,0,67,67,67,,,,,,,2,0.54995321091,,,2018_may._03_1018,59.9719797998,Experimento Piloto1,001,103,
2.5,Stim\\05_075.jpg,En75_7,Enojo,7,Roberto contesta los cuestionarios solicitados.,Afirmación,En75,75,,,,,,,,,0,68,68,68,,,,,,,2,0.500098843906,,,2018_may._03_1018,59.9719797998,Experimento Piloto1,001,103,
0.25,Stim\\03_078.jpg,Tr78_14,Tristeza,14,Elizabeth elige la ropa un día antes.,Afirmación,Tr78,78,,,,,,,,,0,69,69,69,,,,,,,4,0.950185349057,,,2018_may._03_1018,59.9719797998,Experimento Piloto1,001,103,
2.5,Stim\\03_019.jpg,Tr19_5,Tristeza,5,Emilio revisa el formato del archivo.,Afirmación,Tr19,19,,,,,,,,,0,70,70,70,,,,,,,4,0.600369403996,,,2018_may._03_1018,59.9719797998,Experimento Piloto1,001,103,
2.5,Stim\\05_028.jpg,En28_13,Enojo,13,Rocío consume alimentos nutritivos.,Afirmación,En28,28,,,,,,,,,0,71,71,71,,,,,,,2,1.56671740505,,,2018_may._03_1018,59.9719797998,Experimento Piloto1,001,103,
0.25,Stim\\05_075.jpg,En75_15,Enojo,15,Ángel envía una carta a la abuela.,Afirmación,En75,75,,,,,,,,,0,72,72,72,,,,,,,2,0.60029264936,,,2018_may._03_1018,59.9719797998,Experimento Piloto1,001,103,
2.5,Stim\\05_019.jpg,En19_6,Enojo,6,Eduardo camina hacia la biblioteca.,Afirmación,En19,19,,,,,,,,,0,73,73,73,,,,,,,2,0.700260207139,,,2018_may._03_1018,59.9719797998,Experimento Piloto1,001,103,
2.5,Stim\\05_078.jpg,En78_10,Enojo,10,Laura finaliza la obra.,Afirmación,En78,78,,,,,,,,,0,74,74,74,,,,,,,2,0.350135904792,,,2018_may._03_1018,59.9719797998,Experimento Piloto1,001,103,
2.5,Stim\\05_019.jpg,En19_9,Enojo,9,Marco colabora en la organización del evento.,Afirmación,En19,19,,,,,,,,,0,75,75,75,,,,,,,2,0.600197598561,,,2018_may._03_1018,59.9719797998,Experimento Piloto1,001,103,
2.5,Stim\\02_078.jpg,Al78_6,Alegría,6,Eduardo camina hacia la biblioteca.,Afirmación,Al78,78,,,,,,,,,0,76,76,76,,,,,,,3,0.383911514401,,,2018_may._03_1018,59.9719797998,Experimento Piloto1,001,103,
2.5,Stim\\05_078.jpg,En78_13,Enojo,13,Rocío consume alimentos nutritivos.,Afirmación,En78,78,,,,,,,,,0,77,77,77,,,,,,,2,1.15012581959,,,2018_may._03_1018,59.9719797998,Experimento Piloto1,001,103,
0.25,Stim\\05_028.jpg,En28_2,Enojo,2,Jonathan pasea al perro.,Afirmación,En28,28,,,,,,,,,0,78,78,78,,,,,,,2,0.599990539545,,,2018_may._03_1018,59.9719797998,Experimento Piloto1,001,103,
0.25,Stim\\05_019.jpg,En19_6,Enojo,6,Eduardo camina hacia la biblioteca.,Afirmación,En19,19,,,,,,,,,0,79,79,79,,,,,,,2,0.449993685592,,,2018_may._03_1018,59.9719797998,Experimento Piloto1,001,103,
2.5,Stim\\03_019.jpg,Tr19_11,Tristeza,11,María asiste a la cena.,Afirmación,Tr19,19,,,,,,,,,0,80,80,80,,,,,,,4,0.600272121957,,,2018_may._03_1018,59.9719797998,Experimento Piloto1,001,103,
2.5,Stim\\05_028.jpg,En28_11,Enojo,11,María asiste a la cena.,Afirmación,En28,28,,,,,,,,,0,81,81,81,,,,,,,2,0.700286089517,,,2018_may._03_1018,59.9719797998,Experimento Piloto1,001,103,
0.25,Stim\\02_078.jpg,Al78_9,Alegría,9,Marco colabora en la organización del evento.,Afirmación,Al78,78,,,,,,,,,0,82,82,82,,,,,,,3,0.333643921858,,,2018_may._03_1018,59.9719797998,Experimento Piloto1,001,103,
0.25,Stim\\05_019.jpg,En19_13,Enojo,13,Rocío consume alimentos nutritivos.,Afirmación,En19,19,,,,,,,,,0,83,83,83,,,,,,,2,1.41628724441,,,2018_may._03_1018,59.9719797998,Experimento Piloto1,001,103,
0.25,Stim\\03_078.jpg,Tr78_11,Tristeza,11,María asiste a la cena.,Afirmación,Tr78,78,,,,,,,,,0,84,84,84,,,,,,,4,0.550281203102,,,2018_may._03_1018,59.9719797998,Experimento Piloto1,001,103,
2.5,Stim\\05_028.jpg,En28_5,Enojo,5,Emilio revisa el formato del archivo.,Afirmación,En28,28,,,,,,,,,0,85,85,85,,,,,,,2,0.76663333195,,,2018_may._03_1018,59.9719797998,Experimento Piloto1,001,103,
0.25,Stim\\03_028.jpg,Tr28_10,Tristeza,10,Laura finaliza la obra.,Afirmación,Tr28,28,,,,,,,,,0,86,86,86,,,,,,,4,0.550377592644,,,2018_may._03_1018,59.9719797998,Experimento Piloto1,001,103,
0.25,Stim\\05_019.jpg,En19_11,Enojo,11,María asiste a la cena.,Afirmación,En19,19,,,,,,,,,0,87,87,87,,,,,,,2,0.400409744805,,,2018_may._03_1018,59.9719797998,Experimento Piloto1,001,103,
2.5,Stim\\03_028.jpg,Tr28_9,Tristeza,9,Marco colabora en la organización del evento.,Afirmación,Tr28,28,,,,,,,,,0,88,88,88,,,,,,,4,0.700585968093,,,2018_may._03_1018,59.9719797998,Experimento Piloto1,001,103,
2.5,Stim\\05_019.jpg,En19_8,Enojo,8,Estefanía despierta a las 7 a.m.,Afirmación,En19,19,,,,,,,,,0,89,89,89,,,,,,,2,0.400578426503,,,2018_may._03_1018,59.9719797998,Experimento Piloto1,001,103,
0.25,Stim\\03_075.jpg,Tr75_9,Tristeza,9,Marco colabora en la organización del evento.,Afirmación,Tr75,75,,,,,,,,,0,90,90,90,,,,,,,4,0.600304698053,,,2018_may._03_1018,59.9719797998,Experimento Piloto1,001,103,
2.5,Stim\\02_075.jpg,Al75_3,Alegría,3,Andrea diseña la portada del libro.,Afirmación,Al75,75,,,,,,,,,0,91,91,91,,,,,,,3,0.399958141949,,,2018_may._03_1018,59.9719797998,Experimento Piloto1,001,103,
0.25,Stim\\05_028.jpg,En28_12,Enojo,12,Ana compra el libro.,Afirmación,En28,28,,,,,,,,,0,92,92,92,,,,,,,2,1.21673590203,,,2018_may._03_1018,59.9719797998,Experimento Piloto1,001,103,
0.25,Stim\\03_028.jpg,Tr28_7,Tristeza,7,Roberto contesta los cuestionarios solicitados.,Afirmación,Tr28,28,,,,,,,,,0,93,93,93,,,,,,,4,0.383627700748,,,2018_may._03_1018,59.9719797998,Experimento Piloto1,001,103,
0.25,Stim\\03_019.jpg,Tr19_8,Tristeza,8,Estefanía despierta a las 7 a.m.,Afirmación,Tr19,19,,,,,,,,,0,94,94,94,,,,,,,4,0.800260787261,,,2018_may._03_1018,59.9719797998,Experimento Piloto1,001,103,
0.25,Stim\\02_019.jpg,Al19_4,Alegría,4,Jorge sustituye a Gustavo cada sábado.,Afirmación,Al19,19,,,,,,,,,0,95,95,95,,,,,,,3,0.433651641947,,,2018_may._03_1018,59.9719797998,Experimento Piloto1,001,103,
2.5,Stim\\05_019.jpg,En19_15,Enojo,15,Ángel envía una carta a la abuela.,Afirmación,En19,19,,,,,,,,,0,96,96,96,,,,,,,2,0.533798591374,,,2018_may._03_1018,59.9719797998,Experimento Piloto1,001,103,
0.25,Stim\\05_075.jpg,En75_13,Enojo,13,Rocío consume alimentos nutritivos.,Afirmación,En75,75,,,,,,,,,0,97,97,97,,,,,,,2,0.65039423769,,,2018_may._03_1018,59.9719797998,Experimento Piloto1,001,103,
0.25,Stim\\02_078.jpg,Al78_7,Alegría,7,Roberto contesta los cuestionarios solicitados.,Afirmación,Al78,78,,,,,,,,,0,98,98,98,,,,,,,3,0.5002264708,,,2018_may._03_1018,59.9719797998,Experimento Piloto1,001,103,
2.5,Stim\\03_028.jpg,Tr28_3,Tristeza,3,Andrea diseña la portada del libro.,Afirmación,Tr28,28,,,,,,,,,0,99,99,99,,,,,,,4,0.450326140264,,,2018_may._03_1018,59.9719797998,Experimento Piloto1,001,103,
2.5,Stim\\05_075.jpg,En75_15,Enojo,15,Ángel envía una carta a la abuela.,Afirmación,En75,75,,,,,,,,,0,100,100,100,,,,,,,2,0.450294456664,,,2018_may._03_1018,59.9719797998,Experimento Piloto1,001,103,
0.25,Stim\\02_028.jpg,Al28_13,Alegría,13,Rocío consume alimentos nutritivos.,Afirmación,Al28,28,,,,,,,,,0,101,101,101,,,,,,,3,0.333782704949,,,2018_may._03_1018,59.9719797998,Experimento Piloto1,001,103,
0.25,Stim\\03_028.jpg,Tr28_15,Tristeza,15,Ángel envía una carta a la abuela.,Afirmación,Tr28,28,,,,,,,,,0,102,102,102,,,,,,,4,0.383692852939,,,2018_may._03_1018,59.9719797998,Experimento Piloto1,001,103,
0.25,Stim\\05_019.jpg,En19_2,Enojo,2,Jonathan pasea al perro.,Afirmación,En19,19,,,,,,,,,0,103,103,103,,,,,,,2,0.600348430346,,,2018_may._03_1018,59.9719797998,Experimento Piloto1,001,103,
0.25,Stim\\03_078.jpg,Tr78_13,Tristeza,13,Rocío consume alimentos nutritivos.,Afirmación,Tr78,78,,,,,,,,,0,104,104,104,,,,,,,4,0.966929015796,,,2018_may._03_1018,59.9719797998,Experimento Piloto1,001,103,
2.5,Stim\\03_075.jpg,Tr75_2,Tristeza,2,Jonathan pasea al perro.,Afirmación,Tr75,75,,,,,,,,,0,105,105,105,,,,,,,4,0.85018789267,,,2018_may._03_1018,59.9719797998,Experimento Piloto1,001,103,
2.5,Stim\\05_075.jpg,En75_10,Enojo,10,Laura finaliza la obra.,Afirmación,En75,75,,,,,,,,,0,106,106,106,,,,,,,2,0.533842323666,,,2018_may._03_1018,59.9719797998,Experimento Piloto1,001,103,
2.5,Stim\\05_028.jpg,En28_3,Enojo,3,Andrea diseña la portada del libro.,Afirmación,En28,28,,,,,,,,,0,107,107,107,,,,,,,2,0.483850958562,,,2018_may._03_1018,59.9719797998,Experimento Piloto1,001,103,
2.5,Stim\\02_078.jpg,Al78_8,Alegría,8,Estefanía despierta a las 7 a.m.,Afirmación,Al78,78,,,,,,,,,0,108,108,108,,,,,,,3,0.350290752807,,,2018_may._03_1018,59.9719797998,Experimento Piloto1,001,103,
2.5,Stim\\05_075.jpg,En75_2,Enojo,2,Jonathan pasea al perro.,Afirmación,En75,75,,,,,,,,,0,109,109,109,,,,,,,2,1.61625984479,,,2018_may._03_1018,59.9719797998,Experimento Piloto1,001,103,
0.25,Stim\\05_078.jpg,En78_2,Enojo,2,Jonathan pasea al perro.,Afirmación,En78,78,,,,,,,,,0,110,110,110,,,,,,,3,0.450365856325,,,2018_may._03_1018,59.9719797998,Experimento Piloto1,001,103,
2.5,Stim\\05_078.jpg,En78_14,Enojo,14,Elizabeth elige la ropa un día antes.,Afirmación,En78,78,,,,,,,,,0,111,111,111,,,,,,,2,0.750162322667,,,2018_may._03_1018,59.9719797998,Experimento Piloto1,001,103,
2.5,Stim\\05_028.jpg,En28_1,Enojo,1,Juan colecciona monedas antiguas.,Afirmación,En28,28,,,,,,,,,0,112,112,112,,,,,,,2,0.550352602763,,,2018_may._03_1018,59.9719797998,Experimento Piloto1,001,103,
0.25,Stim\\05_019.jpg,En19_12,Enojo,12,Ana compra el libro.,Afirmación,En19,19,,,,,,,,,0,113,113,113,,,,,,,2,0.550251750742,,,2018_may._03_1018,59.9719797998,Experimento Piloto1,001,103,
0.25,Stim\\02_075.jpg,Al75_13,Alegría,13,Rocío consume alimentos nutritivos.,Afirmación,Al75,75,,,,,,,,,0,114,114,114,,,,,,,3,0.700271809585,,,2018_may._03_1018,59.9719797998,Experimento Piloto1,001,103,
2.5,Stim\\03_019.jpg,Tr19_6,Tristeza,6,Eduardo camina hacia la biblioteca.,Afirmación,Tr19,19,,,,,,,,,0,115,115,115,,,,,,,4,0.650419227572,,,2018_may._03_1018,59.9719797998,Experimento Piloto1,001,103,
2.5,Stim\\05_028.jpg,En28_14,Enojo,14,Elizabeth elige la ropa un día antes.,Afirmación,En28,28,,,,,,,,,0,116,116,116,,,,,,,2,0.500283590528,,,2018_may._03_1018,59.9719797998,Experimento Piloto1,001,103,
2.5,Stim\\02_028.jpg,Al28_5,Alegría,5,Emilio revisa el formato del archivo.,Afirmación,Al28,28,,,,,,,,,0,117,117,117,,,,,,,3,0.433860039707,,,2018_may._03_1018,59.9719797998,Experimento Piloto1,001,103,
2.5,Stim\\02_078.jpg,Al78_9,Alegría,9,Marco colabora en la organización del evento.,Afirmación,Al78,78,,,,,,,,,0,118,118,118,,,,,,,3,0.433741337771,,,2018_may._03_1018,59.9719797998,Experimento Piloto1,001,103,
0.25,Stim\\03_019.jpg,Tr19_3,Tristeza,3,Andrea diseña la portada del libro.,Afirmación,Tr19,19,,,,,,,,,0,119,119,119,,,,,,,4,0.350456310771,,,2018_may._03_1018,59.9719797998,Experimento Piloto1,001,103,
0.25,Stim\\03_028.jpg,Tr28_2,Tristeza,2,Jonathan pasea al perro.,Afirmación,Tr28,28,,,,,,,,,,,,,0,0,0,0,,,,,4,0.716617423212,2018_may._03_1018,59.9719797998,Experimento Piloto1,001,103,
2.5,Stim\\05_075.jpg,En75_12,Enojo,12,Ana compra el libro.,Afirmación,En75,75,,,,,,,,,,,,,0,1,1,1,,,,,2,0.750132424058,2018_may._03_1018,59.9719797998,Experimento Piloto1,001,103,
0.25,Stim\\02_078.jpg,Al78_11,Alegría,11,María asiste a la cena.,Afirmación,Al78,78,,,,,,,,,,,,,0,2,2,2,,,,,3,0.350390712331,2018_may._03_1018,59.9719797998,Experimento Piloto1,001,103,
0.25,Stim\\02_078.jpg,Al78_8,Alegría,8,Estefanía despierta a las 7 a.m.,Afirmación,Al78,78,,,,,,,,,,,,,0,3,3,3,,,,,3,0.850347649412,2018_may._03_1018,59.9719797998,Experimento Piloto1,001,103,
0.25,Stim\\05_028.jpg,En28_6,Enojo,6,Eduardo camina hacia la biblioteca.,Afirmación,En28,28,,,,,,,,,,,,,0,4,4,4,,,,,2,0.600243115846,2018_may._03_1018,59.9719797998,Experimento Piloto1,001,103,
0.25,Stim\\02_019.jpg,Al19_14,Alegría,14,Elizabeth elige la ropa un día antes.,Afirmación,Al19,19,,,,,,,,,,,,,0,5,5,5,,,,,3,0.349891807201,2018_may._03_1018,59.9719797998,Experimento Piloto1,001,103,
2.5,Stim\\05_078.jpg,En78_1,Enojo,1,Juan colecciona monedas antiguas.,Afirmación,En78,78,,,,,,,,,,,,,0,6,6,6,,,,,2,0.750731288715,2018_may._03_1018,59.9719797998,Experimento Piloto1,001,103,
2.5,Stim\\02_078.jpg,Al78_15,Alegría,15,Ángel envía una carta a la abuela.,Afirmación,Al78,78,,,,,,,,,,,,,0,7,7,7,,,,,3,0.35038491111,2018_may._03_1018,59.9719797998,Experimento Piloto1,001,103,
0.25,Stim\\02_075.jpg,Al75_14,Alegría,14,Elizabeth elige la ropa un día antes.,Afirmación,Al75,75,,,,,,,,,,,,,0,8,8,8,,,,,3,0.550287896821,2018_may._03_1018,59.9719797998,Experimento Piloto1,001,103,
2.5,Stim\\02_075.jpg,Al75_2,Alegría,2,Jonathan pasea al perro.,Afirmación,Al75,75,,,,,,,,,,,,,0,9,9,9,,,,,3,1.46664899525,2018_may._03_1018,59.9719797998,Experimento Piloto1,001,103,
0.25,Stim\\05_075.jpg,En75_12,Enojo,12,Ana compra el libro.,Afirmación,En75,75,,,,,,,,,,,,,0,10,10,10,,,,,3,0.650286691951,2018_may._03_1018,59.9719797998,Experimento Piloto1,001,103,
2.5,Stim\\03_078.jpg,Tr78_8,Tristeza,8,Estefanía despierta a las 7 a.m.,Afirmación,Tr78,78,,,,,,,,,,,,,0,11,11,11,,,,,4,0.700390957769,2018_may._03_1018,59.9719797998,Experimento Piloto1,001,103,
0.25,Stim\\03_078.jpg,Tr78_15,Tristeza,15,Ángel envía una carta a la abuela.,Afirmación,Tr78,78,,,,,,,,,,,,,0,12,12,12,,,,,4,0.650235373445,2018_may._03_1018,59.9719797998,Experimento Piloto1,001,103,
0.25,Stim\\03_078.jpg,Tr78_5,Tristeza,5,Emilio revisa el formato del archivo.,Afirmación,Tr78,78,,,,,,,,,,,,,0,13,13,13,,,,,4,0.500339817761,2018_may._03_1018,59.9719797998,Experimento Piloto1,001,103,
2.5,Stim\\02_019.jpg,Al19_5,Alegría,5,Emilio revisa el formato del archivo.,Afirmación,Al19,19,,,,,,,,,,,,,0,14,14,14,,,,,3,0.916579759892,2018_may._03_1018,59.9719797998,Experimento Piloto1,001,103,
2.5,Stim\\03_075.jpg,Tr75_10,Tristeza,10,Laura finaliza la obra.,Afirmación,Tr75,75,,,,,,,,,,,,,0,15,15,15,,,,,4,1.00009058832,2018_may._03_1018,59.9719797998,Experimento Piloto1,001,103,
2.5,Stim\\03_075.jpg,Tr75_4,Tristeza,4,Jorge sustituye a Gustavo cada sábado.,Afirmación,Tr75,75,,,,,,,,,,,,,0,16,16,16,,,,,4,0.450342205188,2018_may._03_1018,59.9719797998,Experimento Piloto1,001,103,
0.25,Stim\\03_028.jpg,Tr28_5,Tristeza,5,Emilio revisa el formato del archivo.,Afirmación,Tr28,28,,,,,,,,,,,,,0,17,17,17,,,,,4,0.400260698012,2018_may._03_1018,59.9719797998,Experimento Piloto1,001,103,
0.25,Stim\\05_075.jpg,En75_11,Enojo,11,María asiste a la cena.,Afirmación,En75,75,,,,,,,,,,,,,0,18,18,18,,,,,2,0.450278391741,2018_may._03_1018,59.9719797998,Experimento Piloto1,001,103,
0.25,Stim\\02_075.jpg,Al75_6,Alegría,6,Eduardo camina hacia la biblioteca.,Afirmación,Al75,75,,,,,,,,,,,,,0,19,19,19,,,,,3,1.46663783905,2018_may._03_1018,59.9719797998,Experimento Piloto1,001,103,
0.25,Stim\\05_078.jpg,En78_1,Enojo,1,Juan colecciona monedas antiguas.,Afirmación,En78,78,,,,,,,,,,,,,0,20,20,20,,,,,2,1.266754042,2018_may._03_1018,59.9719797998,Experimento Piloto1,001,103,
2.5,Stim\\03_019.jpg,Tr19_4,Tristeza,4,Jorge sustituye a Gustavo cada sábado.,Afirmación,Tr19,19,,,,,,,,,,,,,0,21,21,21,,,,,4,0.916894810895,2018_may._03_1018,59.9719797998,Experimento Piloto1,001,103,
0.25,Stim\\03_028.jpg,Tr28_11,Tristeza,11,María asiste a la cena.,Afirmación,Tr28,28,,,,,,,,,,,,,0,22,22,22,,,,,4,0.500190324721,2018_may._03_1018,59.9719797998,Experimento Piloto1,001,103,
0.25,Stim\\02_019.jpg,Al19_7,Alegría,7,Roberto contesta los cuestionarios solicitados.,Afirmación,Al19,19,,,,,,,,,,,,,0,23,23,23,,,,,3,1.05012345448,2018_may._03_1018,59.9719797998,Experimento Piloto1,001,103,
0.25,Stim\\05_028.jpg,En28_1,Enojo,1,Juan colecciona monedas antiguas.,Afirmación,En28,28,,,,,,,,,,,,,0,24,24,24,,,,,2,0.333895605663,2018_may._03_1018,59.9719797998,Experimento Piloto1,001,103,
0.25,Stim\\03_019.jpg,Tr19_6,Tristeza,6,Eduardo camina hacia la biblioteca.,Afirmación,Tr19,19,,,,,,,,,,,,,0,25,25,25,,,,,4,2.1998003487,2018_may._03_1018,59.9719797998,Experimento Piloto1,001,103,
0.25,Stim\\03_078.jpg,Tr78_7,Tristeza,7,Roberto contesta los cuestionarios solicitados.,Afirmación,Tr78,78,,,,,,,,,,,,,0,26,26,26,,,,,4,0.500264848117,2018_may._03_1018,59.9719797998,Experimento Piloto1,001,103,
2.5,Stim\\03_019.jpg,Tr19_15,Tristeza,15,Ángel envía una carta a la abuela.,Afirmación,Tr19,19,,,,,,,,,,,,,0,27,27,27,,,,,4,0.750189990035,2018_may._03_1018,59.9719797998,Experimento Piloto1,001,103,
2.5,Stim\\02_028.jpg,Al28_4,Alegría,4,Jorge sustituye a Gustavo cada sábado.,Afirmación,Al28,28,,,,,,,,,,,,,0,28,28,28,,,,,3,0.433676631828,2018_may._03_1018,59.9719797998,Experimento Piloto1,001,103,
2.5,Stim\\03_078.jpg,Tr78_5,Tristeza,5,Emilio revisa el formato del archivo.,Afirmación,Tr78,78,,,,,,,,,,,,,0,29,29,29,,,,,4,0.65023448095,2018_may._03_1018,59.9719797998,Experimento Piloto1,001,103,
2.5,Stim\\03_028.jpg,Tr28_12,Tristeza,12,Ana compra el libro.,Afirmación,Tr28,28,,,,,,,,,,,,,0,30,30,30,,,,,4,0.700325359329,2018_may._03_1018,59.9719797998,Experimento Piloto1,001,103,
0.25,Stim\\02_028.jpg,Al28_2,Alegría,2,Jonathan pasea al perro.,Afirmación,Al28,28,,,,,,,,,,,,,0,31,31,31,,,,,3,0.400314694006,2018_may._03_1018,59.9719797998,Experimento Piloto1,001,103,
0.25,Stim\\05_019.jpg,En19_8,Enojo,8,Estefanía despierta a las 7 a.m.,Afirmación,En19,19,,,,,,,,,,,,,0,32,32,32,,,,,2,0.600174839919,2018_may._03_1018,59.9719797998,Experimento Piloto1,001,103,
0.25,Stim\\03_019.jpg,Tr19_9,Tristeza,9,Marco colabora en la organización del evento.,Afirmación,Tr19,19,,,,,,,,,,,,,0,33,33,33,,,,,2,3.31598633946,2018_may._03_1018,59.9719797998,Experimento Piloto1,001,103,
2.5,Stim\\02_078.jpg,Al78_10,Alegría,10,Laura finaliza la obra.,Afirmación,Al78,78,,,,,,,,,,,,,0,34,34,34,,,,,3,0.300315452628,2018_may._03_1018,59.9719797998,Experimento Piloto1,001,103,
2.5,Stim\\02_075.jpg,Al75_15,Alegría,15,Ángel envía una carta a la abuela.,Afirmación,Al75,75,,,,,,,,,,,,,0,35,35,35,,,,,3,0.850111138036,2018_may._03_1018,59.9719797998,Experimento Piloto1,001,103,
2.5,Stim\\03_028.jpg,Tr28_6,Tristeza,6,Eduardo camina hacia la biblioteca.,Afirmación,Tr28,28,,,,,,,,,,,,,0,36,36,36,,,,,4,0.650283121969,2018_may._03_1018,59.9719797998,Experimento Piloto1,001,103,
0.25,Stim\\03_075.jpg,Tr75_14,Tristeza,14,Elizabeth elige la ropa un día antes.,Afirmación,Tr75,75,,,,,,,,,,,,,0,37,37,37,,,,,4,0.966887960991,2018_may._03_1018,59.9719797998,Experimento Piloto1,001,103,
2.5,Stim\\05_075.jpg,En75_13,Enojo,13,Rocío consume alimentos nutritivos.,Afirmación,En75,75,,,,,,,,,,,,,0,38,38,38,,,,,2,0.649983243392,2018_may._03_1018,59.9719797998,Experimento Piloto1,001,103,
2.5,Stim\\03_075.jpg,Tr75_8,Tristeza,8,Estefanía despierta a las 7 a.m.,Afirmación,Tr75,75,,,,,,,,,,,,,0,39,39,39,,,,,4,0.500244766962,2018_may._03_1018,59.9719797998,Experimento Piloto1,001,103,
0.25,Stim\\05_075.jpg,En75_7,Enojo,7,Roberto contesta los cuestionarios solicitados.,Afirmación,En75,75,,,,,,,,,,,,,0,40,40,40,,,,,2,0.533598226076,2018_may._03_1018,59.9719797998,Experimento Piloto1,001,103,
2.5,Stim\\03_019.jpg,Tr19_10,Tristeza,10,Laura finaliza la obra.,Afirmación,Tr19,19,,,,,,,,,,,,,0,41,41,41,,,,,4,0.766800674905,2018_may._03_1018,59.9719797998,Experimento Piloto1,001,103,
2.5,Stim\\03_019.jpg,Tr19_2,Tristeza,2,Jonathan pasea al perro.,Afirmación,Tr19,19,,,,,,,,,,,,,0,42,42,42,,,,,4,0.300329732559,2018_may._03_1018,59.9719797998,Experimento Piloto1,001,103,
0.25,Stim\\03_075.jpg,Tr75_15,Tristeza,15,Ángel envía una carta a la abuela.,Afirmación,Tr75,75,,,,,,,,,,,,,0,43,43,43,,,,,4,0.500397829986,2018_may._03_1018,59.9719797998,Experimento Piloto1,001,103,
0.25,Stim\\05_019.jpg,En19_1,Enojo,1,Juan colecciona monedas antiguas.,Afirmación,En19,19,,,,,,,,,,,,,0,44,44,44,,,,,2,0.283638723071,2018_may._03_1018,59.9719797998,Experimento Piloto1,001,103,
0.25,Stim\\03_078.jpg,Tr78_2,Tristeza,2,Jonathan pasea al perro.,Afirmación,Tr78,78,,,,,,,,,,,,,0,45,45,45,,,,,4,0.283748053802,2018_may._03_1018,59.9719797998,Experimento Piloto1,001,103,
2.5,Stim\\02_019.jpg,Al19_9,Alegría,9,Marco colabora en la organización del evento.,Afirmación,Al19,19,,,,,,,,,,,,,0,46,46,46,,,,,3,0.800152349027,2018_may._03_1018,59.9719797998,Experimento Piloto1,001,103,
2.5,Stim\\03_028.jpg,Tr28_11,Tristeza,11,María asiste a la cena.,Afirmación,Tr28,28,,,,,,,,,,,,,0,47,47,47,,,,,4,0.333660879278,2018_may._03_1018,59.9719797998,Experimento Piloto1,001,103,
2.5,Stim\\05_078.jpg,En78_6,Enojo,6,Eduardo camina hacia la biblioteca.,Afirmación,En78,78,,,,,,,,,,,,,0,48,48,48,,,,,2,0.433596307209,2018_may._03_1018,59.9719797998,Experimento Piloto1,001,103,
2.5,Stim\\02_028.jpg,Al28_14,Alegría,14,Elizabeth elige la ropa un día antes.,Afirmación,Al28,28,,,,,,,,,,,,,0,49,49,49,,,,,3,0.50022022333,2018_may._03_1018,59.9719797998,Experimento Piloto1,001,103,
0.25,Stim\\03_019.jpg,Tr19_10,Tristeza,10,Laura finaliza la obra.,Afirmación,Tr19,19,,,,,,,,,,,,,0,50,50,50,,,,,4,0.550295929282,2018_may._03_1018,59.9719797998,Experimento Piloto1,001,103,
2.5,Stim\\05_019.jpg,En19_2,Enojo,2,Jonathan pasea al perro.,Afirmación,En19,19,,,,,,,,,,,,,0,51,51,51,,,,,2,0.400346377605,2018_may._03_1018,59.9719797998,Experimento Piloto1,001,103,
0.25,Stim\\05_078.jpg,En78_5,Enojo,5,Emilio revisa el formato del archivo.,Afirmación,En78,78,,,,,,,,,,,,,0,52,52,52,,,,,2,1.0002200002,2018_may._03_1018,59.9719797998,Experimento Piloto1,001,103,
2.5,Stim\\02_075.jpg,Al75_5,Alegría,5,Emilio revisa el formato del archivo.,Afirmación,Al75,75,,,,,,,,,,,,,0,53,53,53,,,,,3,0.53366471701,2018_may._03_1018,59.9719797998,Experimento Piloto1,001,103,
0.25,Stim\\05_028.jpg,En28_9,Enojo,9,Marco colabora en la organización del evento.,Afirmación,En28,28,,,,,,,,,,,,,0,54,54,54,,,,,2,1.31688552894,2018_may._03_1018,59.9719797998,Experimento Piloto1,001,103,
2.5,Stim\\03_019.jpg,Tr19_1,Tristeza,1,Juan colecciona monedas antiguas.,Afirmación,Tr19,19,,,,,,,,,,,,,0,55,55,55,,,,,4,0.400021509148,2018_may._03_1018,59.9719797998,Experimento Piloto1,001,103,
0.25,Stim\\02_028.jpg,Al28_3,Alegría,3,Andrea diseña la portada del libro.,Afirmación,Al28,28,,,,,,,,,,,,,0,56,56,56,,,,,3,0.233888331823,2018_may._03_1018,59.9719797998,Experimento Piloto1,001,103,
0.25,Stim\\05_028.jpg,En28_5,Enojo,5,Emilio revisa el formato del archivo.,Afirmación,En28,28,,,,,,,,,,,,,0,57,57,57,,,,,2,0.350287629071,2018_may._03_1018,59.9719797998,Experimento Piloto1,001,103,
2.5,Stim\\03_078.jpg,Tr78_15,Tristeza,15,Ángel envía una carta a la abuela.,Afirmación,Tr78,78,,,,,,,,,,,,,0,58,58,58,,,,,4,0.383621453278,2018_may._03_1018,59.9719797998,Experimento Piloto1,001,103,
0.25,Stim\\02_078.jpg,Al78_10,Alegría,10,Laura finaliza la obra.,Afirmación,Al78,78,,,,,,,,,,,,,0,59,59,59,,,,,3,0.300337765021,2018_may._03_1018,59.9719797998,Experimento Piloto1,001,103,
0.25,Stim\\03_075.jpg,Tr75_7,Tristeza,7,Roberto contesta los cuestionarios solicitados.,Afirmación,Tr75,75,,,,,,,,,,,,,0,60,60,60,,,,,4,0.700366414136,2018_may._03_1018,59.9719797998,Experimento Piloto1,001,103,
0.25,Stim\\03_075.jpg,Tr75_5,Tristeza,5,Emilio revisa el formato del archivo.,Afirmación,Tr75,75,,,,,,,,,,,,,0,61,61,61,,,,,4,0.300376588587,2018_may._03_1018,59.9719797998,Experimento Piloto1,001,103,
0.25,Stim\\05_075.jpg,En75_14,Enojo,14,Elizabeth elige la ropa un día antes.,Afirmación,En75,75,,,,,,,,,,,,,0,62,62,62,,,,,2,0.333853658363,2018_may._03_1018,59.9719797998,Experimento Piloto1,001,103,
0.25,Stim\\05_075.jpg,En75_2,Enojo,2,Jonathan pasea al perro.,Afirmación,En75,75,,,,,,,,,,,,,0,63,63,63,,,,,2,0.383915530631,2018_may._03_1018,59.9719797998,Experimento Piloto1,001,103,
0.25,Stim\\02_078.jpg,Al78_6,Alegría,6,Eduardo camina hacia la biblioteca.,Afirmación,Al78,78,,,,,,,,,,,,,0,64,64,64,,,,,3,0.250392363449,2018_may._03_1018,59.9719797998,Experimento Piloto1,001,103,
0.25,Stim\\03_075.jpg,Tr75_4,Tristeza,4,Jorge sustituye a Gustavo cada sábado.,Afirmación,Tr75,75,,,,,,,,,,,,,0,65,65,65,,,,,4,0.383866443364,2018_may._03_1018,59.9719797998,Experimento Piloto1,001,103,
0.25,Stim\\03_075.jpg,Tr75_3,Tristeza,3,Andrea diseña la portada del libro.,Afirmación,Tr75,75,,,,,,,,,,,,,0,66,66,66,,,,,3,0.300415858401,2018_may._03_1018,59.9719797998,Experimento Piloto1,001,103,
0.25,Stim\\02_028.jpg,Al28_10,Alegría,10,Laura finaliza la obra.,Afirmación,Al28,28,,,,,,,,,,,,,0,67,67,67,,,,,3,0.333590372113,2018_may._03_1018,59.9719797998,Experimento Piloto1,001,103,
0.25,Stim\\03_028.jpg,Tr28_12,Tristeza,12,Ana compra el libro.,Afirmación,Tr28,28,,,,,,,,,,,,,0,68,68,68,,,,,4,0.283732881374,2018_may._03_1018,59.9719797998,Experimento Piloto1,001,103,
0.25,Stim\\03_075.jpg,Tr75_10,Tristeza,10,Laura finaliza la obra.,Afirmación,Tr75,75,,,,,,,,,,,,,0,69,69,69,,,,,4,0.350130996066,2018_may._03_1018,59.9719797998,Experimento Piloto1,001,103,
0.25,Stim\\02_028.jpg,Al28_8,Alegría,8,Estefanía despierta a las 7 a.m.,Afirmación,Al28,28,,,,,,,,,,,,,0,70,70,70,,,,,3,0.333738526409,2018_may._03_1018,59.9719797998,Experimento Piloto1,001,103,
0.25,Stim\\05_078.jpg,En78_14,Enojo,14,Elizabeth elige la ropa un día antes.,Afirmación,En78,78,,,,,,,,,,,,,0,71,71,71,,,,,2,0.400373598726,2018_may._03_1018,59.9719797998,Experimento Piloto1,001,103,
2.5,Stim\\03_078.jpg,Tr78_9,Tristeza,9,Marco colabora en la organización del evento.,Afirmación,Tr78,78,,,,,,,,,,,,,0,72,72,72,,,,,4,0.650263487061,2018_may._03_1018,59.9719797998,Experimento Piloto1,001,103,
0.25,Stim\\02_019.jpg,Al19_3,Alegría,3,Andrea diseña la portada del libro.,Afirmación,Al19,19,,,,,,,,,,,,,0,73,73,73,,,,,3,0.43368689553,2018_may._03_1018,59.9719797998,Experimento Piloto1,001,103,
0.25,Stim\\03_078.jpg,Tr78_6,Tristeza,6,Eduardo camina hacia la biblioteca.,Afirmación,Tr78,78,,,,,,,,,,,,,0,74,74,74,,,,,2,1.56656389578,2018_may._03_1018,59.9719797998,Experimento Piloto1,001,103,
0.25,Stim\\03_028.jpg,Tr28_8,Tristeza,8,Estefanía despierta a las 7 a.m.,Afirmación,Tr28,28,,,,,,,,,,,,,0,75,75,75,,,,,3,0.283810528505,2018_may._03_1018,59.9719797998,Experimento Piloto1,001,103,
2.5,Stim\\05_078.jpg,En78_9,Enojo,9,Marco colabora en la organización del evento.,Afirmación,En78,78,,,,,,,,,,,,,0,76,76,76,,,,,2,0.849983064893,2018_may._03_1018,59.9719797998,Experimento Piloto1,001,103,
2.5,Stim\\02_028.jpg,Al28_6,Alegría,6,Eduardo camina hacia la biblioteca.,Afirmación,Al28,28,,,,,,,,,,,,,0,77,77,77,,,,,3,0.483925481959,2018_may._03_1018,59.9719797998,Experimento Piloto1,001,103,
2.5,Stim\\03_078.jpg,Tr78_6,Tristeza,6,Eduardo camina hacia la biblioteca.,Afirmación,Tr78,78,,,,,,,,,,,,,0,78,78,78,,,,,4,0.700299030706,2018_may._03_1018,59.9719797998,Experimento Piloto1,001,103,
2.5,Stim\\02_078.jpg,Al78_2,Alegría,2,Jonathan pasea al perro.,Afirmación,Al78,78,,,,,,,,,,,,,0,79,79,79,,,,,3,0.450206545832,2018_may._03_1018,59.9719797998,Experimento Piloto1,001,103,
2.5,Stim\\02_028.jpg,Al28_10,Alegría,10,Laura finaliza la obra.,Afirmación,Al28,28,,,,,,,,,,,,,0,80,80,80,,,,,3,0.450274375509,2018_may._03_1018,59.9719797998,Experimento Piloto1,001,103,
2.5,Stim\\02_019.jpg,Al19_15,Alegría,15,Ángel envía una carta a la abuela.,Afirmación,Al19,19,,,,,,,,,,,,,0,81,81,81,,,,,3,0.333666234252,2018_may._03_1018,59.9719797998,Experimento Piloto1,001,103,
0.25,Stim\\03_019.jpg,Tr19_5,Tristeza,5,Emilio revisa el formato del archivo.,Afirmación,Tr19,19,,,,,,,,,,,,,0,82,82,82,,,,,3,0.600333257918,2018_may._03_1018,59.9719797998,Experimento Piloto1,001,103,
0.25,Stim\\02_075.jpg,Al75_12,Alegría,12,Ana compra el libro.,Afirmación,Al75,75,,,,,,,,,,,,,0,83,83,83,,,,,3,0.23368885902,2018_may._03_1018,59.9719797998,Experimento Piloto1,001,103,
2.5,Stim\\05_078.jpg,En78_3,Enojo,3,Andrea diseña la portada del libro.,Afirmación,En78,78,,,,,,,,,,,,,0,84,84,84,,,,,2,0.65024251341,2018_may._03_1018,59.9719797998,Experimento Piloto1,001,103,
2.5,Stim\\03_075.jpg,Tr75_5,Tristeza,5,Emilio revisa el formato del archivo.,Afirmación,Tr75,75,,,,,,,,,,,,,0,85,85,85,,,,,4,0.650281783224,2018_may._03_1018,59.9719797998,Experimento Piloto1,001,103,
2.5,Stim\\05_028.jpg,En28_2,Enojo,2,Jonathan pasea al perro.,Afirmación,En28,28,,,,,,,,,,,,,0,86,86,86,,,,,2,0.400337898895,2018_may._03_1018,59.9719797998,Experimento Piloto1,001,103,
0.25,Stim\\03_028.jpg,Tr28_9,Tristeza,9,Marco colabora en la organización del evento.,Afirmación,Tr28,28,,,,,,,,,,,,,0,87,87,87,,,,,4,0.400264714242,2018_may._03_1018,59.9719797998,Experimento Piloto1,001,103,
0.25,Stim\\03_078.jpg,Tr78_9,Tristeza,9,Marco colabora en la organización del evento.,Afirmación,Tr78,78,,,,,,,,,,,,,0,88,88,88,,,,,4,1.01683782504,2018_may._03_1018,59.9719797998,Experimento Piloto1,001,103,
2.5,Stim\\03_075.jpg,Tr75_12,Tristeza,12,Ana compra el libro.,Afirmación,Tr75,75,,,,,,,,,,,,,0,89,89,89,,,,,4,0.500572312908,2018_may._03_1018,59.9719797998,Experimento Piloto1,001,103,
2.5,Stim\\05_078.jpg,En78_11,Enojo,11,María asiste a la cena.,Afirmación,En78,78,,,,,,,,,,,,,0,90,90,90,,,,,2,0.400303984056,2018_may._03_1018,59.9719797998,Experimento Piloto1,001,103,
2.5,Stim\\02_075.jpg,Al75_14,Alegría,14,Elizabeth elige la ropa un día antes.,Afirmación,Al75,75,,,,,,,,,,,,,0,91,91,91,,,,,3,0.599989647048,2018_may._03_1018,59.9719797998,Experimento Piloto1,001,103,
0.25,Stim\\03_019.jpg,Tr19_7,Tristeza,7,Roberto contesta los cuestionarios solicitados.,Afirmación,Tr19,19,,,,,,,,,,,,,0,92,92,92,,,,,4,0.650467422342,2018_may._03_1018,59.9719797998,Experimento Piloto1,001,103,
0.25,Stim\\05_075.jpg,En75_5,Enojo,5,Emilio revisa el formato del archivo.,Afirmación,En75,75,,,,,,,,,,,,,0,93,93,93,,,,,2,0.383591108422,2018_may._03_1018,59.9719797998,Experimento Piloto1,001,103,
2.5,Stim\\05_019.jpg,En19_14,Enojo,14,Elizabeth elige la ropa un día antes.,Afirmación,En19,19,,,,,,,,,,,,,0,94,94,94,,,,,2,1.73325577545,2018_may._03_1018,59.9719797998,Experimento Piloto1,001,103,
0.25,Stim\\02_075.jpg,Al75_2,Alegría,2,Jonathan pasea al perro.,Afirmación,Al75,75,,,,,,,,,,,,,0,95,95,95,,,,,3,0.300619793681,2018_may._03_1018,59.9719797998,Experimento Piloto1,001,103,
2.5,Stim\\03_028.jpg,Tr28_10,Tristeza,10,Laura finaliza la obra.,Afirmación,Tr28,28,,,,,,,,,,,,,0,96,96,96,,,,,4,0.483805887527,2018_may._03_1018,59.9719797998,Experimento Piloto1,001,103,
2.5,Stim\\02_078.jpg,Al78_3,Alegría,3,Andrea diseña la portada del libro.,Afirmación,Al78,78,,,,,,,,,,,,,0,97,97,97,,,,,3,0.333888911945,2018_may._03_1018,59.9719797998,Experimento Piloto1,001,103,
2.5,Stim\\05_075.jpg,En75_3,Enojo,3,Andrea diseña la portada del libro.,Afirmación,En75,75,,,,,,,,,,,,,0,98,98,98,,,,,2,0.600356462807,2018_may._03_1018,59.9719797998,Experimento Piloto1,001,103,
2.5,Stim\\03_075.jpg,Tr75_3,Tristeza,3,Andrea diseña la portada del libro.,Afirmación,Tr75,75,,,,,,,,,,,,,0,99,99,99,,,,,4,0.433631560792,2018_may._03_1018,59.9719797998,Experimento Piloto1,001,103,
2.5,Stim\\03_075.jpg,Tr75_7,Tristeza,7,Roberto contesta los cuestionarios solicitados.,Afirmación,Tr75,75,,,,,,,,,,,,,0,100,100,100,,,,,4,0.450253848107,2018_may._03_1018,59.9719797998,Experimento Piloto1,001,103,
2.5,Stim\\03_019.jpg,Tr19_14,Tristeza,14,Elizabeth elige la ropa un día antes.,Afirmación,Tr19,19,,,,,,,,,,,,,0,101,101,101,,,,,4,0.600359586542,2018_may._03_1018,59.9719797998,Experimento Piloto1,001,103,
2.5,Stim\\05_078.jpg,En78_5,Enojo,5,Emilio revisa el formato del archivo.,Afirmación,En78,78,,,,,,,,,,,,,0,102,102,102,,,,,2,0.850186107679,2018_may._03_1018,59.9719797998,Experimento Piloto1,001,103,
2.5,Stim\\02_078.jpg,Al78_12,Alegría,12,Ana compra el libro.,Afirmación,Al78,78,,,,,,,,,,,,,0,103,103,103,,,,,3,0.383669648048,2018_may._03_1018,59.9719797998,Experimento Piloto1,001,103,
2.5,Stim\\02_028.jpg,Al28_13,Alegría,13,Rocío consume alimentos nutritivos.,Afirmación,Al28,28,,,,,,,,,,,,,0,104,104,104,,,,,3,0.300198535681,2018_may._03_1018,59.9719797998,Experimento Piloto1,001,103,
2.5,Stim\\05_028.jpg,En28_4,Enojo,4,Jorge sustituye a Gustavo cada sábado.,Afirmación,En28,28,,,,,,,,,,,,,0,105,105,105,,,,,2,0.450301150382,2018_may._03_1018,59.9719797998,Experimento Piloto1,001,103,
0.25,Stim\\02_028.jpg,Al28_7,Alegría,7,Roberto contesta los cuestionarios solicitados.,Afirmación,Al28,28,,,,,,,,,,,,,0,106,106,106,,,,,3,0.233795958511,2018_may._03_1018,59.9719797998,Experimento Piloto1,001,103,
0.25,Stim\\02_078.jpg,Al78_12,Alegría,12,Ana compra el libro.,Afirmación,Al78,78,,,,,,,,,,,,,0,107,107,107,,,,,3,0.300402470963,2018_may._03_1018,59.9719797998,Experimento Piloto1,001,103,
2.5,Stim\\02_028.jpg,Al28_7,Alegría,7,Roberto contesta los cuestionarios solicitados.,Afirmación,Al28,28,,,,,,,,,,,,,0,108,108,108,,,,,3,0.300223525564,2018_may._03_1018,59.9719797998,Experimento Piloto1,001,103,
0.25,Stim\\02_075.jpg,Al75_7,Alegría,7,Roberto contesta los cuestionarios solicitados.,Afirmación,Al75,75,,,,,,,,,,,,,0,109,109,109,,,,,3,0.250289280189,2018_may._03_1018,59.9719797998,Experimento Piloto1,001,103,
0.25,Stim\\05_075.jpg,En75_10,Enojo,10,Laura finaliza la obra.,Afirmación,En75,75,,,,,,,,,,,,,0,110,110,110,,,,,2,0.300320807602,2018_may._03_1018,59.9719797998,Experimento Piloto1,001,103,
2.5,Stim\\05_028.jpg,En28_8,Enojo,8,Estefanía despierta a las 7 a.m.,Afirmación,En28,28,,,,,,,,,,,,,0,111,111,111,,,,,2,0.650242959658,2018_may._03_1018,59.9719797998,Experimento Piloto1,001,103,
0.25,Stim\\03_075.jpg,Tr75_6,Tristeza,6,Eduardo camina hacia la biblioteca.,Afirmación,Tr75,75,,,,,,,,,,,,,0,112,112,112,,,,,4,0.283664605447,2018_may._03_1018,59.9719797998,Experimento Piloto1,001,103,
0.25,Stim\\02_078.jpg,Al78_4,Alegría,4,Jorge sustituye a Gustavo cada sábado.,Afirmación,Al78,78,,,,,,,,,,,,,0,113,113,113,,,,,3,0.350371077425,2018_may._03_1018,59.9719797998,Experimento Piloto1,001,103,
2.5,Stim\\02_019.jpg,Al19_13,Alegría,13,Rocío consume alimentos nutritivos.,Afirmación,Al19,19,,,,,,,,,,,,,0,114,114,114,,,,,3,0.600443481144,2018_may._03_1018,59.9719797998,Experimento Piloto1,001,103,
0.25,Stim\\02_078.jpg,Al78_15,Alegría,15,Ángel envía una carta a la abuela.,Afirmación,Al78,78,,,,,,,,,,,,,0,115,115,115,,,,,4,0.750028002055,2018_may._03_1018,59.9719797998,Experimento Piloto1,001,103,
2.5,Stim\\05_019.jpg,En19_4,Enojo,4,Jorge sustituye a Gustavo cada sábado.,Afirmación,En19,19,,,,,,,,,,,,,0,116,116,116,,,,,2,0.550162054918,2018_may._03_1018,59.9719797998,Experimento Piloto1,001,103,
2.5,Stim\\05_075.jpg,En75_9,Enojo,9,Marco colabora en la organización del evento.,Afirmación,En75,75,,,,,,,,,,,,,0,117,117,117,,,,,2,2.59991512365,2018_may._03_1018,59.9719797998,Experimento Piloto1,001,103,
0.25,Stim\\05_078.jpg,En78_8,Enojo,8,Estefanía despierta a las 7 a.m.,Afirmación,En78,78,,,,,,,,,,,,,0,118,118,118,,,,,2,0.383944536743,2018_may._03_1018,59.9719797998,Experimento Piloto1,001,103,
0.25,Stim\\03_075.jpg,Tr75_12,Tristeza,12,Ana compra el libro.,Afirmación,Tr75,75,,,,,,,,,,,,,0,119,119,119,,,,,4,0.350143044759,2018_may._03_1018,59.9719797998,Experimento Piloto1,001,103,
