Tiempo,ImagenesE,ClaveEn,Emocion,NumEn,Enunciado,ActoHabla,Clave,Cara,trials.thisRepN,trials.thisTrialN,trials.thisN,trials.thisIndex,Bloque2.thisRepN,Bloque2.thisTrialN,Bloque2.thisN,Bloque2.thisIndex,Bloque1.thisRepN,Bloque1.thisTrialN,Bloque1.thisN,Bloque1.thisIndex,Bloque3.thisRepN,Bloque3.thisTrialN,Bloque3.thisN,Bloque3.thisIndex,Resp_Bloque2.keys,Resp_Bloque2.rt,Resp_Bloque1.keys,Resp_Bloque1.rt,Resp_Bloque3.keys,Resp_Bloque3.rt,date,frameRate,expName,session,participant,
2.5,Stim\\03_028.jpg,Tr28_1,Tristeza,1,Juan colecciona monedas antiguas.,Afirmación,Tr28,28,,,,,0,0,0,0,,,,,,,,,4,0.650083225118,,,,,2018_may._03_1812,60.0107654157,Experimento Piloto1,001,104,
0.25,Stim\\03_019.jpg,Tr19_1,Tristeza,1,Juan colecciona monedas antiguas.,Afirmación,Tr19,19,,,,,0,1,1,1,,,,,,,,,2,3.09949707931,,,,,2018_may._03_1812,60.0107654157,Experimento Piloto1,001,104,
2.5,Stim\\03_078.jpg,Tr78_10,Tristeza,10,Laura finaliza la obra.,Afirmación,Tr78,78,,,,,0,2,2,2,,,,,,,,,4,1.88316308999,,,,,2018_may._03_1812,60.0107654157,Experimento Piloto1,001,104,
0.25,Stim\\02_075.jpg,Al75_5,Alegría,5,Emilio revisa el formato del archivo.,Afirmación,Al75,75,,,,,0,3,3,3,,,,,,,,,3,2.34971016239,,,,,2018_may._03_1812,60.0107654157,Experimento Piloto1,001,104,
0.25,Stim\\02_019.jpg,Al19_15,Alegría,15,Ángel envía una carta a la abuela.,Afirmación,Al19,19,,,,,0,4,4,4,,,,,,,,,3,0.801032169967,,,,,2018_may._03_1812,60.0107654157,Experimento Piloto1,001,104,
2.5,Stim\\02_075.jpg,Al75_7,Alegría,7,Roberto contesta los cuestionarios solicitados.,Afirmación,Al75,75,,,,,0,5,5,5,,,,,,,,,3,0.916943563106,,,,,2018_may._03_1812,60.0107654157,Experimento Piloto1,001,104,
0.25,Stim\\03_075.jpg,Tr75_8,Tristeza,8,Estefanía despierta a las 7 a.m.,Afirmación,Tr75,75,,,,,0,6,6,6,,,,,,,,,4,2.43316554435,,,,,2018_may._03_1812,60.0107654157,Experimento Piloto1,001,104,
0.25,Stim\\02_019.jpg,Al19_11,Alegría,11,María asiste a la cena.,Afirmación,Al19,19,,,,,0,7,7,7,,,,,,,,,3,0.750202373143,,,,,2018_may._03_1812,60.0107654157,Experimento Piloto1,001,104,
2.5,Stim\\02_019.jpg,Al19_2,Alegría,2,Jonathan pasea al perro.,Afirmación,Al19,19,,,,,0,8,8,8,,,,,,,,,3,0.650231825464,,,,,2018_may._03_1812,60.0107654157,Experimento Piloto1,001,104,
2.5,Stim\\05_075.jpg,En75_5,Enojo,5,Emilio revisa el formato del archivo.,Afirmación,En75,75,,,,,0,9,9,9,,,,,,,,,2,1.05002699796,,,,,2018_may._03_1812,60.0107654157,Experimento Piloto1,001,104,
0.25,Stim\\03_078.jpg,Tr78_10,Tristeza,10,Laura finaliza la obra.,Afirmación,Tr78,78,,,,,0,10,10,10,,,,,,,,,4,0.800171358957,,,,,2018_may._03_1812,60.0107654157,Experimento Piloto1,001,104,
0.25,Stim\\02_019.jpg,Al19_6,Alegría,6,Eduardo camina hacia la biblioteca.,Afirmación,Al19,19,,,,,0,11,11,11,,,,,,,,,3,1.11678559157,,,,,2018_may._03_1812,60.0107654157,Experimento Piloto1,001,104,
2.5,Stim\\05_019.jpg,En19_3,Enojo,3,Andrea diseña la portada del libro.,Afirmación,En19,19,,,,,0,12,12,12,,,,,,,,,2,0.434012967946,,,,,2018_may._03_1812,60.0107654157,Experimento Piloto1,001,104,
0.25,Stim\\05_019.jpg,En19_3,Enojo,3,Andrea diseña la portada del libro.,Afirmación,En19,19,,,,,0,13,13,13,,,,,,,,,2,0.650034584164,,,,,2018_may._03_1812,60.0107654157,Experimento Piloto1,001,104,
2.5,Stim\\02_028.jpg,Al28_1,Alegría,1,Juan colecciona monedas antiguas.,Afirmación,Al28,28,,,,,0,14,14,14,,,,,,,,,3,0.350309026244,,,,,2018_may._03_1812,60.0107654157,Experimento Piloto1,001,104,
0.25,Stim\\02_019.jpg,Al19_2,Alegría,2,Jonathan pasea al perro.,Afirmación,Al19,19,,,,,0,15,15,15,,,,,,,,,3,0.500405638781,,,,,2018_may._03_1812,60.0107654157,Experimento Piloto1,001,104,
0.25,Stim\\05_028.jpg,En28_11,Enojo,11,María asiste a la cena.,Afirmación,En28,28,,,,,0,16,16,16,,,,,,,,,2,0.750607119429,,,,,2018_may._03_1812,60.0107654157,Experimento Piloto1,001,104,
0.25,Stim\\03_028.jpg,Tr28_1,Tristeza,1,Juan colecciona monedas antiguas.,Afirmación,Tr28,28,,,,,0,17,17,17,,,,,,,,,4,0.550516531231,,,,,2018_may._03_1812,60.0107654157,Experimento Piloto1,001,104,
0.25,Stim\\03_078.jpg,Tr78_1,Tristeza,1,Juan colecciona monedas antiguas.,Afirmación,Tr78,78,,,,,0,18,18,18,,,,,,,,,4,0.533669357538,,,,,2018_may._03_1812,60.0107654157,Experimento Piloto1,001,104,
0.25,Stim\\02_019.jpg,Al19_1,Alegría,1,Juan colecciona monedas antiguas.,Afirmación,Al19,19,,,,,0,19,19,19,,,,,,,,,4,0.383494205479,,,,,2018_may._03_1812,60.0107654157,Experimento Piloto1,001,104,
0.25,Stim\\02_019.jpg,Al19_10,Alegría,10,Laura finaliza la obra.,Afirmación,Al19,19,,,,,0,20,20,20,,,,,,,,,3,0.483607552289,,,,,2018_may._03_1812,60.0107654157,Experimento Piloto1,001,104,
2.5,Stim\\03_019.jpg,Tr19_13,Tristeza,13,Rocío consume alimentos nutritivos.,Afirmación,Tr19,19,,,,,0,21,21,21,,,,,,,,,4,2.69959346872,,,,,2018_may._03_1812,60.0107654157,Experimento Piloto1,001,104,
2.5,Stim\\05_075.jpg,En75_6,Enojo,6,Eduardo camina hacia la biblioteca.,Afirmación,En75,75,,,,,0,22,22,22,,,,,,,,,2,1.46682240697,,,,,2018_may._03_1812,60.0107654157,Experimento Piloto1,001,104,
0.25,Stim\\05_078.jpg,En78_10,Enojo,10,Laura finaliza la obra.,Afirmación,En78,78,,,,,0,23,23,23,,,,,,,,,2,1.09992101423,,,,,2018_may._03_1812,60.0107654157,Experimento Piloto1,001,104,
2.5,Stim\\05_075.jpg,En75_14,Enojo,14,Elizabeth elige la ropa un día antes.,Afirmación,En75,75,,,,,0,24,24,24,,,,,,,,,2,0.400354320343,,,,,2018_may._03_1812,60.0107654157,Experimento Piloto1,001,104,
0.25,Stim\\05_019.jpg,En19_7,Enojo,7,Roberto contesta los cuestionarios solicitados.,Afirmación,En19,19,,,,,0,25,25,25,,,,,,,,,2,0.433610452896,,,,,2018_may._03_1812,60.0107654157,Experimento Piloto1,001,104,
0.25,Stim\\02_078.jpg,Al78_14,Alegría,14,Elizabeth elige la ropa un día antes.,Afirmación,Al78,78,,,,,0,26,26,26,,,,,,,,,3,0.400054442169,,,,,2018_may._03_1812,60.0107654157,Experimento Piloto1,001,104,
0.25,Stim\\03_028.jpg,Tr28_13,Tristeza,13,Rocío consume alimentos nutritivos.,Afirmación,Tr28,28,,,,,0,27,27,27,,,,,,,,,4,0.333728708426,,,,,2018_may._03_1812,60.0107654157,Experimento Piloto1,001,104,
2.5,Stim\\03_019.jpg,Tr19_8,Tristeza,8,Estefanía despierta a las 7 a.m.,Afirmación,Tr19,19,,,,,0,28,28,28,,,,,,,,,4,3.06610751882,,,,,2018_may._03_1812,60.0107654157,Experimento Piloto1,001,104,
2.5,Stim\\02_019.jpg,Al19_8,Alegría,8,Estefanía despierta a las 7 a.m.,Afirmación,Al19,19,,,,,0,29,29,29,,,,,,,,,3,0.400351196612,,,,,2018_may._03_1812,60.0107654157,Experimento Piloto1,001,104,
2.5,Stim\\02_028.jpg,Al28_9,Alegría,9,Marco colabora en la organización del evento.,Afirmación,Al28,28,,,,,0,30,30,30,,,,,,,,,3,0.333678728731,,,,,2018_may._03_1812,60.0107654157,Experimento Piloto1,001,104,
2.5,Stim\\03_075.jpg,Tr75_1,Tristeza,1,Juan colecciona monedas antiguas.,Afirmación,Tr75,75,,,,,0,31,31,31,,,,,,,,,4,0.799573833844,,,,,2018_may._03_1812,60.0107654157,Experimento Piloto1,001,104,
2.5,Stim\\05_078.jpg,En78_8,Enojo,8,Estefanía despierta a las 7 a.m.,Afirmación,En78,78,,,,,0,32,32,32,,,,,,,,,2,1.9335604732,,,,,2018_may._03_1812,60.0107654157,Experimento Piloto1,001,104,
0.25,Stim\\02_028.jpg,Al28_12,Alegría,12,Ana compra el libro.,Afirmación,Al28,28,,,,,0,33,33,33,,,,,,,,,3,0.700461419691,,,,,2018_may._03_1812,60.0107654157,Experimento Piloto1,001,104,
0.25,Stim\\05_075.jpg,En75_1,Enojo,1,Juan colecciona monedas antiguas.,Afirmación,En75,75,,,,,0,34,34,34,,,,,,,,,2,0.400324868022,,,,,2018_may._03_1812,60.0107654157,Experimento Piloto1,001,104,
0.25,Stim\\03_028.jpg,Tr28_4,Tristeza,4,Jorge sustituye a Gustavo cada sábado.,Afirmación,Tr28,28,,,,,0,35,35,35,,,,,,,,,3,2.54984180534,,,,,2018_may._03_1812,60.0107654157,Experimento Piloto1,001,104,
2.5,Stim\\03_078.jpg,Tr78_3,Tristeza,3,Andrea diseña la portada del libro.,Afirmación,Tr78,78,,,,,0,36,36,36,,,,,,,,,3,0.43348014869,,,,,2018_may._03_1812,60.0107654157,Experimento Piloto1,001,104,
0.25,Stim\\05_078.jpg,En78_4,Enojo,4,Jorge sustituye a Gustavo cada sábado.,Afirmación,En78,78,,,,,0,37,37,37,,,,,,,,,2,1.63322935772,,,,,2018_may._03_1812,60.0107654157,Experimento Piloto1,001,104,
2.5,Stim\\03_019.jpg,Tr19_7,Tristeza,7,Roberto contesta los cuestionarios solicitados.,Afirmación,Tr19,19,,,,,0,38,38,38,,,,,,,,,2,1.00040563878,,,,,2018_may._03_1812,60.0107654157,Experimento Piloto1,001,104,
0.25,Stim\\02_078.jpg,Al78_2,Alegría,2,Jonathan pasea al perro.,Afirmación,Al78,78,,,,,0,39,39,39,,,,,,,,,3,0.800098174402,,,,,2018_may._03_1812,60.0107654157,Experimento Piloto1,001,104,
0.25,Stim\\02_078.jpg,Al78_5,Alegría,5,Emilio revisa el formato del archivo.,Afirmación,Al78,78,,,,,0,40,40,40,,,,,,,,,3,0.600222231147,,,,,2018_may._03_1812,60.0107654157,Experimento Piloto1,001,104,
2.5,Stim\\05_019.jpg,En19_11,Enojo,11,María asiste a la cena.,Afirmación,En19,19,,,,,0,41,41,41,,,,,,,,,2,0.349985943211,,,,,2018_may._03_1812,60.0107654157,Experimento Piloto1,001,104,
2.5,Stim\\02_028.jpg,Al28_15,Alegría,15,Ángel envía una carta a la abuela.,Afirmación,Al28,28,,,,,0,42,42,42,,,,,,,,,3,0.850432636741,,,,,2018_may._03_1812,60.0107654157,Experimento Piloto1,001,104,
0.25,Stim\\03_019.jpg,Tr19_4,Tristeza,4,Jorge sustituye a Gustavo cada sábado.,Afirmación,Tr19,19,,,,,0,43,43,43,,,,,,,,,2,1.73329584856,,,,,2018_may._03_1812,60.0107654157,Experimento Piloto1,001,104,
2.5,Stim\\02_075.jpg,Al75_12,Alegría,12,Ana compra el libro.,Afirmación,Al75,75,,,,,0,44,44,44,,,,,,,,,3,0.500452940993,,,,,2018_may._03_1812,60.0107654157,Experimento Piloto1,001,104,
2.5,Stim\\05_028.jpg,En28_12,Enojo,12,Ana compra el libro.,Afirmación,En28,28,,,,,0,45,45,45,,,,,,,,,2,1.36689514528,,,,,2018_may._03_1812,60.0107654157,Experimento Piloto1,001,104,
0.25,Stim\\02_028.jpg,Al28_14,Alegría,14,Elizabeth elige la ropa un día antes.,Afirmación,Al28,28,,,,,0,46,46,46,,,,,,,,,3,0.750728944938,,,,,2018_may._03_1812,60.0107654157,Experimento Piloto1,001,104,
2.5,Stim\\03_075.jpg,Tr75_6,Tristeza,6,Eduardo camina hacia la biblioteca.,Afirmación,Tr75,75,,,,,0,47,47,47,,,,,,,,,4,0.650213975572,,,,,2018_may._03_1812,60.0107654157,Experimento Piloto1,001,104,
0.25,Stim\\05_028.jpg,En28_8,Enojo,8,Estefanía despierta a las 7 a.m.,Afirmación,En28,28,,,,,0,48,48,48,,,,,,,,,2,1.68318540236,,,,,2018_may._03_1812,60.0107654157,Experimento Piloto1,001,104,
2.5,Stim\\05_019.jpg,En19_7,Enojo,7,Roberto contesta los cuestionarios solicitados.,Afirmación,En19,19,,,,,0,49,49,49,,,,,,,,,2,0.750161318393,,,,,2018_may._03_1812,60.0107654157,Experimento Piloto1,001,104,
2.5,Stim\\02_019.jpg,Al19_10,Alegría,10,Laura finaliza la obra.,Afirmación,Al19,19,,,,,0,50,50,50,,,,,,,,,3,0.750557585981,,,,,2018_may._03_1812,60.0107654157,Experimento Piloto1,001,104,
0.25,Stim\\05_028.jpg,En28_14,Enojo,14,Elizabeth elige la ropa un día antes.,Afirmación,En28,28,,,,,0,51,51,51,,,,,,,,,2,0.333810371679,,,,,2018_may._03_1812,60.0107654157,Experimento Piloto1,001,104,
2.5,Stim\\03_028.jpg,Tr28_8,Tristeza,8,Estefanía despierta a las 7 a.m.,Afirmación,Tr28,28,,,,,0,52,52,52,,,,,,,,,4,0.449843590327,,,,,2018_may._03_1812,60.0107654157,Experimento Piloto1,001,104,
0.25,Stim\\02_075.jpg,Al75_3,Alegría,3,Andrea diseña la portada del libro.,Afirmación,Al75,75,,,,,0,53,53,53,,,,,,,,,3,0.234134793454,,,,,2018_may._03_1812,60.0107654157,Experimento Piloto1,001,104,
0.25,Stim\\02_028.jpg,Al28_1,Alegría,1,Juan colecciona monedas antiguas.,Afirmación,Al28,28,,,,,0,54,54,54,,,,,,,,,3,0.300310588109,,,,,2018_may._03_1812,60.0107654157,Experimento Piloto1,001,104,
0.25,Stim\\03_028.jpg,Tr28_3,Tristeza,3,Andrea diseña la portada del libro.,Afirmación,Tr28,28,,,,,0,55,55,55,,,,,,,,,4,0.483659763221,,,,,2018_may._03_1812,60.0107654157,Experimento Piloto1,001,104,
2.5,Stim\\02_078.jpg,Al78_11,Alegría,11,María asiste a la cena.,Afirmación,Al78,78,,,,,0,56,56,56,,,,,,,,,3,0.3503737321,,,,,2018_may._03_1812,60.0107654157,Experimento Piloto1,001,104,
0.25,Stim\\03_019.jpg,Tr19_12,Tristeza,12,Ana compra el libro.,Afirmación,Tr19,19,,,,,0,57,57,57,,,,,,,,,2,0.650234502947,,,,,2018_may._03_1812,60.0107654157,Experimento Piloto1,001,104,
2.5,Stim\\02_078.jpg,Al78_14,Alegría,14,Elizabeth elige la ropa un día antes.,Afirmación,Al78,78,,,,,0,58,58,58,,,,,,,,,3,0.255485494732,,,,,2018_may._03_1812,60.0107654157,Experimento Piloto1,001,104,
0.25,Stim\\03_019.jpg,Tr19_2,Tristeza,2,Jonathan pasea al perro.,Afirmación,Tr19,19,,,,,0,59,59,59,,,,,,,,,4,0.750324644899,,,,,2018_may._03_1812,60.0107654157,Experimento Piloto1,001,104,
2.5,Stim\\03_078.jpg,Tr78_1,Tristeza,1,Juan colecciona monedas antiguas.,Afirmación,Tr78,78,,,,,0,60,60,60,,,,,,,,,4,2.0832358283,,,,,2018_may._03_1812,60.0107654157,Experimento Piloto1,001,104,
0.25,Stim\\03_078.jpg,Tr78_4,Tristeza,4,Jorge sustituye a Gustavo cada sábado.,Afirmación,Tr78,78,,,,,0,61,61,61,,,,,,,,,4,0.48378158873,,,,,2018_may._03_1812,60.0107654157,Experimento Piloto1,001,104,
0.25,Stim\\05_019.jpg,En19_14,Enojo,14,Elizabeth elige la ropa un día antes.,Afirmación,En19,19,,,,,0,62,62,62,,,,,,,,,2,0.700143691625,,,,,2018_may._03_1812,60.0107654157,Experimento Piloto1,001,104,
0.25,Stim\\02_075.jpg,Al75_15,Alegría,15,Ángel envía una carta a la abuela.,Afirmación,Al75,75,,,,,0,63,63,63,,,,,,,,,3,0.499999107505,,,,,2018_may._03_1812,60.0107654157,Experimento Piloto1,001,104,
2.5,Stim\\03_028.jpg,Tr28_2,Tristeza,2,Jonathan pasea al perro.,Afirmación,Tr28,28,,,,,0,64,64,64,,,,,,,,,4,0.70020036503,,,,,2018_may._03_1812,60.0107654157,Experimento Piloto1,001,104,
0.25,Stim\\05_028.jpg,En28_3,Enojo,3,Andrea diseña la portada del libro.,Afirmación,En28,28,,,,,0,65,65,65,,,,,,,,,2,0.750170689586,,,,,2018_may._03_1812,60.0107654157,Experimento Piloto1,001,104,
0.25,Stim\\05_078.jpg,En78_3,Enojo,3,Andrea diseña la portada del libro.,Afirmación,En78,78,,,,,0,66,66,66,,,,,,,,,2,0.383637450857,,,,,2018_may._03_1812,60.0107654157,Experimento Piloto1,001,104,
0.25,Stim\\05_075.jpg,En75_9,Enojo,9,Marco colabora en la organización del evento.,Afirmación,En75,75,,,,,0,67,67,67,,,,,,,,,2,0.383890473067,,,,,2018_may._03_1812,60.0107654157,Experimento Piloto1,001,104,
2.5,Stim\\05_075.jpg,En75_7,Enojo,7,Roberto contesta los cuestionarios solicitados.,Afirmación,En75,75,,,,,0,68,68,68,,,,,,,,,2,0.700418133704,,,,,2018_may._03_1812,60.0107654157,Experimento Piloto1,001,104,
0.25,Stim\\03_078.jpg,Tr78_14,Tristeza,14,Elizabeth elige la ropa un día antes.,Afirmación,Tr78,78,,,,,0,69,69,69,,,,,,,,,4,0.333721122223,,,,,2018_may._03_1812,60.0107654157,Experimento Piloto1,001,104,
2.5,Stim\\03_019.jpg,Tr19_5,Tristeza,5,Emilio revisa el formato del archivo.,Afirmación,Tr19,19,,,,,0,70,70,70,,,,,,,,,4,0.433809479185,,,,,2018_may._03_1812,60.0107654157,Experimento Piloto1,001,104,
2.5,Stim\\05_028.jpg,En28_13,Enojo,13,Rocío consume alimentos nutritivos.,Afirmación,En28,28,,,,,0,71,71,71,,,,,,,,,2,0.383650392028,,,,,2018_may._03_1812,60.0107654157,Experimento Piloto1,001,104,
0.25,Stim\\05_075.jpg,En75_15,Enojo,15,Ángel envía una carta a la abuela.,Afirmación,En75,75,,,,,0,72,72,72,,,,,,,,,2,1.93323158895,,,,,2018_may._03_1812,60.0107654157,Experimento Piloto1,001,104,
2.5,Stim\\05_019.jpg,En19_6,Enojo,6,Eduardo camina hacia la biblioteca.,Afirmación,En19,19,,,,,0,73,73,73,,,,,,,,,2,1.01681995261,,,,,2018_may._03_1812,60.0107654157,Experimento Piloto1,001,104,
2.5,Stim\\05_078.jpg,En78_10,Enojo,10,Laura finaliza la obra.,Afirmación,En78,78,,,,,0,74,74,74,,,,,,,,,2,0.550376409584,,,,,2018_may._03_1812,60.0107654157,Experimento Piloto1,001,104,
2.5,Stim\\05_019.jpg,En19_9,Enojo,9,Marco colabora en la organización del evento.,Afirmación,En19,19,,,,,0,75,75,75,,,,,,,,,2,0.33366087884,,,,,2018_may._03_1812,60.0107654157,Experimento Piloto1,001,104,
2.5,Stim\\02_078.jpg,Al78_6,Alegría,6,Eduardo camina hacia la biblioteca.,Afirmación,Al78,78,,,,,0,76,76,76,,,,,,,,,3,0.383740087732,,,,,2018_may._03_1812,60.0107654157,Experimento Piloto1,001,104,
2.5,Stim\\05_078.jpg,En78_13,Enojo,13,Rocío consume alimentos nutritivos.,Afirmación,En78,78,,,,,0,77,77,77,,,,,,,,,2,0.283686091811,,,,,2018_may._03_1812,60.0107654157,Experimento Piloto1,001,104,
0.25,Stim\\05_028.jpg,En28_2,Enojo,2,Jonathan pasea al perro.,Afirmación,En28,28,,,,,0,78,78,78,,,,,,,,,2,0.750292515094,,,,,2018_may._03_1812,60.0107654157,Experimento Piloto1,001,104,
0.25,Stim\\05_019.jpg,En19_6,Enojo,6,Eduardo camina hacia la biblioteca.,Afirmación,En19,19,,,,,0,79,79,79,,,,,,,,,2,0.350472352749,,,,,2018_may._03_1812,60.0107654157,Experimento Piloto1,001,104,
2.5,Stim\\03_019.jpg,Tr19_11,Tristeza,11,María asiste a la cena.,Afirmación,Tr19,19,,,,,0,80,80,80,,,,,,,,,4,0.40022669362,,,,,2018_may._03_1812,60.0107654157,Experimento Piloto1,001,104,
2.5,Stim\\05_028.jpg,En28_11,Enojo,11,María asiste a la cena.,Afirmación,En28,28,,,,,0,81,81,81,,,,,,,,,2,0.283816842265,,,,,2018_may._03_1812,60.0107654157,Experimento Piloto1,001,104,
0.25,Stim\\02_078.jpg,Al78_9,Alegría,9,Marco colabora en la organización del evento.,Afirmación,Al78,78,,,,,0,82,82,82,,,,,,,,,3,0.500443123552,,,,,2018_may._03_1812,60.0107654157,Experimento Piloto1,001,104,
0.25,Stim\\05_019.jpg,En19_13,Enojo,13,Rocío consume alimentos nutritivos.,Afirmación,En19,19,,,,,0,83,83,83,,,,,,,,,2,2.38307874926,,,,,2018_may._03_1812,60.0107654157,Experimento Piloto1,001,104,
0.25,Stim\\03_078.jpg,Tr78_11,Tristeza,11,María asiste a la cena.,Afirmación,Tr78,78,,,,,0,84,84,84,,,,,,,,,4,1.46678983092,,,,,2018_may._03_1812,60.0107654157,Experimento Piloto1,001,104,
2.5,Stim\\05_028.jpg,En28_5,Enojo,5,Emilio revisa el formato del archivo.,Afirmación,En28,28,,,,,0,85,85,85,,,,,,,,,2,0.300374847718,,,,,2018_may._03_1812,60.0107654157,Experimento Piloto1,001,104,
0.25,Stim\\03_028.jpg,Tr28_10,Tristeza,10,Laura finaliza la obra.,Afirmación,Tr28,28,,,,,0,86,86,86,,,,,,,,,4,0.400315496829,,,,,2018_may._03_1812,60.0107654157,Experimento Piloto1,001,104,
0.25,Stim\\05_019.jpg,En19_11,Enojo,11,María asiste a la cena.,Afirmación,En19,19,,,,,0,87,87,87,,,,,,,,,2,0.400500243205,,,,,2018_may._03_1812,60.0107654157,Experimento Piloto1,001,104,
2.5,Stim\\03_028.jpg,Tr28_9,Tristeza,9,Marco colabora en la organización del evento.,Afirmación,Tr28,28,,,,,0,88,88,88,,,,,,,,,4,0.333661771334,,,,,2018_may._03_1812,60.0107654157,Experimento Piloto1,001,104,
2.5,Stim\\05_019.jpg,En19_8,Enojo,8,Estefanía despierta a las 7 a.m.,Afirmación,En19,19,,,,,0,89,89,89,,,,,,,,,2,0.43364927641,,,,,2018_may._03_1812,60.0107654157,Experimento Piloto1,001,104,
0.25,Stim\\03_075.jpg,Tr75_9,Tristeza,9,Marco colabora en la organización del evento.,Afirmación,Tr75,75,,,,,0,90,90,90,,,,,,,,,4,0.700327991754,,,,,2018_may._03_1812,60.0107654157,Experimento Piloto1,001,104,
2.5,Stim\\02_075.jpg,Al75_3,Alegría,3,Andrea diseña la portada del libro.,Afirmación,Al75,75,,,,,0,91,91,91,,,,,,,,,3,0.533805909206,,,,,2018_may._03_1812,60.0107654157,Experimento Piloto1,001,104,
0.25,Stim\\05_028.jpg,En28_12,Enojo,12,Ana compra el libro.,Afirmación,En28,28,,,,,0,92,92,92,,,,,,,,,2,0.64991543614,,,,,2018_may._03_1812,60.0107654157,Experimento Piloto1,001,104,
0.25,Stim\\03_028.jpg,Tr28_7,Tristeza,7,Roberto contesta los cuestionarios solicitados.,Afirmación,Tr28,28,,,,,0,93,93,93,,,,,,,,,4,0.433767085693,,,,,2018_may._03_1812,60.0107654157,Experimento Piloto1,001,104,
0.25,Stim\\03_019.jpg,Tr19_8,Tristeza,8,Estefanía despierta a las 7 a.m.,Afirmación,Tr19,19,,,,,0,94,94,94,,,,,,,,,4,0.650417910581,,,,,2018_may._03_1812,60.0107654157,Experimento Piloto1,001,104,
0.25,Stim\\02_019.jpg,Al19_4,Alegría,4,Jorge sustituye a Gustavo cada sábado.,Afirmación,Al19,19,,,,,0,95,95,95,,,,,,,,,3,0.350081886377,,,,,2018_may._03_1812,60.0107654157,Experimento Piloto1,001,104,
2.5,Stim\\05_019.jpg,En19_15,Enojo,15,Ángel envía una carta a la abuela.,Afirmación,En19,19,,,,,0,96,96,96,,,,,,,,,2,0.750295638825,,,,,2018_may._03_1812,60.0107654157,Experimento Piloto1,001,104,
0.25,Stim\\05_075.jpg,En75_13,Enojo,13,Rocío consume alimentos nutritivos.,Afirmación,En75,75,,,,,0,97,97,97,,,,,,,,,2,0.28381104105,,,,,2018_may._03_1812,60.0107654157,Experimento Piloto1,001,104,
0.25,Stim\\02_078.jpg,Al78_7,Alegría,7,Roberto contesta los cuestionarios solicitados.,Afirmación,Al78,78,,,,,0,98,98,98,,,,,,,,,3,0.283607552289,,,,,2018_may._03_1812,60.0107654157,Experimento Piloto1,001,104,
2.5,Stim\\03_028.jpg,Tr28_3,Tristeza,3,Andrea diseña la portada del libro.,Afirmación,Tr28,28,,,,,0,99,99,99,,,,,,,,,4,1.06671307638,,,,,2018_may._03_1812,60.0107654157,Experimento Piloto1,001,104,
2.5,Stim\\05_075.jpg,En75_15,Enojo,15,Ángel envía una carta a la abuela.,Afirmación,En75,75,,,,,0,100,100,100,,,,,,,,,2,0.450226470496,,,,,2018_may._03_1812,60.0107654157,Experimento Piloto1,001,104,
0.25,Stim\\02_028.jpg,Al28_13,Alegría,13,Rocío consume alimentos nutritivos.,Afirmación,Al28,28,,,,,0,101,101,101,,,,,,,,,3,0.300003569978,,,,,2018_may._03_1812,60.0107654157,Experimento Piloto1,001,104,
0.25,Stim\\03_028.jpg,Tr28_15,Tristeza,15,Ángel envía una carta a la abuela.,Afirmación,Tr28,28,,,,,0,102,102,102,,,,,,,,,4,1.20028872199,,,,,2018_may._03_1812,60.0107654157,Experimento Piloto1,001,104,
0.25,Stim\\05_019.jpg,En19_2,Enojo,2,Jonathan pasea al perro.,Afirmación,En19,19,,,,,0,103,103,103,,,,,,,,,2,1.01687617977,,,,,2018_may._03_1812,60.0107654157,Experimento Piloto1,001,104,
0.25,Stim\\03_078.jpg,Tr78_13,Tristeza,13,Rocío consume alimentos nutritivos.,Afirmación,Tr78,78,,,,,0,104,104,104,,,,,,,,,4,0.650305010018,,,,,2018_may._03_1812,60.0107654157,Experimento Piloto1,001,104,
2.5,Stim\\03_075.jpg,Tr75_2,Tristeza,2,Jonathan pasea al perro.,Afirmación,Tr75,75,,,,,0,105,105,105,,,,,,,,,4,0.700306571884,,,,,2018_may._03_1812,60.0107654157,Experimento Piloto1,001,104,
2.5,Stim\\05_075.jpg,En75_10,Enojo,10,Laura finaliza la obra.,Afirmación,En75,75,,,,,0,106,106,106,,,,,,,,,2,0.766929506317,,,,,2018_may._03_1812,60.0107654157,Experimento Piloto1,001,104,
2.5,Stim\\05_028.jpg,En28_3,Enojo,3,Andrea diseña la portada del libro.,Afirmación,En28,28,,,,,0,107,107,107,,,,,,,,,2,0.550217991798,,,,,2018_may._03_1812,60.0107654157,Experimento Piloto1,001,104,
2.5,Stim\\02_078.jpg,Al78_8,Alegría,8,Estefanía despierta a las 7 a.m.,Afirmación,Al78,78,,,,,0,108,108,108,,,,,,,,,3,0.500352089107,,,,,2018_may._03_1812,60.0107654157,Experimento Piloto1,001,104,
2.5,Stim\\05_075.jpg,En75_2,Enojo,2,Jonathan pasea al perro.,Afirmación,En75,75,,,,,0,109,109,109,,,,,,,,,2,0.45038354954,,,,,2018_may._03_1812,60.0107654157,Experimento Piloto1,001,104,
0.25,Stim\\05_078.jpg,En78_2,Enojo,2,Jonathan pasea al perro.,Afirmación,En78,78,,,,,0,110,110,110,,,,,,,,,2,0.28387842439,,,,,2018_may._03_1812,60.0107654157,Experimento Piloto1,001,104,
2.5,Stim\\05_078.jpg,En78_14,Enojo,14,Elizabeth elige la ropa un día antes.,Afirmación,En78,78,,,,,0,111,111,111,,,,,,,,,2,0.283861020746,,,,,2018_may._03_1812,60.0107654157,Experimento Piloto1,001,104,
2.5,Stim\\05_028.jpg,En28_1,Enojo,1,Juan colecciona monedas antiguas.,Afirmación,En28,28,,,,,0,112,112,112,,,,,,,,,2,0.383663779447,,,,,2018_may._03_1812,60.0107654157,Experimento Piloto1,001,104,
0.25,Stim\\05_019.jpg,En19_12,Enojo,12,Ana compra el libro.,Afirmación,En19,19,,,,,0,113,113,113,,,,,,,,,2,0.650255922817,,,,,2018_may._03_1812,60.0107654157,Experimento Piloto1,001,104,
0.25,Stim\\02_075.jpg,Al75_13,Alegría,13,Rocío consume alimentos nutritivos.,Afirmación,Al75,75,,,,,0,114,114,114,,,,,,,,,3,0.350284482643,,,,,2018_may._03_1812,60.0107654157,Experimento Piloto1,001,104,
2.5,Stim\\03_019.jpg,Tr19_6,Tristeza,6,Eduardo camina hacia la biblioteca.,Afirmación,Tr19,19,,,,,0,115,115,115,,,,,,,,,4,1.38299173104,,,,,2018_may._03_1812,60.0107654157,Experimento Piloto1,001,104,
2.5,Stim\\05_028.jpg,En28_14,Enojo,14,Elizabeth elige la ropa un día antes.,Afirmación,En28,28,,,,,0,116,116,116,,,,,,,,,2,1.01682129135,,,,,2018_may._03_1812,60.0107654157,Experimento Piloto1,001,104,
2.5,Stim\\02_028.jpg,Al28_5,Alegría,5,Emilio revisa el formato del archivo.,Afirmación,Al28,28,,,,,0,117,117,117,,,,,,,,,3,0.350416125592,,,,,2018_may._03_1812,60.0107654157,Experimento Piloto1,001,104,
2.5,Stim\\02_078.jpg,Al78_9,Alegría,9,Marco colabora en la organización del evento.,Afirmación,Al78,78,,,,,0,118,118,118,,,,,,,,,3,0.250299208803,,,,,2018_may._03_1812,60.0107654157,Experimento Piloto1,001,104,
0.25,Stim\\03_019.jpg,Tr19_3,Tristeza,3,Andrea diseña la portada del libro.,Afirmación,Tr19,19,,,,,0,119,119,119,,,,,,,,,4,0.900117363036,,,,,2018_may._03_1812,60.0107654157,Experimento Piloto1,001,104,
0.25,Stim\\03_028.jpg,Tr28_2,Tristeza,2,Jonathan pasea al perro.,Afirmación,Tr28,28,,,,,,,,,0,0,0,0,,,,,,,4,2.28322154839,,,2018_may._03_1812,60.0107654157,Experimento Piloto1,001,104,
2.5,Stim\\05_075.jpg,En75_12,Enojo,12,Ana compra el libro.,Afirmación,En75,75,,,,,,,,,0,1,1,1,,,,,,,2,1.51667045977,,,2018_may._03_1812,60.0107654157,Experimento Piloto1,001,104,
0.25,Stim\\02_078.jpg,Al78_11,Alegría,11,María asiste a la cena.,Afirmación,Al78,78,,,,,,,,,0,2,2,2,,,,,,,3,0.650210851841,,,2018_may._03_1812,60.0107654157,Experimento Piloto1,001,104,
0.25,Stim\\02_078.jpg,Al78_8,Alegría,8,Estefanía despierta a las 7 a.m.,Afirmación,Al78,78,,,,,,,,,0,3,3,3,,,,,,,3,0.284058708292,,,2018_may._03_1812,60.0107654157,Experimento Piloto1,001,104,
0.25,Stim\\05_028.jpg,En28_6,Enojo,6,Eduardo camina hacia la biblioteca.,Afirmación,En28,28,,,,,,,,,0,4,4,4,,,,,,,2,0.816941778117,,,2018_may._03_1812,60.0107654157,Experimento Piloto1,001,104,
0.25,Stim\\02_019.jpg,Al19_14,Alegría,14,Elizabeth elige la ropa un día antes.,Afirmación,Al19,19,,,,,,,,,0,5,5,5,,,,,,,3,0.950325091146,,,2018_may._03_1812,60.0107654157,Experimento Piloto1,001,104,
2.5,Stim\\05_078.jpg,En78_1,Enojo,1,Juan colecciona monedas antiguas.,Afirmación,En78,78,,,,,,,,,0,6,6,6,,,,,,,2,0.80028425952,,,2018_may._03_1812,60.0107654157,Experimento Piloto1,001,104,
2.5,Stim\\02_078.jpg,Al78_15,Alegría,15,Ángel envía una carta a la abuela.,Afirmación,Al78,78,,,,,,,,,0,7,7,7,,,,,,,3,0.550263955268,,,2018_may._03_1812,60.0107654157,Experimento Piloto1,001,104,
0.25,Stim\\02_075.jpg,Al75_14,Alegría,14,Elizabeth elige la ropa un día antes.,Afirmación,Al75,75,,,,,,,,,0,8,8,8,,,,,,,3,0.333656862614,,,2018_may._03_1812,60.0107654157,Experimento Piloto1,001,104,
2.5,Stim\\02_075.jpg,Al75_2,Alegría,2,Jonathan pasea al perro.,Afirmación,Al75,75,,,,,,,,,0,9,9,9,,,,,,,3,0.483680736843,,,2018_may._03_1812,60.0107654157,Experimento Piloto1,001,104,
0.25,Stim\\05_075.jpg,En75_12,Enojo,12,Ana compra el libro.,Afirmación,En75,75,,,,,,,,,0,10,10,10,,,,,,,2,0.750194786939,,,2018_may._03_1812,60.0107654157,Experimento Piloto1,001,104,
2.5,Stim\\03_078.jpg,Tr78_8,Tristeza,8,Estefanía despierta a las 7 a.m.,Afirmación,Tr78,78,,,,,,,,,0,11,11,11,,,,,,,4,0.283842724607,,,2018_may._03_1812,60.0107654157,Experimento Piloto1,001,104,
0.25,Stim\\03_078.jpg,Tr78_15,Tristeza,15,Ángel envía una carta a la abuela.,Afirmación,Tr78,78,,,,,,,,,0,12,12,12,,,,,,,4,0.383701710466,,,2018_may._03_1812,60.0107654157,Experimento Piloto1,001,104,
0.25,Stim\\03_078.jpg,Tr78_5,Tristeza,5,Emilio revisa el formato del archivo.,Afirmación,Tr78,78,,,,,,,,,0,13,13,13,,,,,,,4,0.450349634747,,,2018_may._03_1812,60.0107654157,Experimento Piloto1,001,104,
2.5,Stim\\02_019.jpg,Al19_5,Alegría,5,Emilio revisa el formato del archivo.,Afirmación,Al19,19,,,,,,,,,0,14,14,14,,,,,,,3,0.234103109897,,,2018_may._03_1812,60.0107654157,Experimento Piloto1,001,104,
2.5,Stim\\03_075.jpg,Tr75_10,Tristeza,10,Laura finaliza la obra.,Afirmación,Tr75,75,,,,,,,,,0,15,15,15,,,,,,,4,0.549940872235,,,2018_may._03_1812,60.0107654157,Experimento Piloto1,001,104,
2.5,Stim\\03_075.jpg,Tr75_4,Tristeza,4,Jorge sustituye a Gustavo cada sábado.,Afirmación,Tr75,75,,,,,,,,,0,16,16,16,,,,,,,4,0.350329107372,,,2018_may._03_1812,60.0107654157,Experimento Piloto1,001,104,
0.25,Stim\\03_028.jpg,Tr28_5,Tristeza,5,Emilio revisa el formato del archivo.,Afirmación,Tr28,28,,,,,,,,,0,17,17,17,,,,,,,4,0.350044847852,,,2018_may._03_1812,60.0107654157,Experimento Piloto1,001,104,
0.25,Stim\\05_075.jpg,En75_11,Enojo,11,María asiste a la cena.,Afirmación,En75,75,,,,,,,,,0,18,18,18,,,,,,,2,0.350374624594,,,2018_may._03_1812,60.0107654157,Experimento Piloto1,001,104,
0.25,Stim\\02_075.jpg,Al75_6,Alegría,6,Eduardo camina hacia la biblioteca.,Afirmación,Al75,75,,,,,,,,,0,19,19,19,,,,,,,3,0.333805462959,,,2018_may._03_1812,60.0107654157,Experimento Piloto1,001,104,
0.25,Stim\\05_078.jpg,En78_1,Enojo,1,Juan colecciona monedas antiguas.,Afirmación,En78,78,,,,,,,,,0,20,20,20,,,,,,,2,0.550357667198,,,2018_may._03_1812,60.0107654157,Experimento Piloto1,001,104,
2.5,Stim\\03_019.jpg,Tr19_4,Tristeza,4,Jorge sustituye a Gustavo cada sábado.,Afirmación,Tr19,19,,,,,,,,,0,21,21,21,,,,,,,4,0.300325760517,,,2018_may._03_1812,60.0107654157,Experimento Piloto1,001,104,
0.25,Stim\\03_028.jpg,Tr28_11,Tristeza,11,María asiste a la cena.,Afirmación,Tr28,28,,,,,,,,,0,22,22,22,,,,,,,4,0.333790736799,,,2018_may._03_1812,60.0107654157,Experimento Piloto1,001,104,
0.25,Stim\\02_019.jpg,Al19_7,Alegría,7,Roberto contesta los cuestionarios solicitados.,Afirmación,Al19,19,,,,,,,,,0,23,23,23,,,,,,,3,0.35035231223,,,2018_may._03_1812,60.0107654157,Experimento Piloto1,001,104,
0.25,Stim\\05_028.jpg,En28_1,Enojo,1,Juan colecciona monedas antiguas.,Afirmación,En28,28,,,,,,,,,0,24,24,24,,,,,,,2,0.750287606374,,,2018_may._03_1812,60.0107654157,Experimento Piloto1,001,104,
0.25,Stim\\03_019.jpg,Tr19_6,Tristeza,6,Eduardo camina hacia la biblioteca.,Afirmación,Tr19,19,,,,,,,,,0,25,25,25,,,,,,,4,0.350430851752,,,2018_may._03_1812,60.0107654157,Experimento Piloto1,001,104,
0.25,Stim\\03_078.jpg,Tr78_7,Tristeza,7,Roberto contesta los cuestionarios solicitados.,Afirmación,Tr78,78,,,,,,,,,0,26,26,26,,,,,,,4,0.383758383871,,,2018_may._03_1812,60.0107654157,Experimento Piloto1,001,104,
2.5,Stim\\03_019.jpg,Tr19_15,Tristeza,15,Ángel envía una carta a la abuela.,Afirmación,Tr19,19,,,,,,,,,0,27,27,27,,,,,,,4,0.38378649745,,,2018_may._03_1812,60.0107654157,Experimento Piloto1,001,104,
2.5,Stim\\02_028.jpg,Al28_4,Alegría,4,Jorge sustituye a Gustavo cada sábado.,Afirmación,Al28,28,,,,,,,,,0,28,28,28,,,,,,,3,0.250452717869,,,2018_may._03_1812,60.0107654157,Experimento Piloto1,001,104,
2.5,Stim\\03_078.jpg,Tr78_5,Tristeza,5,Emilio revisa el formato del archivo.,Afirmación,Tr78,78,,,,,,,,,0,29,29,29,,,,,,,4,0.233863475106,,,2018_may._03_1812,60.0107654157,Experimento Piloto1,001,104,
2.5,Stim\\03_028.jpg,Tr28_12,Tristeza,12,Ana compra el libro.,Afirmación,Tr28,28,,,,,,,,,0,30,30,30,,,,,,,4,0.283655300748,,,2018_may._03_1812,60.0107654157,Experimento Piloto1,001,104,
0.25,Stim\\02_028.jpg,Al28_2,Alegría,2,Jonathan pasea al perro.,Afirmación,Al28,28,,,,,,,,,0,31,31,31,,,,,,,3,0.283752136409,,,2018_may._03_1812,60.0107654157,Experimento Piloto1,001,104,
0.25,Stim\\05_019.jpg,En19_8,Enojo,8,Estefanía despierta a las 7 a.m.,Afirmación,En19,19,,,,,,,,,0,32,32,32,,,,,,,2,0.550065375227,,,2018_may._03_1812,60.0107654157,Experimento Piloto1,001,104,
0.25,Stim\\03_019.jpg,Tr19_9,Tristeza,9,Marco colabora en la organización del evento.,Afirmación,Tr19,19,,,,,,,,,0,33,33,33,,,,,,,4,2.1330932523,,,2018_may._03_1812,60.0107654157,Experimento Piloto1,001,104,
2.5,Stim\\02_078.jpg,Al78_10,Alegría,10,Laura finaliza la obra.,Afirmación,Al78,78,,,,,,,,,0,34,34,34,,,,,,,3,0.400276673316,,,2018_may._03_1812,60.0107654157,Experimento Piloto1,001,104,
2.5,Stim\\02_075.jpg,Al75_15,Alegría,15,Ángel envía una carta a la abuela.,Afirmación,Al75,75,,,,,,,,,0,35,35,35,,,,,,,3,0.283796761137,,,2018_may._03_1812,60.0107654157,Experimento Piloto1,001,104,
2.5,Stim\\03_028.jpg,Tr28_6,Tristeza,6,Eduardo camina hacia la biblioteca.,Afirmación,Tr28,28,,,,,,,,,0,36,36,36,,,,,,,4,0.850287160127,,,2018_may._03_1812,60.0107654157,Experimento Piloto1,001,104,
0.25,Stim\\03_075.jpg,Tr75_14,Tristeza,14,Elizabeth elige la ropa un día antes.,Afirmación,Tr75,75,,,,,,,,,0,37,37,37,,,,,,,4,1.21664725491,,,2018_may._03_1812,60.0107654157,Experimento Piloto1,001,104,
2.5,Stim\\05_075.jpg,En75_13,Enojo,13,Rocío consume alimentos nutritivos.,Afirmación,En75,75,,,,,,,,,0,38,38,38,,,,,,,2,0.400295861949,,,2018_may._03_1812,60.0107654157,Experimento Piloto1,001,104,
2.5,Stim\\03_075.jpg,Tr75_8,Tristeza,8,Estefanía despierta a las 7 a.m.,Afirmación,Tr75,75,,,,,,,,,0,39,39,39,,,,,,,4,1.01656826914,,,2018_may._03_1812,60.0107654157,Experimento Piloto1,001,104,
0.25,Stim\\05_075.jpg,En75_7,Enojo,7,Roberto contesta los cuestionarios solicitados.,Afirmación,En75,75,,,,,,,,,0,40,40,40,,,,,,,2,0.333793414282,,,2018_may._03_1812,60.0107654157,Experimento Piloto1,001,104,
2.5,Stim\\03_019.jpg,Tr19_10,Tristeza,10,Laura finaliza la obra.,Afirmación,Tr19,19,,,,,,,,,0,41,41,41,,,,,,,4,0.333702826084,,,2018_may._03_1812,60.0107654157,Experimento Piloto1,001,104,
2.5,Stim\\03_019.jpg,Tr19_2,Tristeza,2,Jonathan pasea al perro.,Afirmación,Tr19,19,,,,,,,,,0,42,42,42,,,,,,,4,0.250374178348,,,2018_may._03_1812,60.0107654157,Experimento Piloto1,001,104,
0.25,Stim\\03_075.jpg,Tr75_15,Tristeza,15,Ángel envía una carta a la abuela.,Afirmación,Tr75,75,,,,,,,,,0,43,43,43,,,,,,,4,1.3666358756,,,2018_may._03_1812,60.0107654157,Experimento Piloto1,001,104,
0.25,Stim\\05_019.jpg,En19_1,Enojo,1,Juan colecciona monedas antiguas.,Afirmación,En19,19,,,,,,,,,0,44,44,44,,,,,,,2,0.383648607039,,,2018_may._03_1812,60.0107654157,Experimento Piloto1,001,104,
0.25,Stim\\03_078.jpg,Tr78_2,Tristeza,2,Jonathan pasea al perro.,Afirmación,Tr78,78,,,,,,,,,0,45,45,45,,,,,,,4,1.01678693031,,,2018_may._03_1812,60.0107654157,Experimento Piloto1,001,104,
2.5,Stim\\02_019.jpg,Al19_9,Alegría,9,Marco colabora en la organización del evento.,Afirmación,Al19,19,,,,,,,,,0,46,46,46,,,,,,,3,0.300290060734,,,2018_may._03_1812,60.0107654157,Experimento Piloto1,001,104,
2.5,Stim\\03_028.jpg,Tr28_11,Tristeza,11,María asiste a la cena.,Afirmación,Tr28,28,,,,,,,,,0,47,47,47,,,,,,,4,0.400043285987,,,2018_may._03_1812,60.0107654157,Experimento Piloto1,001,104,
2.5,Stim\\05_078.jpg,En78_6,Enojo,6,Eduardo camina hacia la biblioteca.,Afirmación,En78,78,,,,,,,,,0,48,48,48,,,,,,,2,1.10016198776,,,2018_may._03_1812,60.0107654157,Experimento Piloto1,001,104,
2.5,Stim\\02_028.jpg,Al28_14,Alegría,14,Elizabeth elige la ropa un día antes.,Afirmación,Al28,28,,,,,,,,,0,49,49,49,,,,,,,3,0.599969655185,,,2018_may._03_1812,60.0107654157,Experimento Piloto1,001,104,
0.25,Stim\\03_019.jpg,Tr19_10,Tristeza,10,Laura finaliza la obra.,Afirmación,Tr19,19,,,,,,,,,0,50,50,50,,,,,,,4,0.283496882963,,,2018_may._03_1812,60.0107654157,Experimento Piloto1,001,104,
2.5,Stim\\05_019.jpg,En19_2,Enojo,2,Jonathan pasea al perro.,Afirmación,En19,19,,,,,,,,,0,51,51,51,,,,,,,2,0.816791392783,,,2018_may._03_1812,60.0107654157,Experimento Piloto1,001,104,
0.25,Stim\\05_078.jpg,En78_5,Enojo,5,Emilio revisa el formato del archivo.,Afirmación,En78,78,,,,,,,,,0,52,52,52,,,,,,,2,1.46664792428,,,2018_may._03_1812,60.0107654157,Experimento Piloto1,001,104,
2.5,Stim\\02_075.jpg,Al75_5,Alegría,5,Emilio revisa el formato del archivo.,Afirmación,Al75,75,,,,,,,,,0,53,53,53,,,,,,,3,0.350287160127,,,2018_may._03_1812,60.0107654157,Experimento Piloto1,001,104,
0.25,Stim\\05_028.jpg,En28_9,Enojo,9,Marco colabora en la organización del evento.,Afirmación,En28,28,,,,,,,,,0,54,54,54,,,,,,,2,1.46671709261,,,2018_may._03_1812,60.0107654157,Experimento Piloto1,001,104,
2.5,Stim\\03_019.jpg,Tr19_1,Tristeza,1,Juan colecciona monedas antiguas.,Afirmación,Tr19,19,,,,,,,,,0,55,55,55,,,,,,,4,0.250450040386,,,2018_may._03_1812,60.0107654157,Experimento Piloto1,001,104,
0.25,Stim\\02_028.jpg,Al28_3,Alegría,3,Andrea diseña la portada del libro.,Afirmación,Al28,28,,,,,,,,,0,56,56,56,,,,,,,3,0.700222677394,,,2018_may._03_1812,60.0107654157,Experimento Piloto1,001,104,
0.25,Stim\\05_028.jpg,En28_5,Enojo,5,Emilio revisa el formato del archivo.,Afirmación,En28,28,,,,,,,,,0,57,57,57,,,,,,,2,0.40047480711,,,2018_may._03_1812,60.0107654157,Experimento Piloto1,001,104,
2.5,Stim\\03_078.jpg,Tr78_15,Tristeza,15,Ángel envía una carta a la abuela.,Afirmación,Tr78,78,,,,,,,,,0,58,58,58,,,,,,,4,0.383684306822,,,2018_may._03_1812,60.0107654157,Experimento Piloto1,001,104,
0.25,Stim\\02_078.jpg,Al78_10,Alegría,10,Laura finaliza la obra.,Afirmación,Al78,78,,,,,,,,,0,59,59,59,,,,,,,3,0.300360567805,,,2018_may._03_1812,60.0107654157,Experimento Piloto1,001,104,
0.25,Stim\\03_075.jpg,Tr75_7,Tristeza,7,Roberto contesta los cuestionarios solicitados.,Afirmación,Tr75,75,,,,,,,,,0,60,60,60,,,,,,,4,0.600190993838,,,2018_may._03_1812,60.0107654157,Experimento Piloto1,001,104,
0.25,Stim\\03_075.jpg,Tr75_5,Tristeza,5,Emilio revisa el formato del archivo.,Afirmación,Tr75,75,,,,,,,,,0,61,61,61,,,,,,,4,0.283436193332,,,2018_may._03_1812,60.0107654157,Experimento Piloto1,001,104,
0.25,Stim\\05_075.jpg,En75_14,Enojo,14,Elizabeth elige la ropa un día antes.,Afirmación,En75,75,,,,,,,,,0,62,62,62,,,,,,,2,0.433547532029,,,2018_may._03_1812,60.0107654157,Experimento Piloto1,001,104,
0.25,Stim\\05_075.jpg,En75_2,Enojo,2,Jonathan pasea al perro.,Afirmación,En75,75,,,,,,,,,0,63,63,63,,,,,,,2,0.6502916226,,,2018_may._03_1812,60.0107654157,Experimento Piloto1,001,104,
0.25,Stim\\02_078.jpg,Al78_6,Alegría,6,Eduardo camina hacia la biblioteca.,Afirmación,Al78,78,,,,,,,,,0,64,64,64,,,,,,,3,0.400501135699,,,2018_may._03_1812,60.0107654157,Experimento Piloto1,001,104,
0.25,Stim\\03_075.jpg,Tr75_4,Tristeza,4,Jorge sustituye a Gustavo cada sábado.,Afirmación,Tr75,75,,,,,,,,,0,65,65,65,,,,,,,4,0.333722907212,,,2018_may._03_1812,60.0107654157,Experimento Piloto1,001,104,
0.25,Stim\\03_075.jpg,Tr75_3,Tristeza,3,Andrea diseña la portada del libro.,Afirmación,Tr75,75,,,,,,,,,0,66,66,66,,,,,,,4,0.350342941038,,,2018_may._03_1812,60.0107654157,Experimento Piloto1,001,104,
0.25,Stim\\02_028.jpg,Al28_10,Alegría,10,Laura finaliza la obra.,Afirmación,Al28,28,,,,,,,,,0,67,67,67,,,,,,,3,0.283631203395,,,2018_may._03_1812,60.0107654157,Experimento Piloto1,001,104,
0.25,Stim\\03_028.jpg,Tr28_12,Tristeza,12,Ana compra el libro.,Afirmación,Tr28,28,,,,,,,,,0,68,68,68,,,,,,,4,0.800310588109,,,2018_may._03_1812,60.0107654157,Experimento Piloto1,001,104,
0.25,Stim\\03_075.jpg,Tr75_10,Tristeza,10,Laura finaliza la obra.,Afirmación,Tr75,75,,,,,,,,,0,69,69,69,,,,,,,4,0.350390243249,,,2018_may._03_1812,60.0107654157,Experimento Piloto1,001,104,
0.25,Stim\\02_028.jpg,Al28_8,Alegría,8,Estefanía despierta a las 7 a.m.,Afirmación,Al28,28,,,,,,,,,0,70,70,70,,,,,,,3,0.333599742962,,,2018_may._03_1812,60.0107654157,Experimento Piloto1,001,104,
0.25,Stim\\05_078.jpg,En78_14,Enojo,14,Elizabeth elige la ropa un día antes.,Afirmación,En78,78,,,,,,,,,0,71,71,71,,,,,,,4,0.850216653056,,,2018_may._03_1812,60.0107654157,Experimento Piloto1,001,104,
2.5,Stim\\03_078.jpg,Tr78_9,Tristeza,9,Marco colabora en la organización del evento.,Afirmación,Tr78,78,,,,,,,,,0,72,72,72,,,,,,,4,0.333722907212,,,2018_may._03_1812,60.0107654157,Experimento Piloto1,001,104,
0.25,Stim\\02_019.jpg,Al19_3,Alegría,3,Andrea diseña la portada del libro.,Afirmación,Al19,19,,,,,,,,,0,73,73,73,,,,,,,3,0.283705726692,,,2018_may._03_1812,60.0107654157,Experimento Piloto1,001,104,
0.25,Stim\\03_078.jpg,Tr78_6,Tristeza,6,Eduardo camina hacia la biblioteca.,Afirmación,Tr78,78,,,,,,,,,0,74,74,74,,,,,,,4,0.650323306157,,,2018_may._03_1812,60.0107654157,Experimento Piloto1,001,104,
0.25,Stim\\03_028.jpg,Tr28_8,Tristeza,8,Estefanía despierta a las 7 a.m.,Afirmación,Tr28,28,,,,,,,,,0,75,75,75,,,,,,,4,0.400279350799,,,2018_may._03_1812,60.0107654157,Experimento Piloto1,001,104,
2.5,Stim\\05_078.jpg,En78_9,Enojo,9,Marco colabora en la organización del evento.,Afirmación,En78,78,,,,,,,,,0,76,76,76,,,,,,,3,1.26677242727,,,2018_may._03_1812,60.0107654157,Experimento Piloto1,001,104,
2.5,Stim\\02_028.jpg,Al28_6,Alegría,6,Eduardo camina hacia la biblioteca.,Afirmación,Al28,28,,,,,,,,,0,77,77,77,,,,,,,3,0.250362129671,,,2018_may._03_1812,60.0107654157,Experimento Piloto1,001,104,
2.5,Stim\\03_078.jpg,Tr78_6,Tristeza,6,Eduardo camina hacia la biblioteca.,Afirmación,Tr78,78,,,,,,,,,0,78,78,78,,,,,,,4,0.550273772708,,,2018_may._03_1812,60.0107654157,Experimento Piloto1,001,104,
2.5,Stim\\02_078.jpg,Al78_2,Alegría,2,Jonathan pasea al perro.,Afirmación,Al78,78,,,,,,,,,0,79,79,79,,,,,,,3,0.234235199093,,,2018_may._03_1812,60.0107654157,Experimento Piloto1,001,104,
2.5,Stim\\02_028.jpg,Al28_10,Alegría,10,Laura finaliza la obra.,Afirmación,Al28,28,,,,,,,,,0,80,80,80,,,,,,,3,0.333752359532,,,2018_may._03_1812,60.0107654157,Experimento Piloto1,001,104,
2.5,Stim\\02_019.jpg,Al19_15,Alegría,15,Ángel envía una carta a la abuela.,Afirmación,Al19,19,,,,,,,,,0,81,81,81,,,,,,,3,0.383683860575,,,2018_may._03_1812,60.0107654157,Experimento Piloto1,001,104,
0.25,Stim\\03_019.jpg,Tr19_5,Tristeza,5,Emilio revisa el formato del archivo.,Afirmación,Tr19,19,,,,,,,,,0,82,82,82,,,,,,,4,0.600257484683,,,2018_may._03_1812,60.0107654157,Experimento Piloto1,001,104,
0.25,Stim\\02_075.jpg,Al75_12,Alegría,12,Ana compra el libro.,Afirmación,Al75,75,,,,,,,,,0,83,83,83,,,,,,,3,0.283886903089,,,2018_may._03_1812,60.0107654157,Experimento Piloto1,001,104,
2.5,Stim\\05_078.jpg,En78_3,Enojo,3,Andrea diseña la portada del libro.,Afirmación,En78,78,,,,,,,,,0,84,84,84,,,,,,,2,1.2667603786,,,2018_may._03_1812,60.0107654157,Experimento Piloto1,001,104,
2.5,Stim\\03_075.jpg,Tr75_5,Tristeza,5,Emilio revisa el formato del archivo.,Afirmación,Tr75,75,,,,,,,,,0,85,85,85,,,,,,,4,0.333624732809,,,2018_may._03_1812,60.0107654157,Experimento Piloto1,001,104,
2.5,Stim\\05_028.jpg,En28_2,Enojo,2,Jonathan pasea al perro.,Afirmación,En28,28,,,,,,,,,0,86,86,86,,,,,,,2,0.300508721903,,,2018_may._03_1812,60.0107654157,Experimento Piloto1,001,104,
0.25,Stim\\03_028.jpg,Tr28_9,Tristeza,9,Marco colabora en la organización del evento.,Afirmación,Tr28,28,,,,,,,,,0,87,87,87,,,,,,,4,0.649993975661,,,2018_may._03_1812,60.0107654157,Experimento Piloto1,001,104,
0.25,Stim\\03_078.jpg,Tr78_9,Tristeza,9,Marco colabora en la organización del evento.,Afirmación,Tr78,78,,,,,,,,,0,88,88,88,,,,,,,4,0.300357890321,,,2018_may._03_1812,60.0107654157,Experimento Piloto1,001,104,
2.5,Stim\\03_075.jpg,Tr75_12,Tristeza,12,Ana compra el libro.,Afirmación,Tr75,75,,,,,,,,,0,89,89,89,,,,,,,4,0.233643475195,,,2018_may._03_1812,60.0107654157,Experimento Piloto1,001,104,
2.5,Stim\\05_078.jpg,En78_11,Enojo,11,María asiste a la cena.,Afirmación,En78,78,,,,,,,,,0,90,90,90,,,,,,,2,1.6167387356,,,2018_may._03_1812,60.0107654157,Experimento Piloto1,001,104,
2.5,Stim\\02_075.jpg,Al75_14,Alegría,14,Elizabeth elige la ropa un día antes.,Afirmación,Al75,75,,,,,,,,,0,91,91,91,,,,,,,3,0.450242089151,,,2018_may._03_1812,60.0107654157,Experimento Piloto1,001,104,
0.25,Stim\\03_019.jpg,Tr19_7,Tristeza,7,Roberto contesta los cuestionarios solicitados.,Afirmación,Tr19,19,,,,,,,,,0,92,92,92,,,,,,,4,0.400411886243,,,2018_may._03_1812,60.0107654157,Experimento Piloto1,001,104,
0.25,Stim\\05_075.jpg,En75_5,Enojo,5,Emilio revisa el formato del archivo.,Afirmación,En75,75,,,,,,,,,0,93,93,93,,,,,,,2,0.850190324466,,,2018_may._03_1812,60.0107654157,Experimento Piloto1,001,104,
2.5,Stim\\05_019.jpg,En19_14,Enojo,14,Elizabeth elige la ropa un día antes.,Afirmación,En19,19,,,,,,,,,0,94,94,94,,,,,,,2,0.816760155472,,,2018_may._03_1812,60.0107654157,Experimento Piloto1,001,104,
0.25,Stim\\02_075.jpg,Al75_2,Alegría,2,Jonathan pasea al perro.,Afirmación,Al75,75,,,,,,,,,0,95,95,95,,,,,,,3,0.383512501618,,,2018_may._03_1812,60.0107654157,Experimento Piloto1,001,104,
2.5,Stim\\03_028.jpg,Tr28_10,Tristeza,10,Laura finaliza la obra.,Afirmación,Tr28,28,,,,,,,,,0,96,96,96,,,,,,,4,0.716541048056,,,2018_may._03_1812,60.0107654157,Experimento Piloto1,001,104,
2.5,Stim\\02_078.jpg,Al78_3,Alegría,3,Andrea diseña la portada del libro.,Afirmación,Al78,78,,,,,,,,,0,97,97,97,,,,,,,3,0.28364682205,,,2018_may._03_1812,60.0107654157,Experimento Piloto1,001,104,
2.5,Stim\\05_075.jpg,En75_3,Enojo,3,Andrea diseña la portada del libro.,Afirmación,En75,75,,,,,,,,,0,98,98,98,,,,,,,2,1.00051675435,,,2018_may._03_1812,60.0107654157,Experimento Piloto1,001,104,
2.5,Stim\\03_075.jpg,Tr75_3,Tristeza,3,Andrea diseña la portada del libro.,Afirmación,Tr75,75,,,,,,,,,0,99,99,99,,,,,,,4,0.600110223079,,,2018_may._03_1812,60.0107654157,Experimento Piloto1,001,104,
2.5,Stim\\03_075.jpg,Tr75_7,Tristeza,7,Roberto contesta los cuestionarios solicitados.,Afirmación,Tr75,75,,,,,,,,,0,100,100,100,,,,,,,4,0.300294969454,,,2018_may._03_1812,60.0107654157,Experimento Piloto1,001,104,
2.5,Stim\\03_019.jpg,Tr19_14,Tristeza,14,Elizabeth elige la ropa un día antes.,Afirmación,Tr19,19,,,,,,,,,0,101,101,101,,,,,,,4,0.350601318215,,,2018_may._03_1812,60.0107654157,Experimento Piloto1,001,104,
2.5,Stim\\05_078.jpg,En78_5,Enojo,5,Emilio revisa el formato del archivo.,Afirmación,En78,78,,,,,,,,,0,102,102,102,,,,,,,2,2.28313140644,,,2018_may._03_1812,60.0107654157,Experimento Piloto1,001,104,
2.5,Stim\\02_078.jpg,Al78_12,Alegría,12,Ana compra el libro.,Afirmación,Al78,78,,,,,,,,,0,103,103,103,,,,,,,3,0.30041724121,,,2018_may._03_1812,60.0107654157,Experimento Piloto1,001,104,
2.5,Stim\\02_028.jpg,Al28_13,Alegría,13,Rocío consume alimentos nutritivos.,Afirmación,Al28,28,,,,,,,,,0,104,104,104,,,,,,,3,0.283669134414,,,2018_may._03_1812,60.0107654157,Experimento Piloto1,001,104,
2.5,Stim\\05_028.jpg,En28_4,Enojo,4,Jorge sustituye a Gustavo cada sábado.,Afirmación,En28,28,,,,,,,,,0,105,105,105,,,,,,,2,0.600305679389,,,2018_may._03_1812,60.0107654157,Experimento Piloto1,001,104,
0.25,Stim\\02_028.jpg,Al28_7,Alegría,7,Roberto contesta los cuestionarios solicitados.,Afirmación,Al28,28,,,,,,,,,0,106,106,106,,,,,,,3,0.649811460523,,,2018_may._03_1812,60.0107654157,Experimento Piloto1,001,104,
0.25,Stim\\02_078.jpg,Al78_12,Alegría,12,Ana compra el libro.,Afirmación,Al78,78,,,,,,,,,0,107,107,107,,,,,,,3,0.334023231634,,,2018_may._03_1812,60.0107654157,Experimento Piloto1,001,104,
2.5,Stim\\02_028.jpg,Al28_7,Alegría,7,Roberto contesta los cuestionarios solicitados.,Afirmación,Al28,28,,,,,,,,,0,108,108,108,,,,,,,3,0.233835807775,,,2018_may._03_1812,60.0107654157,Experimento Piloto1,001,104,
0.25,Stim\\02_075.jpg,Al75_7,Alegría,7,Roberto contesta los cuestionarios solicitados.,Afirmación,Al75,75,,,,,,,,,0,109,109,109,,,,,,,3,0.233755037016,,,2018_may._03_1812,60.0107654157,Experimento Piloto1,001,104,
0.25,Stim\\05_075.jpg,En75_10,Enojo,10,Laura finaliza la obra.,Afirmación,En75,75,,,,,,,,,0,110,110,110,,,,,,,2,1.21681861387,,,2018_may._03_1812,60.0107654157,Experimento Piloto1,001,104,
2.5,Stim\\05_028.jpg,En28_8,Enojo,8,Estefanía despierta a las 7 a.m.,Afirmación,En28,28,,,,,,,,,0,111,111,111,,,,,,,2,0.333722460965,,,2018_may._03_1812,60.0107654157,Experimento Piloto1,001,104,
0.25,Stim\\03_075.jpg,Tr75_6,Tristeza,6,Eduardo camina hacia la biblioteca.,Afirmación,Tr75,75,,,,,,,,,0,112,112,112,,,,,,,4,0.533694347386,,,2018_may._03_1812,60.0107654157,Experimento Piloto1,001,104,
0.25,Stim\\02_078.jpg,Al78_4,Alegría,4,Jorge sustituye a Gustavo cada sábado.,Afirmación,Al78,78,,,,,,,,,0,113,113,113,,,,,,,3,0.800150831582,,,2018_may._03_1812,60.0107654157,Experimento Piloto1,001,104,
2.5,Stim\\02_019.jpg,Al19_13,Alegría,13,Rocío consume alimentos nutritivos.,Afirmación,Al19,19,,,,,,,,,0,114,114,114,,,,,,,3,0.450230486722,,,2018_may._03_1812,60.0107654157,Experimento Piloto1,001,104,
0.25,Stim\\02_078.jpg,Al78_15,Alegría,15,Ángel envía una carta a la abuela.,Afirmación,Al78,78,,,,,,,,,0,115,115,115,,,,,,,3,1.10014012165,,,2018_may._03_1812,60.0107654157,Experimento Piloto1,001,104,
2.5,Stim\\05_019.jpg,En19_4,Enojo,4,Jorge sustituye a Gustavo cada sábado.,Afirmación,En19,19,,,,,,,,,0,116,116,116,,,,,,,2,1.26662739691,,,2018_may._03_1812,60.0107654157,Experimento Piloto1,001,104,
2.5,Stim\\05_075.jpg,En75_9,Enojo,9,Marco colabora en la organización del evento.,Afirmación,En75,75,,,,,,,,,0,117,117,117,,,,,,,2,0.333760838231,,,2018_may._03_1812,60.0107654157,Experimento Piloto1,001,104,
0.25,Stim\\05_078.jpg,En78_8,Enojo,8,Estefanía despierta a las 7 a.m.,Afirmación,En78,78,,,,,,,,,0,118,118,118,,,,,,,2,0.549964969588,,,2018_may._03_1812,60.0107654157,Experimento Piloto1,001,104,
0.25,Stim\\03_075.jpg,Tr75_12,Tristeza,12,Ana compra el libro.,Afirmación,Tr75,75,,,,,,,,,0,119,119,119,,,,,,,4,0.300370385245,,,2018_may._03_1812,60.0107654157,Experimento Piloto1,001,104,
0.25,Stim\\02_075.jpg,Al75_11,Alegría,11,María asiste a la cena.,Afirmación,Al75,75,,,,,,,,,,,,,0,0,0,0,,,,,3,0.650289391363,2018_may._03_1812,60.0107654157,Experimento Piloto1,001,104,
2.5,Stim\\03_019.jpg,Tr19_9,Tristeza,9,Marco colabora en la organización del evento.,Afirmación,Tr19,19,,,,,,,,,,,,,0,1,1,1,,,,,4,0.35042460429,2018_may._03_1812,60.0107654157,Experimento Piloto1,001,104,
2.5,Stim\\02_075.jpg,Al75_8,Alegría,8,Estefanía despierta a las 7 a.m.,Afirmación,Al75,75,,,,,,,,,,,,,0,2,2,2,,,,,3,0.950251014097,2018_may._03_1812,60.0107654157,Experimento Piloto1,001,104,
2.5,Stim\\03_075.jpg,Tr75_13,Tristeza,13,Rocío consume alimentos nutritivos.,Afirmación,Tr75,75,,,,,,,,,,,,,0,3,3,3,,,,,4,1.05024208915,2018_may._03_1812,60.0107654157,Experimento Piloto1,001,104,
0.25,Stim\\03_019.jpg,Tr19_15,Tristeza,15,Ángel envía una carta a la abuela.,Afirmación,Tr19,19,,,,,,,,,,,,,0,4,4,4,,,,,4,0.650349188499,2018_may._03_1812,60.0107654157,Experimento Piloto1,001,104,
2.5,Stim\\05_075.jpg,En75_11,Enojo,11,María asiste a la cena.,Afirmación,En75,75,,,,,,,,,,,,,0,5,5,5,,,,,2,1.41666644354,2018_may._03_1812,60.0107654157,Experimento Piloto1,001,104,
0.25,Stim\\05_028.jpg,En28_4,Enojo,4,Jorge sustituye a Gustavo cada sábado.,Afirmación,En28,28,,,,,,,,,,,,,0,6,6,6,,,,,2,0.916905632087,2018_may._03_1812,60.0107654157,Experimento Piloto1,001,104,
2.5,Stim\\05_028.jpg,En28_9,Enojo,9,Marco colabora en la organización del evento.,Afirmación,En28,28,,,,,,,,,,,,,0,7,7,7,,,,,2,0.450385780776,2018_may._03_1812,60.0107654157,Experimento Piloto1,001,104,
2.5,Stim\\03_075.jpg,Tr75_9,Tristeza,9,Marco colabora en la organización del evento.,Afirmación,Tr75,75,,,,,,,,,,,,,0,8,8,8,,,,,3,0.333842947731,2018_may._03_1812,60.0107654157,Experimento Piloto1,001,104,
2.5,Stim\\05_028.jpg,En28_15,Enojo,15,Ángel envía una carta a la abuela.,Afirmación,En28,28,,,,,,,,,,,,,0,9,9,9,,,,,2,1.11682486133,2018_may._03_1812,60.0107654157,Experimento Piloto1,001,104,
0.25,Stim\\03_078.jpg,Tr78_8,Tristeza,8,Estefanía despierta a las 7 a.m.,Afirmación,Tr78,78,,,,,,,,,,,,,0,10,10,10,,,,,4,1.01649374584,2018_may._03_1812,60.0107654157,Experimento Piloto1,001,104,
0.25,Stim\\02_075.jpg,Al75_1,Alegría,1,Juan colecciona monedas antiguas.,Afirmación,Al75,75,,,,,,,,,,,,,0,11,11,11,,,,,3,0.350425050538,2018_may._03_1812,60.0107654157,Experimento Piloto1,001,104,
0.25,Stim\\05_078.jpg,En78_11,Enojo,11,María asiste a la cena.,Afirmación,En78,78,,,,,,,,,,,,,0,12,12,12,,,,,2,0.450340709801,2018_may._03_1812,60.0107654157,Experimento Piloto1,001,104,
2.5,Stim\\03_028.jpg,Tr28_15,Tristeza,15,Ángel envía una carta a la abuela.,Afirmación,Tr28,28,,,,,,,,,,,,,0,13,13,13,,,,,4,0.333751020791,2018_may._03_1812,60.0107654157,Experimento Piloto1,001,104,
2.5,Stim\\02_019.jpg,Al19_3,Alegría,3,Andrea diseña la portada del libro.,Afirmación,Al19,19,,,,,,,,,,,,,0,14,14,14,,,,,3,0.700255699693,2018_may._03_1812,60.0107654157,Experimento Piloto1,001,104,
2.5,Stim\\05_019.jpg,En19_5,Enojo,5,Emilio revisa el formato del archivo.,Afirmación,En19,19,,,,,,,,,,,,,0,15,15,15,,,,,2,1.16677510476,2018_may._03_1812,60.0107654157,Experimento Piloto1,001,104,
0.25,Stim\\02_028.jpg,Al28_11,Alegría,11,María asiste a la cena.,Afirmación,Al28,28,,,,,,,,,,,,,0,16,16,16,,,,,3,0.950217991798,2018_may._03_1812,60.0107654157,Experimento Piloto1,001,104,
0.25,Stim\\03_019.jpg,Tr19_11,Tristeza,11,María asiste a la cena.,Afirmación,Tr19,19,,,,,,,,,,,,,0,17,17,17,,,,,4,0.950146592233,2018_may._03_1812,60.0107654157,Experimento Piloto1,001,104,
2.5,Stim\\03_078.jpg,Tr78_14,Tristeza,14,Elizabeth elige la ropa un día antes.,Afirmación,Tr78,78,,,,,,,,,,,,,0,18,18,18,,,,,4,1.16677510476,2018_may._03_1812,60.0107654157,Experimento Piloto1,001,104,
0.25,Stim\\02_019.jpg,Al19_9,Alegría,9,Marco colabora en la organización del evento.,Afirmación,Al19,19,,,,,,,,,,,,,0,19,19,19,,,,,3,0.450289837611,2018_may._03_1812,60.0107654157,Experimento Piloto1,001,104,
2.5,Stim\\02_075.jpg,Al75_11,Alegría,11,María asiste a la cena.,Afirmación,Al75,75,,,,,,,,,,,,,0,20,20,20,,,,,3,0.500344502903,2018_may._03_1812,60.0107654157,Experimento Piloto1,001,104,
0.25,Stim\\02_028.jpg,Al28_4,Alegría,4,Jorge sustituye a Gustavo cada sábado.,Afirmación,Al28,28,,,,,,,,,,,,,0,21,21,21,,,,,3,0.383751243915,2018_may._03_1812,60.0107654157,Experimento Piloto1,001,104,
2.5,Stim\\02_075.jpg,Al75_10,Alegría,10,Laura finaliza la obra.,Afirmación,Al75,75,,,,,,,,,,,,,0,22,22,22,,,,,3,0.28366824192,2018_may._03_1812,60.0107654157,Experimento Piloto1,001,104,
0.25,Stim\\05_075.jpg,En75_4,Enojo,4,Jorge sustituye a Gustavo cada sábado.,Afirmación,En75,75,,,,,,,,,,,,,0,23,23,23,,,,,2,3.0162130563,2018_may._03_1812,60.0107654157,Experimento Piloto1,001,104,
2.5,Stim\\02_028.jpg,Al28_11,Alegría,11,María asiste a la cena.,Afirmación,Al28,28,,,,,,,,,,,,,0,24,24,24,,,,,3,0.300339147936,2018_may._03_1812,60.0107654157,Experimento Piloto1,001,104,
0.25,Stim\\02_078.jpg,Al78_1,Alegría,1,Juan colecciona monedas antiguas.,Afirmación,Al78,78,,,,,,,,,,,,,0,25,25,25,,,,,3,0.350030121692,2018_may._03_1812,60.0107654157,Experimento Piloto1,001,104,
2.5,Stim\\02_019.jpg,Al19_7,Alegría,7,Roberto contesta los cuestionarios solicitados.,Afirmación,Al19,19,,,,,,,,,,,,,0,26,26,26,,,,,3,0.233745665823,2018_may._03_1812,60.0107654157,Experimento Piloto1,001,104,
0.25,Stim\\05_028.jpg,En28_15,Enojo,15,Ángel envía una carta a la abuela.,Afirmación,En28,28,,,,,,,,,,,,,0,27,27,27,,,,,2,0.38379140617,2018_may._03_1812,60.0107654157,Experimento Piloto1,001,104,
0.25,Stim\\03_075.jpg,Tr75_2,Tristeza,2,Jonathan pasea al perro.,Afirmación,Tr75,75,,,,,,,,,,,,,0,28,28,28,,,,,4,0.383895828034,2018_may._03_1812,60.0107654157,Experimento Piloto1,001,104,
0.25,Stim\\05_075.jpg,En75_3,Enojo,3,Andrea diseña la portada del libro.,Afirmación,En75,75,,,,,,,,,,,,,0,29,29,29,,,,,2,0.800131642949,2018_may._03_1812,60.0107654157,Experimento Piloto1,001,104,
2.5,Stim\\05_028.jpg,En28_10,Enojo,10,Laura finaliza la obra.,Afirmación,En28,28,,,,,,,,,,,,,0,30,30,30,,,,,2,1.26673538875,2018_may._03_1812,60.0107654157,Experimento Piloto1,001,104,
0.25,Stim\\05_019.jpg,En19_4,Enojo,4,Jorge sustituye a Gustavo cada sábado.,Afirmación,En19,19,,,,,,,,,,,,,0,31,31,31,,,,,2,1.76661177825,2018_may._03_1812,60.0107654157,Experimento Piloto1,001,104,
2.5,Stim\\02_078.jpg,Al78_1,Alegría,1,Juan colecciona monedas antiguas.,Afirmación,Al78,78,,,,,,,,,,,,,0,32,32,32,,,,,3,0.383915462915,2018_may._03_1812,60.0107654157,Experimento Piloto1,001,104,
0.25,Stim\\05_075.jpg,En75_6,Enojo,6,Eduardo camina hacia la biblioteca.,Afirmación,En75,75,,,,,,,,,,,,,0,33,33,33,,,,,2,0.550255030323,2018_may._03_1812,60.0107654157,Experimento Piloto1,001,104,
2.5,Stim\\02_019.jpg,Al19_12,Alegría,12,Ana compra el libro.,Afirmación,Al19,19,,,,,,,,,,,,,0,34,34,34,,,,,3,0.966863461719,2018_may._03_1812,60.0107654157,Experimento Piloto1,001,104,
0.25,Stim\\05_075.jpg,En75_8,Enojo,8,Estefanía despierta a las 7 a.m.,Afirmación,En75,75,,,,,,,,,,,,,0,35,35,35,,,,,2,2.64969097376,2018_may._03_1812,60.0107654157,Experimento Piloto1,001,104,
2.5,Stim\\03_028.jpg,Tr28_4,Tristeza,4,Jorge sustituye a Gustavo cada sábado.,Afirmación,Tr28,28,,,,,,,,,,,,,0,36,36,36,,,,,4,0.350313042469,2018_may._03_1812,60.0107654157,Experimento Piloto1,001,104,
0.25,Stim\\03_078.jpg,Tr78_12,Tristeza,12,Ana compra el libro.,Afirmación,Tr78,78,,,,,,,,,,,,,0,37,37,37,,,,,4,1.46666800541,2018_may._03_1812,60.0107654157,Experimento Piloto1,001,104,
2.5,Stim\\03_019.jpg,Tr19_3,Tristeza,3,Andrea diseña la portada del libro.,Afirmación,Tr19,19,,,,,,,,,,,,,0,38,38,38,,,,,4,0.350355882209,2018_may._03_1812,60.0107654157,Experimento Piloto1,001,104,
2.5,Stim\\05_075.jpg,En75_4,Enojo,4,Jorge sustituye a Gustavo cada sábado.,Afirmación,En75,75,,,,,,,,,,,,,0,39,39,39,,,,,2,0.350386673271,2018_may._03_1812,60.0107654157,Experimento Piloto1,001,104,
0.25,Stim\\05_078.jpg,En78_6,Enojo,6,Eduardo camina hacia la biblioteca.,Afirmación,En78,78,,,,,,,,,,,,,0,40,40,40,,,,,2,0.283852542047,2018_may._03_1812,60.0107654157,Experimento Piloto1,001,104,
0.25,Stim\\03_078.jpg,Tr78_3,Tristeza,3,Andrea diseña la portada del libro.,Afirmación,Tr78,78,,,,,,,,,,,,,0,41,41,41,,,,,4,0.350313934964,2018_may._03_1812,60.0107654157,Experimento Piloto1,001,104,
0.25,Stim\\05_078.jpg,En78_15,Enojo,15,Ángel envía una carta a la abuela.,Afirmación,En78,78,,,,,,,,,,,,,0,42,42,42,,,,,2,0.383759722612,2018_may._03_1812,60.0107654157,Experimento Piloto1,001,104,
2.5,Stim\\05_078.jpg,En78_2,Enojo,2,Jonathan pasea al perro.,Afirmación,En78,78,,,,,,,,,,,,,0,43,43,43,,,,,2,0.650289837611,2018_may._03_1812,60.0107654157,Experimento Piloto1,001,104,
2.5,Stim\\02_078.jpg,Al78_4,Alegría,4,Jorge sustituye a Gustavo cada sábado.,Afirmación,Al78,78,,,,,,,,,,,,,0,44,44,44,,,,,3,0.250425050537,2018_may._03_1812,60.0107654157,Experimento Piloto1,001,104,
2.5,Stim\\05_078.jpg,En78_4,Enojo,4,Jorge sustituye a Gustavo cada sábado.,Afirmación,En78,78,,,,,,,,,,,,,0,45,45,45,,,,,2,0.85039515197,2018_may._03_1812,60.0107654157,Experimento Piloto1,001,104,
0.25,Stim\\05_019.jpg,En19_9,Enojo,9,Marco colabora en la organización del evento.,Afirmación,En19,19,,,,,,,,,,,,,0,46,46,46,,,,,2,1.26672914129,2018_may._03_1812,60.0107654157,Experimento Piloto1,001,104,
0.25,Stim\\05_019.jpg,En19_15,Enojo,15,Ángel envía una carta a la abuela.,Afirmación,En19,19,,,,,,,,,,,,,0,47,47,47,,,,,2,0.350644604201,2018_may._03_1812,60.0107654157,Experimento Piloto1,001,104,
2.5,Stim\\02_028.jpg,Al28_2,Alegría,2,Jonathan pasea al perro.,Afirmación,Al28,28,,,,,,,,,,,,,0,48,48,48,,,,,3,0.45026038529,2018_may._03_1812,60.0107654157,Experimento Piloto1,001,104,
0.25,Stim\\03_075.jpg,Tr75_1,Tristeza,1,Juan colecciona monedas antiguas.,Afirmación,Tr75,75,,,,,,,,,,,,,0,49,49,49,,,,,4,0.333686314935,2018_may._03_1812,60.0107654157,Experimento Piloto1,001,104,
2.5,Stim\\02_028.jpg,Al28_12,Alegría,12,Ana compra el libro.,Afirmación,Al28,28,,,,,,,,,,,,,0,50,50,50,,,,,3,0.250318397437,2018_may._03_1812,60.0107654157,Experimento Piloto1,001,104,
0.25,Stim\\05_019.jpg,En19_5,Enojo,5,Emilio revisa el formato del archivo.,Afirmación,En19,19,,,,,,,,,,,,,0,51,51,51,,,,,2,0.600189655095,2018_may._03_1812,60.0107654157,Experimento Piloto1,001,104,
0.25,Stim\\02_075.jpg,Al75_9,Alegría,9,Marco colabora en la organización del evento.,Afirmación,Al75,75,,,,,,,,,,,,,0,52,52,52,,,,,3,0.750148823469,2018_may._03_1812,60.0107654157,Experimento Piloto1,001,104,
2.5,Stim\\03_019.jpg,Tr19_12,Tristeza,12,Ana compra el libro.,Afirmación,Tr19,19,,,,,,,,,,,,,0,53,53,53,,,,,4,0.866879526621,2018_may._03_1812,60.0107654157,Experimento Piloto1,001,104,
2.5,Stim\\02_019.jpg,Al19_4,Alegría,4,Jorge sustituye a Gustavo cada sábado.,Afirmación,Al19,19,,,,,,,,,,,,,0,54,54,54,,,,,3,0.283653962006,2018_may._03_1812,60.0107654157,Experimento Piloto1,001,104,
0.25,Stim\\02_019.jpg,Al19_12,Alegría,12,Ana compra el libro.,Afirmación,Al19,19,,,,,,,,,,,,,0,55,55,55,,,,,3,0.250386673271,2018_may._03_1812,60.0107654157,Experimento Piloto1,001,104,
2.5,Stim\\02_078.jpg,Al78_7,Alegría,7,Roberto contesta los cuestionarios solicitados.,Afirmación,Al78,78,,,,,,,,,,,,,0,56,56,56,,,,,3,0.233825990334,2018_may._03_1812,60.0107654157,Experimento Piloto1,001,104,
2.5,Stim\\03_078.jpg,Tr78_13,Tristeza,13,Rocío consume alimentos nutritivos.,Afirmación,Tr78,78,,,,,,,,,,,,,0,57,57,57,,,,,4,0.283668688166,2018_may._03_1812,60.0107654157,Experimento Piloto1,001,104,
2.5,Stim\\02_075.jpg,Al75_9,Alegría,9,Marco colabora en la organización del evento.,Afirmación,Al75,75,,,,,,,,,,,,,0,58,58,58,,,,,3,0.601122311918,2018_may._03_1812,60.0107654157,Experimento Piloto1,001,104,
0.25,Stim\\02_028.jpg,Al28_5,Alegría,5,Emilio revisa el formato del archivo.,Afirmación,Al28,28,,,,,,,,,,,,,0,59,59,59,,,,,3,0.333795645519,2018_may._03_1812,60.0107654157,Experimento Piloto1,001,104,
2.5,Stim\\03_028.jpg,Tr28_7,Tristeza,7,Roberto contesta los cuestionarios solicitados.,Afirmación,Tr28,28,,,,,,,,,,,,,0,60,60,60,,,,,4,0.850341602296,2018_may._03_1812,60.0107654157,Experimento Piloto1,001,104,
0.25,Stim\\05_078.jpg,En78_7,Enojo,7,Roberto contesta los cuestionarios solicitados.,Afirmación,En78,78,,,,,,,,,,,,,0,61,61,61,,,,,2,1.11689402966,2018_may._03_1812,60.0107654157,Experimento Piloto1,001,104,
2.5,Stim\\03_028.jpg,Tr28_5,Tristeza,5,Emilio revisa el formato del archivo.,Afirmación,Tr28,28,,,,,,,,,,,,,0,62,62,62,,,,,4,0.283852542047,2018_may._03_1812,60.0107654157,Experimento Piloto1,001,104,
0.25,Stim\\02_019.jpg,Al19_13,Alegría,13,Rocío consume alimentos nutritivos.,Afirmación,Al19,19,,,,,,,,,,,,,0,63,63,63,,,,,3,0.600396267588,2018_may._03_1812,60.0107654157,Experimento Piloto1,001,104,
2.5,Stim\\05_019.jpg,En19_13,Enojo,13,Rocío consume alimentos nutritivos.,Afirmación,En19,19,,,,,,,,,,,,,0,64,64,64,,,,,2,0.966775997251,2018_may._03_1812,60.0107654157,Experimento Piloto1,001,104,
2.5,Stim\\03_078.jpg,Tr78_4,Tristeza,4,Jorge sustituye a Gustavo cada sábado.,Afirmación,Tr78,78,,,,,,,,,,,,,0,65,65,65,,,,,4,0.550464320298,2018_may._03_1812,60.0107654157,Experimento Piloto1,001,104,
0.25,Stim\\05_028.jpg,En28_13,Enojo,13,Rocío consume alimentos nutritivos.,Afirmación,En28,28,,,,,,,,,,,,,0,66,66,66,,,,,2,2.03322400275,2018_may._03_1812,60.0107654157,Experimento Piloto1,001,104,
0.25,Stim\\02_075.jpg,Al75_4,Alegría,4,Jorge sustituye a Gustavo cada sábado.,Afirmación,Al75,75,,,,,,,,,,,,,0,67,67,67,,,,,3,0.900159756528,2018_may._03_1812,60.0107654157,Experimento Piloto1,001,104,
0.25,Stim\\03_019.jpg,Tr19_14,Tristeza,14,Elizabeth elige la ropa un día antes.,Afirmación,Tr19,19,,,,,,,,,,,,,0,68,68,68,,,,,4,0.433729154674,2018_may._03_1812,60.0107654157,Experimento Piloto1,001,104,
2.5,Stim\\02_075.jpg,Al75_4,Alegría,4,Jorge sustituye a Gustavo cada sábado.,Afirmación,Al75,75,,,,,,,,,,,,,0,69,69,69,,,,,3,0.533715321008,2018_may._03_1812,60.0107654157,Experimento Piloto1,001,104,
2.5,Stim\\05_078.jpg,En78_7,Enojo,7,Roberto contesta los cuestionarios solicitados.,Afirmación,En78,78,,,,,,,,,,,,,0,70,70,70,,,,,2,1.01644599739,2018_may._03_1812,60.0107654157,Experimento Piloto1,001,104,
2.5,Stim\\05_028.jpg,En28_6,Enojo,6,Eduardo camina hacia la biblioteca.,Afirmación,En28,28,,,,,,,,,,,,,0,71,71,71,,,,,2,0.600364137783,2018_may._03_1812,60.0107654157,Experimento Piloto1,001,104,
2.5,Stim\\05_028.jpg,En28_7,Enojo,7,Roberto contesta los cuestionarios solicitados.,Afirmación,En28,28,,,,,,,,,,,,,0,72,72,72,,,,,2,0.900190101343,2018_may._03_1812,60.0107654157,Experimento Piloto1,001,104,
2.5,Stim\\03_028.jpg,Tr28_14,Tristeza,14,Elizabeth elige la ropa un día antes.,Afirmación,Tr28,28,,,,,,,,,,,,,0,73,73,73,,,,,4,0.283672258145,2018_may._03_1812,60.0107654157,Experimento Piloto1,001,104,
2.5,Stim\\02_019.jpg,Al19_11,Alegría,11,María asiste a la cena.,Afirmación,Al19,19,,,,,,,,,,,,,0,74,74,74,,,,,3,0.283926619096,2018_may._03_1812,60.0107654157,Experimento Piloto1,001,104,
0.25,Stim\\05_028.jpg,En28_7,Enojo,7,Roberto contesta los cuestionarios solicitados.,Afirmación,En28,28,,,,,,,,,,,,,0,75,75,75,,,,,2,0.500261947155,2018_may._03_1812,60.0107654157,Experimento Piloto1,001,104,
0.25,Stim\\05_078.jpg,En78_13,Enojo,13,Rocío consume alimentos nutritivos.,Afirmación,En78,78,,,,,,,,,,,,,0,76,76,76,,,,,2,1.01677443539,2018_may._03_1812,60.0107654157,Experimento Piloto1,001,104,
0.25,Stim\\03_028.jpg,Tr28_14,Tristeza,14,Elizabeth elige la ropa un día antes.,Afirmación,Tr28,28,,,,,,,,,,,,,0,77,77,77,,,,,4,1.00029496945,2018_may._03_1812,60.0107654157,Experimento Piloto1,001,104,
2.5,Stim\\03_075.jpg,Tr75_14,Tristeza,14,Elizabeth elige la ropa un día antes.,Afirmación,Tr75,75,,,,,,,,,,,,,0,78,78,78,,,,,4,0.33363455025,2018_may._03_1812,60.0107654157,Experimento Piloto1,001,104,
0.25,Stim\\05_019.jpg,En19_10,Enojo,10,Laura finaliza la obra.,Afirmación,En19,19,,,,,,,,,,,,,0,79,79,79,,,,,2,1.01679585526,2018_may._03_1812,60.0107654157,Experimento Piloto1,001,104,
0.25,Stim\\05_078.jpg,En78_9,Enojo,9,Marco colabora en la organización del evento.,Afirmación,En78,78,,,,,,,,,,,,,0,80,80,80,,,,,2,0.333873738793,2018_may._03_1812,60.0107654157,Experimento Piloto1,001,104,
0.25,Stim\\02_028.jpg,Al28_6,Alegría,6,Eduardo camina hacia la biblioteca.,Afirmación,Al28,28,,,,,,,,,,,,,0,81,81,81,,,,,3,0.350420141817,2018_may._03_1812,60.0107654157,Experimento Piloto1,001,104,
0.25,Stim\\05_078.jpg,En78_12,Enojo,12,Ana compra el libro.,Afirmación,En78,78,,,,,,,,,,,,,0,82,82,82,,,,,2,0.383810594803,2018_may._03_1812,60.0107654157,Experimento Piloto1,001,104,
2.5,Stim\\05_075.jpg,En75_1,Enojo,1,Juan colecciona monedas antiguas.,Afirmación,En75,75,,,,,,,,,,,,,0,83,83,83,,,,,2,0.350391135744,2018_may._03_1812,60.0107654157,Experimento Piloto1,001,104,
0.25,Stim\\03_019.jpg,Tr19_13,Tristeza,13,Rocío consume alimentos nutritivos.,Afirmación,Tr19,19,,,,,,,,,,,,,0,84,84,84,,,,,4,0.550331338608,2018_may._03_1812,60.0107654157,Experimento Piloto1,001,104,
2.5,Stim\\03_078.jpg,Tr78_11,Tristeza,11,María asiste a la cena.,Afirmación,Tr78,78,,,,,,,,,,,,,0,85,85,85,,,,,4,0.750385334529,2018_may._03_1812,60.0107654157,Experimento Piloto1,001,104,
2.5,Stim\\05_019.jpg,En19_1,Enojo,1,Juan colecciona monedas antiguas.,Afirmación,En19,19,,,,,,,,,,,,,0,86,86,86,,,,,2,0.40042214993,2018_may._03_1812,60.0107654157,Experimento Piloto1,001,104,
0.25,Stim\\02_075.jpg,Al75_10,Alegría,10,Laura finaliza la obra.,Afirmación,Al75,75,,,,,,,,,,,,,0,87,87,87,,,,,3,0.233658201356,2018_may._03_1812,60.0107654157,Experimento Piloto1,001,104,
2.5,Stim\\02_019.jpg,Al19_14,Alegría,14,Elizabeth elige la ropa un día antes.,Afirmación,Al19,19,,,,,,,,,,,,,0,88,88,88,,,,,3,0.283691000531,2018_may._03_1812,60.0107654157,Experimento Piloto1,001,104,
0.25,Stim\\03_028.jpg,Tr28_6,Tristeza,6,Eduardo camina hacia la biblioteca.,Afirmación,Tr28,28,,,,,,,,,,,,,0,89,89,89,,,,,4,0.483653962006,2018_may._03_1812,60.0107654157,Experimento Piloto1,001,104,
0.25,Stim\\02_075.jpg,Al75_8,Alegría,8,Estefanía despierta a las 7 a.m.,Afirmación,Al75,75,,,,,,,,,,,,,0,90,90,90,,,,,3,0.300490872012,2018_may._03_1812,60.0107654157,Experimento Piloto1,001,104,
2.5,Stim\\02_019.jpg,Al19_6,Alegría,6,Eduardo camina hacia la biblioteca.,Afirmación,Al19,19,,,,,,,,,,,,,0,91,91,91,,,,,3,0.500317728066,2018_may._03_1812,60.0107654157,Experimento Piloto1,001,104,
2.5,Stim\\03_078.jpg,Tr78_7,Tristeza,7,Roberto contesta los cuestionarios solicitados.,Afirmación,Tr78,78,,,,,,,,,,,,,0,92,92,92,,,,,4,0.700319066808,2018_may._03_1812,60.0107654157,Experimento Piloto1,001,104,
2.5,Stim\\02_028.jpg,Al28_8,Alegría,8,Estefanía despierta a las 7 a.m.,Afirmación,Al28,28,,,,,,,,,,,,,0,93,93,93,,,,,3,0.300386450147,2018_may._03_1812,60.0107654157,Experimento Piloto1,001,104,
0.25,Stim\\03_075.jpg,Tr75_13,Tristeza,13,Rocío consume alimentos nutritivos.,Afirmación,Tr75,75,,,,,,,,,,,,,0,94,94,94,,,,,4,0.600258377177,2018_may._03_1812,60.0107654157,Experimento Piloto1,001,104,
2.5,Stim\\02_075.jpg,Al75_6,Alegría,6,Eduardo camina hacia la biblioteca.,Afirmación,Al75,75,,,,,,,,,,,,,0,95,95,95,,,,,3,0.40034004043,2018_may._03_1812,60.0107654157,Experimento Piloto1,001,104,
0.25,Stim\\02_028.jpg,Al28_9,Alegría,9,Marco colabora en la organización del evento.,Afirmación,Al28,28,,,,,,,,,,,,,0,96,96,96,,,,,3,0.333801446734,2018_may._03_1812,60.0107654157,Experimento Piloto1,001,104,
0.25,Stim\\02_019.jpg,Al19_8,Alegría,8,Estefanía despierta a las 7 a.m.,Afirmación,Al19,19,,,,,,,,,,,,,0,97,97,97,,,,,3,0.333892927427,2018_may._03_1812,60.0107654157,Experimento Piloto1,001,104,
2.5,Stim\\02_019.jpg,Al19_1,Alegría,1,Juan colecciona monedas antiguas.,Afirmación,Al19,19,,,,,,,,,,,,,0,98,98,98,,,,,3,0.333876416277,2018_may._03_1812,60.0107654157,Experimento Piloto1,001,104,
0.25,Stim\\02_019.jpg,Al19_5,Alegría,5,Emilio revisa el formato del archivo.,Afirmación,Al19,19,,,,,,,,,,,,,0,99,99,99,,,,,3,0.233733617147,2018_may._03_1812,60.0107654157,Experimento Piloto1,001,104,
2.5,Stim\\02_078.jpg,Al78_13,Alegría,13,Rocío consume alimentos nutritivos.,Afirmación,Al78,78,,,,,,,,,,,,,0,100,100,100,,,,,3,0.350377302078,2018_may._03_1812,60.0107654157,Experimento Piloto1,001,104,
2.5,Stim\\05_078.jpg,En78_12,Enojo,12,Ana compra el libro.,Afirmación,En78,78,,,,,,,,,,,,,0,101,101,101,,,,,2,1.01678202159,2018_may._03_1812,60.0107654157,Experimento Piloto1,001,104,
2.5,Stim\\03_075.jpg,Tr75_11,Tristeza,11,María asiste a la cena.,Afirmación,Tr75,75,,,,,,,,,,,,,0,102,102,102,,,,,4,0.96677287352,2018_may._03_1812,60.0107654157,Experimento Piloto1,001,104,
0.25,Stim\\02_078.jpg,Al78_13,Alegría,13,Rocío consume alimentos nutritivos.,Afirmación,Al78,78,,,,,,,,,,,,,0,103,103,103,,,,,3,0.383808809814,2018_may._03_1812,60.0107654157,Experimento Piloto1,001,104,
0.25,Stim\\03_075.jpg,Tr75_11,Tristeza,11,María asiste a la cena.,Afirmación,Tr75,75,,,,,,,,,,,,,0,104,104,104,,,,,4,0.400254360951,2018_may._03_1812,60.0107654157,Experimento Piloto1,001,104,
2.5,Stim\\05_075.jpg,En75_8,Enojo,8,Estefanía despierta a las 7 a.m.,Afirmación,En75,75,,,,,,,,,,,,,0,105,105,105,,,,,2,0.800058458394,2018_may._03_1812,60.0107654157,Experimento Piloto1,001,104,
2.5,Stim\\03_078.jpg,Tr78_2,Tristeza,2,Jonathan pasea al perro.,Afirmación,Tr78,78,,,,,,,,,,,,,0,106,106,106,,,,,4,0.283531690251,2018_may._03_1812,60.0107654157,Experimento Piloto1,001,104,
2.5,Stim\\03_078.jpg,Tr78_12,Tristeza,12,Ana compra el libro.,Afirmación,Tr78,78,,,,,,,,,,,,,0,107,107,107,,,,,4,0.40022669362,2018_may._03_1812,60.0107654157,Experimento Piloto1,001,104,
2.5,Stim\\05_019.jpg,En19_10,Enojo,10,Laura finaliza la obra.,Afirmación,En19,19,,,,,,,,,,,,,0,108,108,108,,,,,2,0.300357890321,2018_may._03_1812,60.0107654157,Experimento Piloto1,001,104,
2.5,Stim\\05_078.jpg,En78_15,Enojo,15,Ángel envía una carta a la abuela.,Afirmación,En78,78,,,,,,,,,,,,,0,109,109,109,,,,,2,0.900302109411,2018_may._03_1812,60.0107654157,Experimento Piloto1,001,104,
0.25,Stim\\02_028.jpg,Al28_15,Alegría,15,Ángel envía una carta a la abuela.,Afirmación,Al28,28,,,,,,,,,,,,,0,110,110,110,,,,,3,0.283604428558,2018_may._03_1812,60.0107654157,Experimento Piloto1,001,104,
2.5,Stim\\02_075.jpg,Al75_13,Alegría,13,Rocío consume alimentos nutritivos.,Afirmación,Al75,75,,,,,,,,,,,,,0,111,111,111,,,,,3,0.300385111406,2018_may._03_1812,60.0107654157,Experimento Piloto1,001,104,
2.5,Stim\\02_078.jpg,Al78_5,Alegría,5,Emilio revisa el formato del archivo.,Afirmación,Al78,78,,,,,,,,,,,,,0,112,112,112,,,,,3,0.233679621225,2018_may._03_1812,60.0107654157,Experimento Piloto1,001,104,
2.5,Stim\\05_019.jpg,En19_12,Enojo,12,Ana compra el libro.,Afirmación,En19,19,,,,,,,,,,,,,0,113,113,113,,,,,2,0.650270648977,2018_may._03_1812,60.0107654157,Experimento Piloto1,001,104,
2.5,Stim\\03_028.jpg,Tr28_13,Tristeza,13,Rocío consume alimentos nutritivos.,Afirmación,Tr28,28,,,,,,,,,,,,,0,114,114,114,,,,,4,0.600262393403,2018_may._03_1812,60.0107654157,Experimento Piloto1,001,104,
2.5,Stim\\02_075.jpg,Al75_1,Alegría,1,Juan colecciona monedas antiguas.,Afirmación,Al75,75,,,,,,,,,,,,,0,115,115,115,,,,,3,0.28373384027,2018_may._03_1812,60.0107654157,Experimento Piloto1,001,104,
2.5,Stim\\02_028.jpg,Al28_3,Alegría,3,Andrea diseña la portada del libro.,Afirmación,Al28,28,,,,,,,,,,,,,0,116,116,116,,,,,3,0.300299878174,2018_may._03_1812,60.0107654157,Experimento Piloto1,001,104,
0.25,Stim\\05_028.jpg,En28_10,Enojo,10,Laura finaliza la obra.,Afirmación,En28,28,,,,,,,,,,,,,0,117,117,117,,,,,2,0.350394259475,2018_may._03_1812,60.0107654157,Experimento Piloto1,001,104,
0.25,Stim\\02_078.jpg,Al78_3,Alegría,3,Andrea diseña la portada del libro.,Afirmación,Al78,78,,,,,,,,,,,,,0,118,118,118,,,,,3,0.33380367797,2018_may._03_1812,60.0107654157,Experimento Piloto1,001,104,
2.5,Stim\\03_075.jpg,Tr75_15,Tristeza,15,Ángel envía una carta a la abuela.,Afirmación,Tr75,75,,,,,,,,,,,,,0,119,119,119,,,,,4,0.283857004521,2018_may._03_1812,60.0107654157,Experimento Piloto1,001,104,
