Tiempo,ImagenesE,ClaveEn,Emocion,NumEn,Enunciado,ActoHabla,Clave,Cara,trials.thisRepN,trials.thisTrialN,trials.thisN,trials.thisIndex,Bloque3.thisRepN,Bloque3.thisTrialN,Bloque3.thisN,Bloque3.thisIndex,Bloque1.thisRepN,Bloque1.thisTrialN,Bloque1.thisN,Bloque1.thisIndex,Bloque2.thisRepN,Bloque2.thisTrialN,Bloque2.thisN,Bloque2.thisIndex,Resp_Bloque3.keys,Resp_Bloque3.rt,Resp_Bloque1.keys,Resp_Bloque1.rt,Resp_Bloque2.keys,Resp_Bloque2.rt,date,frameRate,expName,session,participant,
0.25,Stim\\02_075.jpg,Al75_11,Alegría,11,María asiste a la cena.,Afirmación,Al75,75,,,,,0,0,0,0,,,,,,,,,3,1.43300916458,,,,,2018_may._04_1059,60.0410202824,Experimento Piloto1,001,105,
2.5,Stim\\03_019.jpg,Tr19_9,Tristeza,9,Marco colabora en la organización del evento.,Afirmación,Tr19,19,,,,,0,1,1,1,,,,,,,,,4,1.36678163479,,,,,2018_may._04_1059,60.0410202824,Experimento Piloto1,001,105,
2.5,Stim\\02_075.jpg,Al75_8,Alegría,8,Estefanía despierta a las 7 a.m.,Afirmación,Al75,75,,,,,0,2,2,2,,,,,,,,,3,1.10007938736,,,,,2018_may._04_1059,60.0410202824,Experimento Piloto1,001,105,
2.5,Stim\\03_075.jpg,Tr75_13,Tristeza,13,Rocío consume alimentos nutritivos.,Afirmación,Tr75,75,,,,,0,3,3,3,,,,,,,,,3,6.94845712302,,,,,2018_may._04_1059,60.0410202824,Experimento Piloto1,001,105,
0.25,Stim\\03_019.jpg,Tr19_15,Tristeza,15,Ángel envía una carta a la abuela.,Afirmación,Tr19,19,,,,,0,4,4,4,,,,,,,,,4,1.31699875631,,,,,2018_may._04_1059,60.0410202824,Experimento Piloto1,001,105,
2.5,Stim\\05_075.jpg,En75_11,Enojo,11,María asiste a la cena.,Afirmación,En75,75,,,,,0,5,5,5,,,,,,,,,2,0.950313510889,,,,,2018_may._04_1059,60.0410202824,Experimento Piloto1,001,105,
0.25,Stim\\05_028.jpg,En28_4,Enojo,4,Jorge sustituye a Gustavo cada sábado.,Afirmación,En28,28,,,,,0,6,6,6,,,,,,,,,2,0.700316523057,,,,,2018_may._04_1059,60.0410202824,Experimento Piloto1,001,105,
2.5,Stim\\05_028.jpg,En28_9,Enojo,9,Marco colabora en la organización del evento.,Afirmación,En28,28,,,,,0,7,7,7,,,,,,,,,2,1.06671884783,,,,,2018_may._04_1059,60.0410202824,Experimento Piloto1,001,105,
2.5,Stim\\03_075.jpg,Tr75_9,Tristeza,9,Marco colabora en la organización del evento.,Afirmación,Tr75,75,,,,,0,8,8,8,,,,,,,,,4,1.11633215241,,,,,2018_may._04_1059,60.0410202824,Experimento Piloto1,001,105,
2.5,Stim\\05_028.jpg,En28_15,Enojo,15,Ángel envía una carta a la abuela.,Afirmación,En28,28,,,,,0,9,9,9,,,,,,,,,2,5.61546665619,,,,,2018_may._04_1059,60.0410202824,Experimento Piloto1,001,105,
0.25,Stim\\03_078.jpg,Tr78_8,Tristeza,8,Estefanía despierta a las 7 a.m.,Afirmación,Tr78,78,,,,,0,10,10,10,,,,,,,,,4,3.11577434356,,,,,2018_may._04_1059,60.0410202824,Experimento Piloto1,001,105,
0.25,Stim\\02_075.jpg,Al75_1,Alegría,1,Juan colecciona monedas antiguas.,Afirmación,Al75,75,,,,,0,11,11,11,,,,,,,,,3,0.500404522982,,,,,2018_may._04_1059,60.0410202824,Experimento Piloto1,001,105,
0.25,Stim\\05_078.jpg,En78_11,Enojo,11,María asiste a la cena.,Afirmación,En78,78,,,,,0,12,12,12,,,,,,,,,2,4.03244305553,,,,,2018_may._04_1059,60.0410202824,Experimento Piloto1,001,105,
2.5,Stim\\03_028.jpg,Tr28_15,Tristeza,15,Ángel envía una carta a la abuela.,Afirmación,Tr28,28,,,,,0,13,13,13,,,,,,,,,4,0.916330010429,,,,,2018_may._04_1059,60.0410202824,Experimento Piloto1,001,105,
2.5,Stim\\02_019.jpg,Al19_3,Alegría,3,Andrea diseña la portada del libro.,Afirmación,Al19,19,,,,,0,14,14,14,,,,,,,,,3,0.600319245164,,,,,2018_may._04_1059,60.0410202824,Experimento Piloto1,001,105,
2.5,Stim\\05_019.jpg,En19_5,Enojo,5,Emilio revisa el formato del archivo.,Afirmación,En19,19,,,,,0,15,15,15,,,,,,,,,2,1.15017106882,,,,,2018_may._04_1059,60.0410202824,Experimento Piloto1,001,105,
0.25,Stim\\02_028.jpg,Al28_11,Alegría,11,María asiste a la cena.,Afirmación,Al28,28,,,,,0,16,16,16,,,,,,,,,3,0.450306594059,,,,,2018_may._04_1059,60.0410202824,Experimento Piloto1,001,105,
0.25,Stim\\03_019.jpg,Tr19_11,Tristeza,11,María asiste a la cena.,Afirmación,Tr19,19,,,,,0,17,17,17,,,,,,,,,4,4.54904367019,,,,,2018_may._04_1059,60.0410202824,Experimento Piloto1,001,105,
2.5,Stim\\03_078.jpg,Tr78_14,Tristeza,14,Elizabeth elige la ropa un día antes.,Afirmación,Tr78,78,,,,,0,18,18,18,,,,,,,,,4,3.16623774884,,,,,2018_may._04_1059,60.0410202824,Experimento Piloto1,001,105,
0.25,Stim\\02_019.jpg,Al19_9,Alegría,9,Marco colabora en la organización del evento.,Afirmación,Al19,19,,,,,0,19,19,19,,,,,,,,,3,0.716875413615,,,,,2018_may._04_1059,60.0410202824,Experimento Piloto1,001,105,
2.5,Stim\\02_075.jpg,Al75_11,Alegría,11,María asiste a la cena.,Afirmación,Al75,75,,,,,0,20,20,20,,,,,,,,,3,0.450241888232,,,,,2018_may._04_1059,60.0410202824,Experimento Piloto1,001,105,
0.25,Stim\\02_028.jpg,Al28_4,Alegría,4,Jorge sustituye a Gustavo cada sábado.,Afirmación,Al28,28,,,,,0,21,21,21,,,,,,,,,3,0.700313399327,,,,,2018_may._04_1059,60.0410202824,Experimento Piloto1,001,105,
2.5,Stim\\02_075.jpg,Al75_10,Alegría,10,Laura finaliza la obra.,Afirmación,Al75,75,,,,,0,22,22,22,,,,,,,,,3,0.900181667188,,,,,2018_may._04_1059,60.0410202824,Experimento Piloto1,001,105,
0.25,Stim\\05_075.jpg,En75_4,Enojo,4,Jorge sustituye a Gustavo cada sábado.,Afirmación,En75,75,,,,,0,23,23,23,,,,,,,,,2,0.550415433723,,,,,2018_may._04_1059,60.0410202824,Experimento Piloto1,001,105,
2.5,Stim\\02_028.jpg,Al28_11,Alegría,11,María asiste a la cena.,Afirmación,Al28,28,,,,,0,24,24,24,,,,,,,,,3,0.600859650383,,,,,2018_may._04_1059,60.0410202824,Experimento Piloto1,001,105,
0.25,Stim\\02_078.jpg,Al78_1,Alegría,1,Juan colecciona monedas antiguas.,Afirmación,Al78,78,,,,,0,25,25,25,,,,,,,,,3,0.450522577648,,,,,2018_may._04_1059,60.0410202824,Experimento Piloto1,001,105,
2.5,Stim\\02_019.jpg,Al19_7,Alegría,7,Roberto contesta los cuestionarios solicitados.,Afirmación,Al19,19,,,,,0,26,26,26,,,,,,,,,3,0.500462535103,,,,,2018_may._04_1059,60.0410202824,Experimento Piloto1,001,105,
0.25,Stim\\05_028.jpg,En28_15,Enojo,15,Ángel envía una carta a la abuela.,Afirmación,En28,28,,,,,0,27,27,27,,,,,,,,,2,2.63300015039,,,,,2018_may._04_1059,60.0410202824,Experimento Piloto1,001,105,
0.25,Stim\\03_075.jpg,Tr75_2,Tristeza,2,Jonathan pasea al perro.,Afirmación,Tr75,75,,,,,0,28,28,28,,,,,,,,,4,0.50035588205,,,,,2018_may._04_1059,60.0410202824,Experimento Piloto1,001,105,
0.25,Stim\\05_075.jpg,En75_3,Enojo,3,Andrea diseña la portada del libro.,Afirmación,En75,75,,,,,0,29,29,29,,,,,,,,,2,0.483969242866,,,,,2018_may._04_1059,60.0410202824,Experimento Piloto1,001,105,
2.5,Stim\\05_028.jpg,En28_10,Enojo,10,Laura finaliza la obra.,Afirmación,En28,28,,,,,0,30,30,30,,,,,,,,,2,0.633798486419,,,,,2018_may._04_1059,60.0410202824,Experimento Piloto1,001,105,
0.25,Stim\\05_019.jpg,En19_4,Enojo,4,Jorge sustituye a Gustavo cada sábado.,Afirmación,En19,19,,,,,0,31,31,31,,,,,,,,,2,0.700274575831,,,,,2018_may._04_1059,60.0410202824,Experimento Piloto1,001,105,
2.5,Stim\\02_078.jpg,Al78_1,Alegría,1,Juan colecciona monedas antiguas.,Afirmación,Al78,78,,,,,0,32,32,32,,,,,,,,,3,0.700032709911,,,,,2018_may._04_1059,60.0410202824,Experimento Piloto1,001,105,
0.25,Stim\\05_075.jpg,En75_6,Enojo,6,Eduardo camina hacia la biblioteca.,Afirmación,En75,75,,,,,0,33,33,33,,,,,,,,,2,1.31686398969,,,,,2018_may._04_1059,60.0410202824,Experimento Piloto1,001,105,
2.5,Stim\\02_019.jpg,Al19_12,Alegría,12,Ana compra el libro.,Afirmación,Al19,19,,,,,0,34,34,34,,,,,,,,,3,0.450331137649,,,,,2018_may._04_1059,60.0410202824,Experimento Piloto1,001,105,
0.25,Stim\\05_075.jpg,En75_8,Enojo,8,Estefanía despierta a las 7 a.m.,Afirmación,En75,75,,,,,0,35,35,35,,,,,,,,,2,0.999939756644,,,,,2018_may._04_1059,60.0410202824,Experimento Piloto1,001,105,
2.5,Stim\\03_028.jpg,Tr28_4,Tristeza,4,Jorge sustituye a Gustavo cada sábado.,Afirmación,Tr28,28,,,,,0,36,36,36,,,,,,,,,4,0.550006671394,,,,,2018_may._04_1059,60.0410202824,Experimento Piloto1,001,105,
0.25,Stim\\03_078.jpg,Tr78_12,Tristeza,12,Ana compra el libro.,Afirmación,Tr78,78,,,,,0,37,37,37,,,,,,,,,4,0.650643867606,,,,,2018_may._04_1059,60.0410202824,Experimento Piloto1,001,105,
2.5,Stim\\03_019.jpg,Tr19_3,Tristeza,3,Andrea diseña la portada del libro.,Afirmación,Tr19,19,,,,,0,38,38,38,,,,,,,,,3,1.41642840791,,,,,2018_may._04_1059,60.0410202824,Experimento Piloto1,001,105,
2.5,Stim\\05_075.jpg,En75_4,Enojo,4,Jorge sustituye a Gustavo cada sábado.,Afirmación,En75,75,,,,,0,39,39,39,,,,,,,,,2,1.31643603874,,,,,2018_may._04_1059,60.0410202824,Experimento Piloto1,001,105,
0.25,Stim\\05_078.jpg,En78_6,Enojo,6,Eduardo camina hacia la biblioteca.,Afirmación,En78,78,,,,,0,40,40,40,,,,,,,,,2,0.450610934571,,,,,2018_may._04_1059,60.0410202824,Experimento Piloto1,001,105,
0.25,Stim\\03_078.jpg,Tr78_3,Tristeza,3,Andrea diseña la portada del libro.,Afirmación,Tr78,78,,,,,0,41,41,41,,,,,,,,,3,1.41694650078,,,,,2018_may._04_1059,60.0410202824,Experimento Piloto1,001,105,
0.25,Stim\\05_078.jpg,En78_15,Enojo,15,Ángel envía una carta a la abuela.,Afirmación,En78,78,,,,,0,42,42,42,,,,,,,,,2,0.550249876055,,,,,2018_may._04_1059,60.0410202824,Experimento Piloto1,001,105,
2.5,Stim\\05_078.jpg,En78_2,Enojo,2,Jonathan pasea al perro.,Afirmación,En78,78,,,,,0,43,43,43,,,,,,,,,2,1.20019804446,,,,,2018_may._04_1059,60.0410202824,Experimento Piloto1,001,105,
2.5,Stim\\02_078.jpg,Al78_4,Alegría,4,Jorge sustituye a Gustavo cada sábado.,Afirmación,Al78,78,,,,,0,44,44,44,,,,,,,,,3,0.450512313965,,,,,2018_may._04_1059,60.0410202824,Experimento Piloto1,001,105,
2.5,Stim\\05_078.jpg,En78_4,Enojo,4,Jorge sustituye a Gustavo cada sábado.,Afirmación,En78,78,,,,,0,45,45,45,,,,,,,,,2,0.63370343579,,,,,2018_may._04_1059,60.0410202824,Experimento Piloto1,001,105,
0.25,Stim\\05_019.jpg,En19_9,Enojo,9,Marco colabora en la organización del evento.,Afirmación,En19,19,,,,,0,46,46,46,,,,,,,,,4,0.483779587855,,,,,2018_may._04_1059,60.0410202824,Experimento Piloto1,001,105,
0.25,Stim\\05_019.jpg,En19_15,Enojo,15,Ángel envía una carta a la abuela.,Afirmación,En19,19,,,,,0,47,47,47,,,,,,,,,4,0.650304273574,,,,,2018_may._04_1059,60.0410202824,Experimento Piloto1,001,105,
2.5,Stim\\02_028.jpg,Al28_2,Alegría,2,Jonathan pasea al perro.,Afirmación,Al28,28,,,,,0,48,48,48,,,,,,,,,3,0.383743486466,,,,,2018_may._04_1059,60.0410202824,Experimento Piloto1,001,105,
0.25,Stim\\03_075.jpg,Tr75_1,Tristeza,1,Juan colecciona monedas antiguas.,Afirmación,Tr75,75,,,,,0,49,49,49,,,,,,,,,4,0.450275356763,,,,,2018_may._04_1059,60.0410202824,Experimento Piloto1,001,105,
2.5,Stim\\02_028.jpg,Al28_12,Alegría,12,Ana compra el libro.,Afirmación,Al28,28,,,,,0,50,50,50,,,,,,,,,3,0.383832289636,,,,,2018_may._04_1059,60.0410202824,Experimento Piloto1,001,105,
0.25,Stim\\05_019.jpg,En19_5,Enojo,5,Emilio revisa el formato del archivo.,Afirmación,En19,19,,,,,0,51,51,51,,,,,,,,,2,0.383817117235,,,,,2018_may._04_1059,60.0410202824,Experimento Piloto1,001,105,
0.25,Stim\\02_075.jpg,Al75_9,Alegría,9,Marco colabora en la organización del evento.,Afirmación,Al75,75,,,,,0,52,52,52,,,,,,,,,3,0.600167967403,,,,,2018_may._04_1059,60.0410202824,Experimento Piloto1,001,105,
2.5,Stim\\03_019.jpg,Tr19_12,Tristeza,12,Ana compra el libro.,Afirmación,Tr19,19,,,,,0,53,53,53,,,,,,,,,3,0.500425496595,,,,,2018_may._04_1059,60.0410202824,Experimento Piloto1,001,105,
2.5,Stim\\02_019.jpg,Al19_4,Alegría,4,Jorge sustituye a Gustavo cada sábado.,Afirmación,Al19,19,,,,,0,54,54,54,,,,,,,,,3,0.383873790615,,,,,2018_may._04_1059,60.0410202824,Experimento Piloto1,001,105,
0.25,Stim\\02_019.jpg,Al19_12,Alegría,12,Ana compra el libro.,Afirmación,Al19,19,,,,,0,55,55,55,,,,,,,,,3,0.70019202012,,,,,2018_may._04_1059,60.0410202824,Experimento Piloto1,001,105,
2.5,Stim\\02_078.jpg,Al78_7,Alegría,7,Roberto contesta los cuestionarios solicitados.,Afirmación,Al78,78,,,,,0,56,56,56,,,,,,,,,3,0.849891405772,,,,,2018_may._04_1059,60.0410202824,Experimento Piloto1,001,105,
2.5,Stim\\03_078.jpg,Tr78_13,Tristeza,13,Rocío consume alimentos nutritivos.,Afirmación,Tr78,78,,,,,0,57,57,57,,,,,,,,,3,1.31689745822,,,,,2018_may._04_1059,60.0410202824,Experimento Piloto1,001,105,
2.5,Stim\\02_075.jpg,Al75_9,Alegría,9,Marco colabora en la organización del evento.,Afirmación,Al75,75,,,,,0,58,58,58,,,,,,,,,3,0.400509435671,,,,,2018_may._04_1059,60.0410202824,Experimento Piloto1,001,105,
0.25,Stim\\02_028.jpg,Al28_5,Alegría,5,Emilio revisa el formato del archivo.,Afirmación,Al28,28,,,,,0,59,59,59,,,,,,,,,3,0.383485109404,,,,,2018_may._04_1059,60.0410202824,Experimento Piloto1,001,105,
2.5,Stim\\03_028.jpg,Tr28_7,Tristeza,7,Roberto contesta los cuestionarios solicitados.,Afirmación,Tr28,28,,,,,0,60,60,60,,,,,,,,,4,0.433512977535,,,,,2018_may._04_1059,60.0410202824,Experimento Piloto1,001,105,
0.25,Stim\\05_078.jpg,En78_7,Enojo,7,Roberto contesta los cuestionarios solicitados.,Afirmación,En78,78,,,,,0,61,61,61,,,,,,,,,2,0.700419606133,,,,,2018_may._04_1059,60.0410202824,Experimento Piloto1,001,105,
2.5,Stim\\03_028.jpg,Tr28_5,Tristeza,5,Emilio revisa el formato del archivo.,Afirmación,Tr28,28,,,,,0,62,62,62,,,,,,,,,4,1.41661181546,,,,,2018_may._04_1059,60.0410202824,Experimento Piloto1,001,105,
0.25,Stim\\02_019.jpg,Al19_13,Alegría,13,Rocío consume alimentos nutritivos.,Afirmación,Al19,19,,,,,0,63,63,63,,,,,,,,,3,0.45026821681,,,,,2018_may._04_1059,60.0410202824,Experimento Piloto1,001,105,
2.5,Stim\\05_019.jpg,En19_13,Enojo,13,Rocío consume alimentos nutritivos.,Afirmación,En19,19,,,,,0,64,64,64,,,,,,,,,2,0.850089539477,,,,,2018_may._04_1059,60.0410202824,Experimento Piloto1,001,105,
2.5,Stim\\03_078.jpg,Tr78_4,Tristeza,4,Jorge sustituye a Gustavo cada sábado.,Afirmación,Tr78,78,,,,,0,65,65,65,,,,,,,,,4,0.950053795086,,,,,2018_may._04_1059,60.0410202824,Experimento Piloto1,001,105,
0.25,Stim\\05_028.jpg,En28_13,Enojo,13,Rocío consume alimentos nutritivos.,Afirmación,En28,28,,,,,0,66,66,66,,,,,,,,,2,0.750237738134,,,,,2018_may._04_1059,60.0410202824,Experimento Piloto1,001,105,
0.25,Stim\\02_075.jpg,Al75_4,Alegría,4,Jorge sustituye a Gustavo cada sábado.,Afirmación,Al75,75,,,,,0,67,67,67,,,,,,,,,3,0.533410742328,,,,,2018_may._04_1059,60.0410202824,Experimento Piloto1,001,105,
0.25,Stim\\03_019.jpg,Tr19_14,Tristeza,14,Elizabeth elige la ropa un día antes.,Afirmación,Tr19,19,,,,,0,68,68,68,,,,,,,,,3,2.03295713217,,,,,2018_may._04_1059,60.0410202824,Experimento Piloto1,001,105,
2.5,Stim\\02_075.jpg,Al75_4,Alegría,4,Jorge sustituye a Gustavo cada sábado.,Afirmación,Al75,75,,,,,0,69,69,69,,,,,,,,,3,1.21673997763,,,,,2018_may._04_1059,60.0410202824,Experimento Piloto1,001,105,
2.5,Stim\\05_078.jpg,En78_7,Enojo,7,Roberto contesta los cuestionarios solicitados.,Afirmación,En78,78,,,,,0,70,70,70,,,,,,,,,2,0.600301841528,,,,,2018_may._04_1059,60.0410202824,Experimento Piloto1,001,105,
2.5,Stim\\05_028.jpg,En28_6,Enojo,6,Eduardo camina hacia la biblioteca.,Afirmación,En28,28,,,,,0,71,71,71,,,,,,,,,2,0.550399368828,,,,,2018_may._04_1059,60.0410202824,Experimento Piloto1,001,105,
2.5,Stim\\05_028.jpg,En28_7,Enojo,7,Roberto contesta los cuestionarios solicitados.,Afirmación,En28,28,,,,,0,72,72,72,,,,,,,,,2,0.5335526489,,,,,2018_may._04_1059,60.0410202824,Experimento Piloto1,001,105,
2.5,Stim\\03_028.jpg,Tr28_14,Tristeza,14,Elizabeth elige la ropa un día antes.,Afirmación,Tr28,28,,,,,0,73,73,73,,,,,,,,,4,0.600642328053,,,,,2018_may._04_1059,60.0410202824,Experimento Piloto1,001,105,
2.5,Stim\\02_019.jpg,Al19_11,Alegría,11,María asiste a la cena.,Afirmación,Al19,19,,,,,0,74,74,74,,,,,,,,,3,0.384013019705,,,,,2018_may._04_1059,60.0410202824,Experimento Piloto1,001,105,
0.25,Stim\\05_028.jpg,En28_7,Enojo,7,Roberto contesta los cuestionarios solicitados.,Afirmación,En28,28,,,,,0,75,75,75,,,,,,,,,2,1.05021082944,,,,,2018_may._04_1059,60.0410202824,Experimento Piloto1,001,105,
0.25,Stim\\05_078.jpg,En78_13,Enojo,13,Rocío consume alimentos nutritivos.,Afirmación,En78,78,,,,,0,76,76,76,,,,,,,,,2,1.01683913373,,,,,2018_may._04_1059,60.0410202824,Experimento Piloto1,001,105,
0.25,Stim\\03_028.jpg,Tr28_14,Tristeza,14,Elizabeth elige la ropa un día antes.,Afirmación,Tr28,28,,,,,0,77,77,77,,,,,,,,,4,1.31660561263,,,,,2018_may._04_1059,60.0410202824,Experimento Piloto1,001,105,
2.5,Stim\\03_075.jpg,Tr75_14,Tristeza,14,Elizabeth elige la ropa un día antes.,Afirmación,Tr75,75,,,,,0,78,78,78,,,,,,,,,4,0.900299922665,,,,,2018_may._04_1059,60.0410202824,Experimento Piloto1,001,105,
0.25,Stim\\05_019.jpg,En19_10,Enojo,10,Laura finaliza la obra.,Afirmación,En19,19,,,,,0,79,79,79,,,,,,,,,2,0.500047971562,,,,,2018_may._04_1059,60.0410202824,Experimento Piloto1,001,105,
0.25,Stim\\05_078.jpg,En78_9,Enojo,9,Marco colabora en la organización del evento.,Afirmación,En78,78,,,,,0,80,80,80,,,,,,,,,2,0.500527687177,,,,,2018_may._04_1059,60.0410202824,Experimento Piloto1,001,105,
0.25,Stim\\02_028.jpg,Al28_6,Alegría,6,Eduardo camina hacia la biblioteca.,Afirmación,Al28,28,,,,,0,81,81,81,,,,,,,,,3,0.433886040097,,,,,2018_may._04_1059,60.0410202824,Experimento Piloto1,001,105,
0.25,Stim\\05_078.jpg,En78_12,Enojo,12,Ana compra el libro.,Afirmación,En78,78,,,,,0,82,82,82,,,,,,,,,2,0.333758904303,,,,,2018_may._04_1059,60.0410202824,Experimento Piloto1,001,105,
2.5,Stim\\05_075.jpg,En75_1,Enojo,1,Juan colecciona monedas antiguas.,Afirmación,En75,75,,,,,0,83,83,83,,,,,,,,,2,0.449889799283,,,,,2018_may._04_1059,60.0410202824,Experimento Piloto1,001,105,
0.25,Stim\\03_019.jpg,Tr19_13,Tristeza,13,Rocío consume alimentos nutritivos.,Afirmación,Tr19,19,,,,,0,84,84,84,,,,,,,,,3,0.500510729788,,,,,2018_may._04_1059,60.0410202824,Experimento Piloto1,001,105,
2.5,Stim\\03_078.jpg,Tr78_11,Tristeza,11,María asiste a la cena.,Afirmación,Tr78,78,,,,,0,85,85,85,,,,,,,,,4,0.450421725807,,,,,2018_may._04_1059,60.0410202824,Experimento Piloto1,001,105,
2.5,Stim\\05_019.jpg,En19_1,Enojo,1,Juan colecciona monedas antiguas.,Afirmación,En19,19,,,,,0,86,86,86,,,,,,,,,2,0.549979896569,,,,,2018_may._04_1059,60.0410202824,Experimento Piloto1,001,105,
0.25,Stim\\02_075.jpg,Al75_10,Alegría,10,Laura finaliza la obra.,Afirmación,Al75,75,,,,,0,87,87,87,,,,,,,,,3,0.333641987567,,,,,2018_may._04_1059,60.0410202824,Experimento Piloto1,001,105,
2.5,Stim\\02_019.jpg,Al19_14,Alegría,14,Elizabeth elige la ropa un día antes.,Afirmación,Al19,19,,,,,0,88,88,88,,,,,,,,,3,0.5003175048,,,,,2018_may._04_1059,60.0410202824,Experimento Piloto1,001,105,
0.25,Stim\\03_028.jpg,Tr28_6,Tristeza,6,Eduardo camina hacia la biblioteca.,Afirmación,Tr28,28,,,,,0,89,89,89,,,,,,,,,4,0.333791926587,,,,,2018_may._04_1059,60.0410202824,Experimento Piloto1,001,105,
0.25,Stim\\02_075.jpg,Al75_8,Alegría,8,Estefanía despierta a las 7 a.m.,Afirmación,Al75,75,,,,,0,90,90,90,,,,,,,,,3,0.483954962959,,,,,2018_may._04_1059,60.0410202824,Experimento Piloto1,001,105,
2.5,Stim\\02_019.jpg,Al19_6,Alegría,6,Eduardo camina hacia la biblioteca.,Afirmación,Al19,19,,,,,0,91,91,91,,,,,,,,,3,0.600456689266,,,,,2018_may._04_1059,60.0410202824,Experimento Piloto1,001,105,
2.5,Stim\\03_078.jpg,Tr78_7,Tristeza,7,Roberto contesta los cuestionarios solicitados.,Afirmación,Tr78,78,,,,,0,92,92,92,,,,,,,,,4,1.21667839553,,,,,2018_may._04_1059,60.0410202824,Experimento Piloto1,001,105,
2.5,Stim\\02_028.jpg,Al28_8,Alegría,8,Estefanía despierta a las 7 a.m.,Afirmación,Al28,28,,,,,0,93,93,93,,,,,,,,,3,0.38390502791,,,,,2018_may._04_1059,60.0410202824,Experimento Piloto1,001,105,
0.25,Stim\\03_075.jpg,Tr75_13,Tristeza,13,Rocío consume alimentos nutritivos.,Afirmación,Tr75,75,,,,,0,94,94,94,,,,,,,,,4,0.400356372922,,,,,2018_may._04_1059,60.0410202824,Experimento Piloto1,001,105,
2.5,Stim\\02_075.jpg,Al75_6,Alegría,6,Eduardo camina hacia la biblioteca.,Afirmación,Al75,75,,,,,0,95,95,95,,,,,,,,,3,0.400369314087,,,,,2018_may._04_1059,60.0410202824,Experimento Piloto1,001,105,
0.25,Stim\\02_028.jpg,Al28_9,Alegría,9,Marco colabora en la organización del evento.,Afirmación,Al28,28,,,,,0,96,96,96,,,,,,,,,3,0.400461240986,,,,,2018_may._04_1059,60.0410202824,Experimento Piloto1,001,105,
0.25,Stim\\02_019.jpg,Al19_8,Alegría,8,Estefanía despierta a las 7 a.m.,Afirmación,Al19,19,,,,,0,97,97,97,,,,,,,,,3,0.850359965211,,,,,2018_may._04_1059,60.0410202824,Experimento Piloto1,001,105,
2.5,Stim\\02_019.jpg,Al19_1,Alegría,1,Juan colecciona monedas antiguas.,Afirmación,Al19,19,,,,,0,98,98,98,,,,,,,,,3,0.383754642643,,,,,2018_may._04_1059,60.0410202824,Experimento Piloto1,001,105,
0.25,Stim\\02_019.jpg,Al19_5,Alegría,5,Emilio revisa el formato del archivo.,Afirmación,Al19,19,,,,,0,99,99,99,,,,,,,,,3,0.799761347059,,,,,2018_may._04_1059,60.0410202824,Experimento Piloto1,001,105,
2.5,Stim\\02_078.jpg,Al78_13,Alegría,13,Rocío consume alimentos nutritivos.,Afirmación,Al78,78,,,,,0,100,100,100,,,,,,,,,3,0.600504437704,,,,,2018_may._04_1059,60.0410202824,Experimento Piloto1,001,105,
2.5,Stim\\05_078.jpg,En78_12,Enojo,12,Ana compra el libro.,Afirmación,En78,78,,,,,0,101,101,101,,,,,,,,,2,0.45053908879,,,,,2018_may._04_1059,60.0410202824,Experimento Piloto1,001,105,
2.5,Stim\\03_075.jpg,Tr75_11,Tristeza,11,María asiste a la cena.,Afirmación,Tr75,75,,,,,0,102,102,102,,,,,,,,,4,0.350902824789,,,,,2018_may._04_1059,60.0410202824,Experimento Piloto1,001,105,
0.25,Stim\\02_078.jpg,Al78_13,Alegría,13,Rocío consume alimentos nutritivos.,Afirmación,Al78,78,,,,,0,103,103,103,,,,,,,,,3,0.400791910076,,,,,2018_may._04_1059,60.0410202824,Experimento Piloto1,001,105,
0.25,Stim\\03_075.jpg,Tr75_11,Tristeza,11,María asiste a la cena.,Afirmación,Tr75,75,,,,,0,104,104,104,,,,,,,,,4,0.350350370898,,,,,2018_may._04_1059,60.0410202824,Experimento Piloto1,001,105,
2.5,Stim\\05_075.jpg,En75_8,Enojo,8,Estefanía despierta a las 7 a.m.,Afirmación,En75,75,,,,,0,105,105,105,,,,,,,,,2,0.583805871808,,,,,2018_may._04_1059,60.0410202824,Experimento Piloto1,001,105,
2.5,Stim\\03_078.jpg,Tr78_2,Tristeza,2,Jonathan pasea al perro.,Afirmación,Tr78,78,,,,,0,106,106,106,,,,,,,,,4,1.16686829597,,,,,2018_may._04_1059,60.0410202824,Experimento Piloto1,001,105,
2.5,Stim\\03_078.jpg,Tr78_12,Tristeza,12,Ana compra el libro.,Afirmación,Tr78,78,,,,,0,107,107,107,,,,,,,,,4,0.400272924717,,,,,2018_may._04_1059,60.0410202824,Experimento Piloto1,001,105,
2.5,Stim\\05_019.jpg,En19_10,Enojo,10,Laura finaliza la obra.,Afirmación,En19,19,,,,,0,108,108,108,,,,,,,,,2,0.333423326495,,,,,2018_may._04_1059,60.0410202824,Experimento Piloto1,001,105,
2.5,Stim\\05_078.jpg,En78_15,Enojo,15,Ángel envía una carta a la abuela.,Afirmación,En78,78,,,,,0,109,109,109,,,,,,,,,2,0.350352602134,,,,,2018_may._04_1059,60.0410202824,Experimento Piloto1,001,105,
0.25,Stim\\02_028.jpg,Al28_15,Alegría,15,Ángel envía una carta a la abuela.,Afirmación,Al28,28,,,,,0,110,110,110,,,,,,,,,3,0.350627490338,,,,,2018_may._04_1059,60.0410202824,Experimento Piloto1,001,105,
2.5,Stim\\02_075.jpg,Al75_13,Alegría,13,Rocío consume alimentos nutritivos.,Afirmación,Al75,75,,,,,0,111,111,111,,,,,,,,,3,0.400407691336,,,,,2018_may._04_1059,60.0410202824,Experimento Piloto1,001,105,
2.5,Stim\\02_078.jpg,Al78_5,Alegría,5,Emilio revisa el formato del archivo.,Afirmación,Al78,78,,,,,0,112,112,112,,,,,,,,,3,0.600263910526,,,,,2018_may._04_1059,60.0410202824,Experimento Piloto1,001,105,
2.5,Stim\\05_019.jpg,En19_12,Enojo,12,Ana compra el libro.,Afirmación,En19,19,,,,,0,113,113,113,,,,,,,,,2,0.45066314548,,,,,2018_may._04_1059,60.0410202824,Experimento Piloto1,001,105,
2.5,Stim\\03_028.jpg,Tr28_13,Tristeza,13,Rocío consume alimentos nutritivos.,Afirmación,Tr28,28,,,,,0,114,114,114,,,,,,,,,4,1.31662970997,,,,,2018_may._04_1059,60.0410202824,Experimento Piloto1,001,105,
2.5,Stim\\02_075.jpg,Al75_1,Alegría,1,Juan colecciona monedas antiguas.,Afirmación,Al75,75,,,,,0,115,115,115,,,,,,,,,3,0.550352512884,,,,,2018_may._04_1059,60.0410202824,Experimento Piloto1,001,105,
2.5,Stim\\02_028.jpg,Al28_3,Alegría,3,Andrea diseña la portada del libro.,Afirmación,Al28,28,,,,,0,116,116,116,,,,,,,,,3,0.400380916511,,,,,2018_may._04_1059,60.0410202824,Experimento Piloto1,001,105,
0.25,Stim\\05_028.jpg,En28_10,Enojo,10,Laura finaliza la obra.,Afirmación,En28,28,,,,,0,117,117,117,,,,,,,,,2,0.333813792694,,,,,2018_may._04_1059,60.0410202824,Experimento Piloto1,001,105,
0.25,Stim\\02_078.jpg,Al78_3,Alegría,3,Andrea diseña la portada del libro.,Afirmación,Al78,78,,,,,0,118,118,118,,,,,,,,,3,0.383459227073,,,,,2018_may._04_1059,60.0410202824,Experimento Piloto1,001,105,
2.5,Stim\\03_075.jpg,Tr75_15,Tristeza,15,Ángel envía una carta a la abuela.,Afirmación,Tr75,75,,,,,0,119,119,119,,,,,,,,,4,0.333602717823,,,,,2018_may._04_1059,60.0410202824,Experimento Piloto1,001,105,
0.25,Stim\\03_028.jpg,Tr28_2,Tristeza,2,Jonathan pasea al perro.,Afirmación,Tr28,28,,,,,,,,,0,0,0,0,,,,,,,4,1.16673799183,,,2018_may._04_1059,60.0410202824,Experimento Piloto1,001,105,
2.5,Stim\\05_075.jpg,En75_12,Enojo,12,Ana compra el libro.,Afirmación,En75,75,,,,,,,,,0,1,1,1,,,,,,,2,1.31645835109,,,2018_may._04_1059,60.0410202824,Experimento Piloto1,001,105,
0.25,Stim\\02_078.jpg,Al78_11,Alegría,11,María asiste a la cena.,Afirmación,Al78,78,,,,,,,,,0,2,2,2,,,,,,,3,0.533805670997,,,2018_may._04_1059,60.0410202824,Experimento Piloto1,001,105,
0.25,Stim\\02_078.jpg,Al78_8,Alegría,8,Estefanía despierta a las 7 a.m.,Afirmación,Al78,78,,,,,,,,,0,3,3,3,,,,,,,3,0.700233521099,,,2018_may._04_1059,60.0410202824,Experimento Piloto1,001,105,
0.25,Stim\\05_028.jpg,En28_6,Enojo,6,Eduardo camina hacia la biblioteca.,Afirmación,En28,28,,,,,,,,,0,4,4,4,,,,,,,2,0.800427147709,,,2018_may._04_1059,60.0410202824,Experimento Piloto1,001,105,
0.25,Stim\\02_019.jpg,Al19_14,Alegría,14,Elizabeth elige la ropa un día antes.,Afirmación,Al19,19,,,,,,,,,0,5,5,5,,,,,,,3,0.750398833332,,,2018_may._04_1059,60.0410202824,Experimento Piloto1,001,105,
2.5,Stim\\05_078.jpg,En78_1,Enojo,1,Juan colecciona monedas antiguas.,Afirmación,En78,78,,,,,,,,,0,6,6,6,,,,,,,2,0.816888756403,,,2018_may._04_1059,60.0410202824,Experimento Piloto1,001,105,
2.5,Stim\\02_078.jpg,Al78_15,Alegría,15,Ángel envía una carta a la abuela.,Afirmación,Al78,78,,,,,,,,,0,7,7,7,,,,,,,3,4.96571706775,,,2018_may._04_1059,60.0410202824,Experimento Piloto1,001,105,
0.25,Stim\\02_075.jpg,Al75_14,Alegría,14,Elizabeth elige la ropa un día antes.,Afirmación,Al75,75,,,,,,,,,0,8,8,8,,,,,,,3,0.600250523113,,,2018_may._04_1059,60.0410202824,Experimento Piloto1,001,105,
2.5,Stim\\02_075.jpg,Al75_2,Alegría,2,Jonathan pasea al perro.,Afirmación,Al75,75,,,,,,,,,0,9,9,9,,,,,,,3,0.600266141761,,,2018_may._04_1059,60.0410202824,Experimento Piloto1,001,105,
0.25,Stim\\05_075.jpg,En75_12,Enojo,12,Ana compra el libro.,Afirmación,En75,75,,,,,,,,,0,10,10,10,,,,,,,2,0.400317549425,,,2018_may._04_1059,60.0410202824,Experimento Piloto1,001,105,
2.5,Stim\\03_078.jpg,Tr78_8,Tristeza,8,Estefanía despierta a las 7 a.m.,Afirmación,Tr78,78,,,,,,,,,0,11,11,11,,,,,,,4,0.866739018194,,,2018_may._04_1059,60.0410202824,Experimento Piloto1,001,105,
0.25,Stim\\03_078.jpg,Tr78_15,Tristeza,15,Ángel envía una carta a la abuela.,Afirmación,Tr78,78,,,,,,,,,0,12,12,12,,,,,,,4,0.450464565527,,,2018_may._04_1059,60.0410202824,Experimento Piloto1,001,105,
0.25,Stim\\03_078.jpg,Tr78_5,Tristeza,5,Emilio revisa el formato del archivo.,Afirmación,Tr78,78,,,,,,,,,0,13,13,13,,,,,,,4,0.551139246494,,,2018_may._04_1059,60.0410202824,Experimento Piloto1,001,105,
2.5,Stim\\02_019.jpg,Al19_5,Alegría,5,Emilio revisa el formato del archivo.,Afirmación,Al19,19,,,,,,,,,0,14,14,14,,,,,,,3,1.00017939133,,,2018_may._04_1059,60.0410202824,Experimento Piloto1,001,105,
2.5,Stim\\03_075.jpg,Tr75_10,Tristeza,10,Laura finaliza la obra.,Afirmación,Tr75,75,,,,,,,,,0,15,15,15,,,,,,,3,0.75026138923,,,2018_may._04_1059,60.0410202824,Experimento Piloto1,001,105,
2.5,Stim\\03_075.jpg,Tr75_4,Tristeza,4,Jorge sustituye a Gustavo cada sábado.,Afirmación,Tr75,75,,,,,,,,,0,16,16,16,,,,,,,4,0.550227563701,,,2018_may._04_1059,60.0410202824,Experimento Piloto1,001,105,
0.25,Stim\\03_028.jpg,Tr28_5,Tristeza,5,Emilio revisa el formato del archivo.,Afirmación,Tr28,28,,,,,,,,,0,17,17,17,,,,,,,4,0.50034517212,,,2018_may._04_1059,60.0410202824,Experimento Piloto1,001,105,
0.25,Stim\\05_075.jpg,En75_11,Enojo,11,María asiste a la cena.,Afirmación,En75,75,,,,,,,,,0,18,18,18,,,,,,,2,0.500307241118,,,2018_may._04_1059,60.0410202824,Experimento Piloto1,001,105,
0.25,Stim\\02_075.jpg,Al75_6,Alegría,6,Eduardo camina hacia la biblioteca.,Afirmación,Al75,75,,,,,,,,,0,19,19,19,,,,,,,3,0.600300502786,,,2018_may._04_1059,60.0410202824,Experimento Piloto1,001,105,
0.25,Stim\\05_078.jpg,En78_1,Enojo,1,Juan colecciona monedas antiguas.,Afirmación,En78,78,,,,,,,,,0,20,20,20,,,,,,,2,0.700228166134,,,2018_may._04_1059,60.0410202824,Experimento Piloto1,001,105,
2.5,Stim\\03_019.jpg,Tr19_4,Tristeza,4,Jorge sustituye a Gustavo cada sábado.,Afirmación,Tr19,19,,,,,,,,,0,21,21,21,,,,,,,3,0.700463784595,,,2018_may._04_1059,60.0410202824,Experimento Piloto1,001,105,
0.25,Stim\\03_028.jpg,Tr28_11,Tristeza,11,María asiste a la cena.,Afirmación,Tr28,28,,,,,,,,,0,22,22,22,,,,,,,4,0.549985251534,,,2018_may._04_1059,60.0410202824,Experimento Piloto1,001,105,
0.25,Stim\\02_019.jpg,Al19_7,Alegría,7,Roberto contesta los cuestionarios solicitados.,Afirmación,Al19,19,,,,,,,,,0,23,23,23,,,,,,,3,0.750245770582,,,2018_may._04_1059,60.0410202824,Experimento Piloto1,001,105,
0.25,Stim\\05_028.jpg,En28_1,Enojo,1,Juan colecciona monedas antiguas.,Afirmación,En28,28,,,,,,,,,0,24,24,24,,,,,,,2,0.600334417565,,,2018_may._04_1059,60.0410202824,Experimento Piloto1,001,105,
0.25,Stim\\03_019.jpg,Tr19_6,Tristeza,6,Eduardo camina hacia la biblioteca.,Afirmación,Tr19,19,,,,,,,,,0,25,25,25,,,,,,,3,0.450320873966,,,2018_may._04_1059,60.0410202824,Experimento Piloto1,001,105,
0.25,Stim\\03_078.jpg,Tr78_7,Tristeza,7,Roberto contesta los cuestionarios solicitados.,Afirmación,Tr78,78,,,,,,,,,0,26,26,26,,,,,,,4,0.450405660912,,,2018_may._04_1059,60.0410202824,Experimento Piloto1,001,105,
2.5,Stim\\03_019.jpg,Tr19_15,Tristeza,15,Ángel envía una carta a la abuela.,Afirmación,Tr19,19,,,,,,,,,0,27,27,27,,,,,,,3,0.950262192474,,,2018_may._04_1059,60.0410202824,Experimento Piloto1,001,105,
2.5,Stim\\02_028.jpg,Al28_4,Alegría,4,Jorge sustituye a Gustavo cada sábado.,Afirmación,Al28,28,,,,,,,,,0,28,28,28,,,,,,,3,0.500265740139,,,2018_may._04_1059,60.0410202824,Experimento Piloto1,001,105,
2.5,Stim\\03_078.jpg,Tr78_5,Tristeza,5,Emilio revisa el formato del archivo.,Afirmación,Tr78,78,,,,,,,,,0,29,29,29,,,,,,,4,0.450259738116,,,2018_may._04_1059,60.0410202824,Experimento Piloto1,001,105,
2.5,Stim\\03_028.jpg,Tr28_12,Tristeza,12,Ana compra el libro.,Afirmación,Tr28,28,,,,,,,,,0,30,30,30,,,,,,,4,0.650253401407,,,2018_may._04_1059,60.0410202824,Experimento Piloto1,001,105,
0.25,Stim\\02_028.jpg,Al28_2,Alegría,2,Jonathan pasea al perro.,Afirmación,Al28,28,,,,,,,,,0,31,31,31,,,,,,,3,0.950274687393,,,2018_may._04_1059,60.0410202824,Experimento Piloto1,001,105,
0.25,Stim\\05_019.jpg,En19_8,Enojo,8,Estefanía despierta a las 7 a.m.,Afirmación,En19,19,,,,,,,,,0,32,32,32,,,,,,,2,0.550389105145,,,2018_may._04_1059,60.0410202824,Experimento Piloto1,001,105,
0.25,Stim\\03_019.jpg,Tr19_9,Tristeza,9,Marco colabora en la organización del evento.,Afirmación,Tr19,19,,,,,,,,,0,33,33,33,,,,,,,3,0.450265985575,,,2018_may._04_1059,60.0410202824,Experimento Piloto1,001,105,
2.5,Stim\\02_078.jpg,Al78_10,Alegría,10,Laura finaliza la obra.,Afirmación,Al78,78,,,,,,,,,0,34,34,34,,,,,,,3,0.90012320882,,,2018_may._04_1059,60.0410202824,Experimento Piloto1,001,105,
2.5,Stim\\02_075.jpg,Al75_15,Alegría,15,Ángel envía una carta a la abuela.,Afirmación,Al75,75,,,,,,,,,0,35,35,35,,,,,,,3,1.21673551515,,,2018_may._04_1059,60.0410202824,Experimento Piloto1,001,105,
2.5,Stim\\03_028.jpg,Tr28_6,Tristeza,6,Eduardo camina hacia la biblioteca.,Afirmación,Tr28,28,,,,,,,,,0,36,36,36,,,,,,,4,0.550284683327,,,2018_may._04_1059,60.0410202824,Experimento Piloto1,001,105,
0.25,Stim\\03_075.jpg,Tr75_14,Tristeza,14,Elizabeth elige la ropa un día antes.,Afirmación,Tr75,75,,,,,,,,,0,37,37,37,,,,,,,4,0.550313689388,,,2018_may._04_1059,60.0410202824,Experimento Piloto1,001,105,
2.5,Stim\\05_075.jpg,En75_13,Enojo,13,Rocío consume alimentos nutritivos.,Afirmación,En75,75,,,,,,,,,0,38,38,38,,,,,,,2,0.500251906479,,,2018_may._04_1059,60.0410202824,Experimento Piloto1,001,105,
2.5,Stim\\03_075.jpg,Tr75_8,Tristeza,8,Estefanía despierta a las 7 a.m.,Afirmación,Tr75,75,,,,,,,,,0,39,39,39,,,,,,,4,0.500303671141,,,2018_may._04_1059,60.0410202824,Experimento Piloto1,001,105,
0.25,Stim\\05_075.jpg,En75_7,Enojo,7,Roberto contesta los cuestionarios solicitados.,Afirmación,En75,75,,,,,,,,,0,40,40,40,,,,,,,2,0.600306750246,,,2018_may._04_1059,60.0410202824,Experimento Piloto1,001,105,
2.5,Stim\\03_019.jpg,Tr19_10,Tristeza,10,Laura finaliza la obra.,Afirmación,Tr19,19,,,,,,,,,0,41,41,41,,,,,,,3,1.26675222711,,,2018_may._04_1059,60.0410202824,Experimento Piloto1,001,105,
2.5,Stim\\03_019.jpg,Tr19_2,Tristeza,2,Jonathan pasea al perro.,Afirmación,Tr19,19,,,,,,,,,0,42,42,42,,,,,,,3,0.383652005814,,,2018_may._04_1059,60.0410202824,Experimento Piloto1,001,105,
0.25,Stim\\03_075.jpg,Tr75_15,Tristeza,15,Ángel envía una carta a la abuela.,Afirmación,Tr75,75,,,,,,,,,0,43,43,43,,,,,,,4,0.500314827318,,,2018_may._04_1059,60.0410202824,Experimento Piloto1,001,105,
0.25,Stim\\05_019.jpg,En19_1,Enojo,1,Juan colecciona monedas antiguas.,Afirmación,En19,19,,,,,,,,,0,44,44,44,,,,,,,2,0.499981034499,,,2018_may._04_1059,60.0410202824,Experimento Piloto1,001,105,
0.25,Stim\\03_078.jpg,Tr78_2,Tristeza,2,Jonathan pasea al perro.,Afirmación,Tr78,78,,,,,,,,,0,45,45,45,,,,,,,4,0.50032821473,,,2018_may._04_1059,60.0410202824,Experimento Piloto1,001,105,
2.5,Stim\\02_019.jpg,Al19_9,Alegría,9,Marco colabora en la organización del evento.,Afirmación,Al19,19,,,,,,,,,0,46,46,46,,,,,,,3,0.850135949174,,,2018_may._04_1059,60.0410202824,Experimento Piloto1,001,105,
2.5,Stim\\03_028.jpg,Tr28_11,Tristeza,11,María asiste a la cena.,Afirmación,Tr28,28,,,,,,,,,0,47,47,47,,,,,,,4,1.26685798767,,,2018_may._04_1059,60.0410202824,Experimento Piloto1,001,105,
2.5,Stim\\05_078.jpg,En78_6,Enojo,6,Eduardo camina hacia la biblioteca.,Afirmación,En78,78,,,,,,,,,0,48,48,48,,,,,,,2,0.550627847335,,,2018_may._04_1059,60.0410202824,Experimento Piloto1,001,105,
2.5,Stim\\02_028.jpg,Al28_14,Alegría,14,Elizabeth elige la ropa un día antes.,Afirmación,Al28,28,,,,,,,,,0,49,49,49,,,,,,,3,0.400417508772,,,2018_may._04_1059,60.0410202824,Experimento Piloto1,001,105,
0.25,Stim\\03_019.jpg,Tr19_10,Tristeza,10,Laura finaliza la obra.,Afirmación,Tr19,19,,,,,,,,,0,50,50,50,,,,,,,3,0.550315028129,,,2018_may._04_1059,60.0410202824,Experimento Piloto1,001,105,
2.5,Stim\\05_019.jpg,En19_2,Enojo,2,Jonathan pasea al perro.,Afirmación,En19,19,,,,,,,,,0,51,51,51,,,,,,,2,0.550677380762,,,2018_may._04_1059,60.0410202824,Experimento Piloto1,001,105,
0.25,Stim\\05_078.jpg,En78_5,Enojo,5,Emilio revisa el formato del archivo.,Afirmación,En78,78,,,,,,,,,0,52,52,52,,,,,,,2,0.449999129818,,,2018_may._04_1059,60.0410202824,Experimento Piloto1,001,105,
2.5,Stim\\02_075.jpg,Al75_5,Alegría,5,Emilio revisa el formato del archivo.,Afirmación,Al75,75,,,,,,,,,0,53,53,53,,,,,,,3,0.650238675253,,,2018_may._04_1059,60.0410202824,Experimento Piloto1,001,105,
0.25,Stim\\05_028.jpg,En28_9,Enojo,9,Marco colabora en la organización del evento.,Afirmación,En28,28,,,,,,,,,0,54,54,54,,,,,,,2,0.533661533189,,,2018_may._04_1059,60.0410202824,Experimento Piloto1,001,105,
2.5,Stim\\03_019.jpg,Tr19_1,Tristeza,1,Juan colecciona monedas antiguas.,Afirmación,Tr19,19,,,,,,,,,0,55,55,55,,,,,,,3,0.550286468316,,,2018_may._04_1059,60.0410202824,Experimento Piloto1,001,105,
0.25,Stim\\02_028.jpg,Al28_3,Alegría,3,Andrea diseña la portada del libro.,Afirmación,Al28,28,,,,,,,,,0,56,56,56,,,,,,,3,0.800253111346,,,2018_may._04_1059,60.0410202824,Experimento Piloto1,001,105,
0.25,Stim\\05_028.jpg,En28_5,Enojo,5,Emilio revisa el formato del archivo.,Afirmación,En28,28,,,,,,,,,0,57,57,57,,,,,,,2,1.26674151718,,,2018_may._04_1059,60.0410202824,Experimento Piloto1,001,105,
2.5,Stim\\03_078.jpg,Tr78_15,Tristeza,15,Ángel envía una carta a la abuela.,Afirmación,Tr78,78,,,,,,,,,0,58,58,58,,,,,,,4,1.21675559627,,,2018_may._04_1059,60.0410202824,Experimento Piloto1,001,105,
0.25,Stim\\02_078.jpg,Al78_10,Alegría,10,Laura finaliza la obra.,Afirmación,Al78,78,,,,,,,,,0,59,59,59,,,,,,,3,1.36680037717,,,2018_may._04_1059,60.0410202824,Experimento Piloto1,001,105,
0.25,Stim\\03_075.jpg,Tr75_7,Tristeza,7,Roberto contesta los cuestionarios solicitados.,Afirmación,Tr75,75,,,,,,,,,0,60,60,60,,,,,,,4,0.650230642805,,,2018_may._04_1059,60.0410202824,Experimento Piloto1,001,105,
0.25,Stim\\03_075.jpg,Tr75_5,Tristeza,5,Emilio revisa el formato del archivo.,Afirmación,Tr75,75,,,,,,,,,0,61,61,61,,,,,,,3,1.11671637115,,,2018_may._04_1059,60.0410202824,Experimento Piloto1,001,105,
0.25,Stim\\05_075.jpg,En75_14,Enojo,14,Elizabeth elige la ropa un día antes.,Afirmación,En75,75,,,,,,,,,0,62,62,62,,,,,,,2,0.349937146098,,,2018_may._04_1059,60.0410202824,Experimento Piloto1,001,105,
0.25,Stim\\05_075.jpg,En75_2,Enojo,2,Jonathan pasea al perro.,Afirmación,En75,75,,,,,,,,,0,63,63,63,,,,,,,2,2.59958070624,,,2018_may._04_1059,60.0410202824,Experimento Piloto1,001,105,
0.25,Stim\\02_078.jpg,Al78_6,Alegría,6,Eduardo camina hacia la biblioteca.,Afirmación,Al78,78,,,,,,,,,0,64,64,64,,,,,,,3,0.700214778722,,,2018_may._04_1059,60.0410202824,Experimento Piloto1,001,105,
0.25,Stim\\03_075.jpg,Tr75_4,Tristeza,4,Jorge sustituye a Gustavo cada sábado.,Afirmación,Tr75,75,,,,,,,,,0,65,65,65,,,,,,,4,0.550312796894,,,2018_may._04_1059,60.0410202824,Experimento Piloto1,001,105,
0.25,Stim\\03_075.jpg,Tr75_3,Tristeza,3,Andrea diseña la portada del libro.,Afirmación,Tr75,75,,,,,,,,,0,66,66,66,,,,,,,4,0.700444149723,,,2018_may._04_1059,60.0410202824,Experimento Piloto1,001,105,
0.25,Stim\\02_028.jpg,Al28_10,Alegría,10,Laura finaliza la obra.,Afirmación,Al28,28,,,,,,,,,0,67,67,67,,,,,,,3,0.483897843332,,,2018_may._04_1059,60.0410202824,Experimento Piloto1,001,105,
0.25,Stim\\03_028.jpg,Tr28_12,Tristeza,12,Ana compra el libro.,Afirmación,Tr28,28,,,,,,,,,0,68,68,68,,,,,,,3,1.16676565915,,,2018_may._04_1059,60.0410202824,Experimento Piloto1,001,105,
0.25,Stim\\03_075.jpg,Tr75_10,Tristeza,10,Laura finaliza la obra.,Afirmación,Tr75,75,,,,,,,,,0,69,69,69,,,,,,,3,1.61662243614,,,2018_may._04_1059,60.0410202824,Experimento Piloto1,001,105,
0.25,Stim\\02_028.jpg,Al28_8,Alegría,8,Estefanía despierta a las 7 a.m.,Afirmación,Al28,28,,,,,,,,,0,70,70,70,,,,,,,3,0.450277587999,,,2018_may._04_1059,60.0410202824,Experimento Piloto1,001,105,
0.25,Stim\\05_078.jpg,En78_14,Enojo,14,Elizabeth elige la ropa un día antes.,Afirmación,En78,78,,,,,,,,,0,71,71,71,,,,,,,2,0.549875474751,,,2018_may._04_1059,60.0410202824,Experimento Piloto1,001,105,
2.5,Stim\\03_078.jpg,Tr78_9,Tristeza,9,Marco colabora en la organización del evento.,Afirmación,Tr78,78,,,,,,,,,0,72,72,72,,,,,,,4,0.450359697462,,,2018_may._04_1059,60.0410202824,Experimento Piloto1,001,105,
0.25,Stim\\02_019.jpg,Al19_3,Alegría,3,Andrea diseña la portada del libro.,Afirmación,Al19,19,,,,,,,,,0,73,73,73,,,,,,,3,1.0167820141,,,2018_may._04_1059,60.0410202824,Experimento Piloto1,001,105,
0.25,Stim\\03_078.jpg,Tr78_6,Tristeza,6,Eduardo camina hacia la biblioteca.,Afirmación,Tr78,78,,,,,,,,,0,74,74,74,,,,,,,4,1.98303680958,,,2018_may._04_1059,60.0410202824,Experimento Piloto1,001,105,
0.25,Stim\\03_028.jpg,Tr28_8,Tristeza,8,Estefanía despierta a las 7 a.m.,Afirmación,Tr28,28,,,,,,,,,0,75,75,75,,,,,,,4,0.750174817295,,,2018_may._04_1059,60.0410202824,Experimento Piloto1,001,105,
2.5,Stim\\05_078.jpg,En78_9,Enojo,9,Marco colabora en la organización del evento.,Afirmación,En78,78,,,,,,,,,0,76,76,76,,,,,,,2,0.550355190367,,,2018_may._04_1059,60.0410202824,Experimento Piloto1,001,105,
2.5,Stim\\02_028.jpg,Al28_6,Alegría,6,Eduardo camina hacia la biblioteca.,Afirmación,Al28,28,,,,,,,,,0,77,77,77,,,,,,,3,0.450301685341,,,2018_may._04_1059,60.0410202824,Experimento Piloto1,001,105,
2.5,Stim\\03_078.jpg,Tr78_6,Tristeza,6,Eduardo camina hacia la biblioteca.,Afirmación,Tr78,78,,,,,,,,,0,78,78,78,,,,,,,4,0.600219285817,,,2018_may._04_1059,60.0410202824,Experimento Piloto1,001,105,
2.5,Stim\\02_078.jpg,Al78_2,Alegría,2,Jonathan pasea al perro.,Afirmación,Al78,78,,,,,,,,,0,79,79,79,,,,,,,3,0.350242379104,,,2018_may._04_1059,60.0410202824,Experimento Piloto1,001,105,
2.5,Stim\\02_028.jpg,Al28_10,Alegría,10,Laura finaliza la obra.,Afirmación,Al28,28,,,,,,,,,0,80,80,80,,,,,,,3,0.45032176646,,,2018_may._04_1059,60.0410202824,Experimento Piloto1,001,105,
2.5,Stim\\02_019.jpg,Al19_15,Alegría,15,Ángel envía una carta a la abuela.,Afirmación,Al19,19,,,,,,,,,0,81,81,81,,,,,,,3,0.60021125337,,,2018_may._04_1059,60.0410202824,Experimento Piloto1,001,105,
0.25,Stim\\03_019.jpg,Tr19_5,Tristeza,5,Emilio revisa el formato del archivo.,Afirmación,Tr19,19,,,,,,,,,0,82,82,82,,,,,,,2,0.750351084894,,,2018_may._04_1059,60.0410202824,Experimento Piloto1,001,105,
0.25,Stim\\02_075.jpg,Al75_12,Alegría,12,Ana compra el libro.,Afirmación,Al75,75,,,,,,,,,0,83,83,83,,,,,,,3,0.40030460826,,,2018_may._04_1059,60.0410202824,Experimento Piloto1,001,105,
2.5,Stim\\05_078.jpg,En78_3,Enojo,3,Andrea diseña la portada del libro.,Afirmación,En78,78,,,,,,,,,0,84,84,84,,,,,,,2,0.500045294079,,,2018_may._04_1059,60.0410202824,Experimento Piloto1,001,105,
2.5,Stim\\03_075.jpg,Tr75_5,Tristeza,5,Emilio revisa el formato del archivo.,Afirmación,Tr75,75,,,,,,,,,0,85,85,85,,,,,,,4,0.583811226773,,,2018_may._04_1059,60.0410202824,Experimento Piloto1,001,105,
2.5,Stim\\05_028.jpg,En28_2,Enojo,2,Jonathan pasea al perro.,Afirmación,En28,28,,,,,,,,,0,86,86,86,,,,,,,2,0.45031105653,,,2018_may._04_1059,60.0410202824,Experimento Piloto1,001,105,
0.25,Stim\\03_028.jpg,Tr28_9,Tristeza,9,Marco colabora en la organización del evento.,Afirmación,Tr28,28,,,,,,,,,0,87,87,87,,,,,,,4,1.46662406495,,,2018_may._04_1059,60.0410202824,Experimento Piloto1,001,105,
0.25,Stim\\03_078.jpg,Tr78_9,Tristeza,9,Marco colabora en la organización del evento.,Afirmación,Tr78,78,,,,,,,,,0,88,88,88,,,,,,,4,0.500329107225,,,2018_may._04_1059,60.0410202824,Experimento Piloto1,001,105,
2.5,Stim\\03_075.jpg,Tr75_12,Tristeza,12,Ana compra el libro.,Afirmación,Tr75,75,,,,,,,,,0,89,89,89,,,,,,,4,1.88326756395,,,2018_may._04_1059,60.0410202824,Experimento Piloto1,001,105,
2.5,Stim\\05_078.jpg,En78_11,Enojo,11,María asiste a la cena.,Afirmación,En78,78,,,,,,,,,0,90,90,90,,,,,,,2,0.500312596082,,,2018_may._04_1059,60.0410202824,Experimento Piloto1,001,105,
2.5,Stim\\02_075.jpg,Al75_14,Alegría,14,Elizabeth elige la ropa un día antes.,Afirmación,Al75,75,,,,,,,,,0,91,91,91,,,,,,,3,0.600327277612,,,2018_may._04_1059,60.0410202824,Experimento Piloto1,001,105,
0.25,Stim\\03_019.jpg,Tr19_7,Tristeza,7,Roberto contesta los cuestionarios solicitados.,Afirmación,Tr19,19,,,,,,,,,0,92,92,92,,,,,,,3,0.450347648791,,,2018_may._04_1059,60.0410202824,Experimento Piloto1,001,105,
0.25,Stim\\05_075.jpg,En75_5,Enojo,5,Emilio revisa el formato del archivo.,Afirmación,En75,75,,,,,,,,,0,93,93,93,,,,,,,2,0.433951192171,,,2018_may._04_1059,60.0410202824,Experimento Piloto1,001,105,
2.5,Stim\\05_019.jpg,En19_14,Enojo,14,Elizabeth elige la ropa un día antes.,Afirmación,En19,19,,,,,,,,,0,94,94,94,,,,,,,2,0.950117608419,,,2018_may._04_1059,60.0410202824,Experimento Piloto1,001,105,
0.25,Stim\\02_075.jpg,Al75_2,Alegría,2,Jonathan pasea al perro.,Afirmación,Al75,75,,,,,,,,,0,95,95,95,,,,,,,3,0.449992436112,,,2018_may._04_1059,60.0410202824,Experimento Piloto1,001,105,
2.5,Stim\\03_028.jpg,Tr28_10,Tristeza,10,Laura finaliza la obra.,Afirmación,Tr28,28,,,,,,,,,0,96,96,96,,,,,,,4,0.43363614173,,,2018_may._04_1059,60.0410202824,Experimento Piloto1,001,105,
2.5,Stim\\02_078.jpg,Al78_3,Alegría,3,Andrea diseña la portada del libro.,Afirmación,Al78,78,,,,,,,,,0,97,97,97,,,,,,,3,0.55004103242,,,2018_may._04_1059,60.0410202824,Experimento Piloto1,001,105,
2.5,Stim\\05_075.jpg,En75_3,Enojo,3,Andrea diseña la portada del libro.,Afirmación,En75,75,,,,,,,,,0,98,98,98,,,,,,,2,1.31675287417,,,2018_may._04_1059,60.0410202824,Experimento Piloto1,001,105,
2.5,Stim\\03_075.jpg,Tr75_3,Tristeza,3,Andrea diseña la portada del libro.,Afirmación,Tr75,75,,,,,,,,,0,99,99,99,,,,,,,4,1.83330350915,,,2018_may._04_1059,60.0410202824,Experimento Piloto1,001,105,
2.5,Stim\\03_075.jpg,Tr75_7,Tristeza,7,Roberto contesta los cuestionarios solicitados.,Afirmación,Tr75,75,,,,,,,,,0,100,100,100,,,,,,,4,0.333714725841,,,2018_may._04_1059,60.0410202824,Experimento Piloto1,001,105,
2.5,Stim\\03_019.jpg,Tr19_14,Tristeza,14,Elizabeth elige la ropa un día antes.,Afirmación,Tr19,19,,,,,,,,,0,101,101,101,,,,,,,3,0.600268819244,,,2018_may._04_1059,60.0410202824,Experimento Piloto1,001,105,
2.5,Stim\\05_078.jpg,En78_5,Enojo,5,Emilio revisa el formato del archivo.,Afirmación,En78,78,,,,,,,,,0,102,102,102,,,,,,,2,0.58364031414,,,2018_may._04_1059,60.0410202824,Experimento Piloto1,001,105,
2.5,Stim\\02_078.jpg,Al78_12,Alegría,12,Ana compra el libro.,Afirmación,Al78,78,,,,,,,,,0,103,103,103,,,,,,,3,0.550414541229,,,2018_may._04_1059,60.0410202824,Experimento Piloto1,001,105,
2.5,Stim\\02_028.jpg,Al28_13,Alegría,13,Rocío consume alimentos nutritivos.,Afirmación,Al28,28,,,,,,,,,0,104,104,104,,,,,,,3,0.650332833388,,,2018_may._04_1059,60.0410202824,Experimento Piloto1,001,105,
2.5,Stim\\05_028.jpg,En28_4,Enojo,4,Jorge sustituye a Gustavo cada sábado.,Afirmación,En28,28,,,,,,,,,0,105,105,105,,,,,,,2,0.383763567585,,,2018_may._04_1059,60.0410202824,Experimento Piloto1,001,105,
0.25,Stim\\02_028.jpg,Al28_7,Alegría,7,Roberto contesta los cuestionarios solicitados.,Afirmación,Al28,28,,,,,,,,,0,106,106,106,,,,,,,3,0.433566973432,,,2018_may._04_1059,60.0410202824,Experimento Piloto1,001,105,
0.25,Stim\\02_078.jpg,Al78_12,Alegría,12,Ana compra el libro.,Afirmación,Al78,78,,,,,,,,,0,107,107,107,,,,,,,3,0.90024726551,,,2018_may._04_1059,60.0410202824,Experimento Piloto1,001,105,
2.5,Stim\\02_028.jpg,Al28_7,Alegría,7,Roberto contesta los cuestionarios solicitados.,Afirmación,Al28,28,,,,,,,,,0,108,108,108,,,,,,,3,0.283731482419,,,2018_may._04_1059,60.0410202824,Experimento Piloto1,001,105,
0.25,Stim\\02_075.jpg,Al75_7,Alegría,7,Roberto contesta los cuestionarios solicitados.,Afirmación,Al75,75,,,,,,,,,0,109,109,109,,,,,,,3,0.950203287859,,,2018_may._04_1059,60.0410202824,Experimento Piloto1,001,105,
0.25,Stim\\05_075.jpg,En75_10,Enojo,10,Laura finaliza la obra.,Afirmación,En75,75,,,,,,,,,0,110,110,110,,,,,,,2,1.20020652315,,,2018_may._04_1059,60.0410202824,Experimento Piloto1,001,105,
2.5,Stim\\05_028.jpg,En28_8,Enojo,8,Estefanía despierta a las 7 a.m.,Afirmación,En28,28,,,,,,,,,0,111,111,111,,,,,,,2,0.650324354693,,,2018_may._04_1059,60.0410202824,Experimento Piloto1,001,105,
0.25,Stim\\03_075.jpg,Tr75_6,Tristeza,6,Eduardo camina hacia la biblioteca.,Afirmación,Tr75,75,,,,,,,,,0,112,112,112,,,,,,,4,0.450376208604,,,2018_may._04_1059,60.0410202824,Experimento Piloto1,001,105,
0.25,Stim\\02_078.jpg,Al78_4,Alegría,4,Jorge sustituye a Gustavo cada sábado.,Afirmación,Al78,78,,,,,,,,,0,113,113,113,,,,,,,3,0.450097304177,,,2018_may._04_1059,60.0410202824,Experimento Piloto1,001,105,
2.5,Stim\\02_019.jpg,Al19_13,Alegría,13,Rocío consume alimentos nutritivos.,Afirmación,Al19,19,,,,,,,,,0,114,114,114,,,,,,,3,0.33362458393,,,2018_may._04_1059,60.0410202824,Experimento Piloto1,001,105,
0.25,Stim\\02_078.jpg,Al78_15,Alegría,15,Ángel envía una carta a la abuela.,Afirmación,Al78,78,,,,,,,,,0,115,115,115,,,,,,,3,0.350254874022,,,2018_may._04_1059,60.0410202824,Experimento Piloto1,001,105,
2.5,Stim\\05_019.jpg,En19_4,Enojo,4,Jorge sustituye a Gustavo cada sábado.,Afirmación,En19,19,,,,,,,,,0,116,116,116,,,,,,,2,0.600242936913,,,2018_may._04_1059,60.0410202824,Experimento Piloto1,001,105,
2.5,Stim\\05_075.jpg,En75_9,Enojo,9,Marco colabora en la organización del evento.,Afirmación,En75,75,,,,,,,,,0,117,117,117,,,,,,,2,0.500483062469,,,2018_may._04_1059,60.0410202824,Experimento Piloto1,001,105,
0.25,Stim\\05_078.jpg,En78_8,Enojo,8,Estefanía despierta a las 7 a.m.,Afirmación,En78,78,,,,,,,,,0,118,118,118,,,,,,,2,0.333653589991,,,2018_may._04_1059,60.0410202824,Experimento Piloto1,001,105,
0.25,Stim\\03_075.jpg,Tr75_12,Tristeza,12,Ana compra el libro.,Afirmación,Tr75,75,,,,,,,,,0,119,119,119,,,,,,,4,0.433749488489,,,2018_may._04_1059,60.0410202824,Experimento Piloto1,001,105,
2.5,Stim\\03_028.jpg,Tr28_1,Tristeza,1,Juan colecciona monedas antiguas.,Afirmación,Tr28,28,,,,,,,,,,,,,0,0,0,0,,,,,4,0.500392920558,2018_may._04_1059,60.0410202824,Experimento Piloto1,001,105,
0.25,Stim\\03_019.jpg,Tr19_1,Tristeza,1,Juan colecciona monedas antiguas.,Afirmación,Tr19,19,,,,,,,,,,,,,0,1,1,1,,,,,3,0.383845677048,2018_may._04_1059,60.0410202824,Experimento Piloto1,001,105,
2.5,Stim\\03_078.jpg,Tr78_10,Tristeza,10,Laura finaliza la obra.,Afirmación,Tr78,78,,,,,,,,,,,,,0,2,2,2,,,,,4,0.400229192502,2018_may._04_1059,60.0410202824,Experimento Piloto1,001,105,
0.25,Stim\\02_075.jpg,Al75_5,Alegría,5,Emilio revisa el formato del archivo.,Afirmación,Al75,75,,,,,,,,,,,,,0,3,3,3,,,,,3,0.400298807048,2018_may._04_1059,60.0410202824,Experimento Piloto1,001,105,
0.25,Stim\\02_019.jpg,Al19_15,Alegría,15,Ángel envía una carta a la abuela.,Afirmación,Al19,19,,,,,,,,,,,,,0,4,4,4,,,,,3,0.400087732177,2018_may._04_1059,60.0410202824,Experimento Piloto1,001,105,
2.5,Stim\\02_075.jpg,Al75_7,Alegría,7,Roberto contesta los cuestionarios solicitados.,Afirmación,Al75,75,,,,,,,,,,,,,0,5,5,5,,,,,3,0.400374222805,2018_may._04_1059,60.0410202824,Experimento Piloto1,001,105,
0.25,Stim\\03_075.jpg,Tr75_8,Tristeza,8,Estefanía despierta a las 7 a.m.,Afirmación,Tr75,75,,,,,,,,,,,,,0,6,6,6,,,,,4,0.483647944965,2018_may._04_1059,60.0410202824,Experimento Piloto1,001,105,
0.25,Stim\\02_019.jpg,Al19_11,Alegría,11,María asiste a la cena.,Afirmación,Al19,19,,,,,,,,,,,,,0,7,7,7,,,,,4,1.68285398215,2018_may._04_1059,60.0410202824,Experimento Piloto1,001,105,
2.5,Stim\\02_019.jpg,Al19_2,Alegría,2,Jonathan pasea al perro.,Afirmación,Al19,19,,,,,,,,,,,,,0,8,8,8,,,,,3,0.400288989612,2018_may._04_1059,60.0410202824,Experimento Piloto1,001,105,
2.5,Stim\\05_075.jpg,En75_5,Enojo,5,Emilio revisa el formato del archivo.,Afirmación,En75,75,,,,,,,,,,,,,0,9,9,9,,,,,2,0.333787464116,2018_may._04_1059,60.0410202824,Experimento Piloto1,001,105,
0.25,Stim\\03_078.jpg,Tr78_10,Tristeza,10,Laura finaliza la obra.,Afirmación,Tr78,78,,,,,,,,,,,,,0,10,10,10,,,,,4,0.333776754186,2018_may._04_1059,60.0410202824,Experimento Piloto1,001,105,
0.25,Stim\\02_019.jpg,Al19_6,Alegría,6,Eduardo camina hacia la biblioteca.,Afirmación,Al19,19,,,,,,,,,,,,,0,11,11,11,,,,,3,0.35033475225,2018_may._04_1059,60.0410202824,Experimento Piloto1,001,105,
2.5,Stim\\05_019.jpg,En19_3,Enojo,3,Andrea diseña la portada del libro.,Afirmación,En19,19,,,,,,,,,,,,,0,12,12,12,,,,,2,0.483618938905,2018_may._04_1059,60.0410202824,Experimento Piloto1,001,105,
0.25,Stim\\05_019.jpg,En19_3,Enojo,3,Andrea diseña la portada del libro.,Afirmación,En19,19,,,,,,,,,,,,,0,13,13,13,,,,,2,0.450299007859,2018_may._04_1059,60.0410202824,Experimento Piloto1,001,105,
2.5,Stim\\02_028.jpg,Al28_1,Alegría,1,Juan colecciona monedas antiguas.,Afirmación,Al28,28,,,,,,,,,,,,,0,14,14,14,,,,,3,0.600248738125,2018_may._04_1059,60.0410202824,Experimento Piloto1,001,105,
0.25,Stim\\02_019.jpg,Al19_2,Alegría,2,Jonathan pasea al perro.,Afirmación,Al19,19,,,,,,,,,,,,,0,15,15,15,,,,,3,0.333793265328,2018_may._04_1059,60.0410202824,Experimento Piloto1,001,105,
0.25,Stim\\05_028.jpg,En28_11,Enojo,11,María asiste a la cena.,Afirmación,En28,28,,,,,,,,,,,,,0,16,16,16,,,,,2,0.383715819147,2018_may._04_1059,60.0410202824,Experimento Piloto1,001,105,
0.25,Stim\\03_028.jpg,Tr28_1,Tristeza,1,Juan colecciona monedas antiguas.,Afirmación,Tr28,28,,,,,,,,,,,,,0,17,17,17,,,,,4,0.350354387122,2018_may._04_1059,60.0410202824,Experimento Piloto1,001,105,
0.25,Stim\\03_078.jpg,Tr78_1,Tristeza,1,Juan colecciona monedas antiguas.,Afirmación,Tr78,78,,,,,,,,,,,,,0,18,18,18,,,,,4,0.349796578267,2018_may._04_1059,60.0410202824,Experimento Piloto1,001,105,
0.25,Stim\\02_019.jpg,Al19_1,Alegría,1,Juan colecciona monedas antiguas.,Afirmación,Al19,19,,,,,,,,,,,,,0,19,19,19,,,,,3,0.333749086867,2018_may._04_1059,60.0410202824,Experimento Piloto1,001,105,
0.25,Stim\\02_019.jpg,Al19_10,Alegría,10,Laura finaliza la obra.,Afirmación,Al19,19,,,,,,,,,,,,,0,20,20,20,,,,,3,0.450291421658,2018_may._04_1059,60.0410202824,Experimento Piloto1,001,105,
2.5,Stim\\03_019.jpg,Tr19_13,Tristeza,13,Rocío consume alimentos nutritivos.,Afirmación,Tr19,19,,,,,,,,,,,,,0,21,21,21,,,,,4,0.800234815216,2018_may._04_1059,60.0410202824,Experimento Piloto1,001,105,
2.5,Stim\\05_075.jpg,En75_6,Enojo,6,Eduardo camina hacia la biblioteca.,Afirmación,En75,75,,,,,,,,,,,,,0,22,22,22,,,,,2,0.450358804968,2018_may._04_1059,60.0410202824,Experimento Piloto1,001,105,
0.25,Stim\\05_078.jpg,En78_10,Enojo,10,Laura finaliza la obra.,Afirmación,En78,78,,,,,,,,,,,,,0,23,23,23,,,,,2,0.350358403346,2018_may._04_1059,60.0410202824,Experimento Piloto1,001,105,
2.5,Stim\\05_075.jpg,En75_14,Enojo,14,Elizabeth elige la ropa un día antes.,Afirmación,En75,75,,,,,,,,,,,,,0,24,24,24,,,,,2,0.450249474432,2018_may._04_1059,60.0410202824,Experimento Piloto1,001,105,
0.25,Stim\\05_019.jpg,En19_7,Enojo,7,Roberto contesta los cuestionarios solicitados.,Afirmación,En19,19,,,,,,,,,,,,,0,25,25,25,,,,,2,0.400261322293,2018_may._04_1059,60.0410202824,Experimento Piloto1,001,105,
0.25,Stim\\02_078.jpg,Al78_14,Alegría,14,Elizabeth elige la ropa un día antes.,Afirmación,Al78,78,,,,,,,,,,,,,0,26,26,26,,,,,3,0.450313734013,2018_may._04_1059,60.0410202824,Experimento Piloto1,001,105,
0.25,Stim\\03_028.jpg,Tr28_13,Tristeza,13,Rocío consume alimentos nutritivos.,Afirmación,Tr28,28,,,,,,,,,,,,,0,27,27,27,,,,,4,1.01683288627,2018_may._04_1059,60.0410202824,Experimento Piloto1,001,105,
2.5,Stim\\03_019.jpg,Tr19_8,Tristeza,8,Estefanía despierta a las 7 a.m.,Afirmación,Tr19,19,,,,,,,,,,,,,0,28,28,28,,,,,4,0.550402938805,2018_may._04_1059,60.0410202824,Experimento Piloto1,001,105,
2.5,Stim\\02_019.jpg,Al19_8,Alegría,8,Estefanía despierta a las 7 a.m.,Afirmación,Al19,19,,,,,,,,,,,,,0,29,29,29,,,,,3,0.283609210718,2018_may._04_1059,60.0410202824,Experimento Piloto1,001,105,
2.5,Stim\\02_028.jpg,Al28_9,Alegría,9,Marco colabora en la organización del evento.,Afirmación,Al28,28,,,,,,,,,,,,,0,30,30,30,,,,,3,0.283839027967,2018_may._04_1059,60.0410202824,Experimento Piloto1,001,105,
2.5,Stim\\03_075.jpg,Tr75_1,Tristeza,1,Juan colecciona monedas antiguas.,Afirmación,Tr75,75,,,,,,,,,,,,,0,31,31,31,,,,,4,2.03310082373,2018_may._04_1059,60.0410202824,Experimento Piloto1,001,105,
2.5,Stim\\05_078.jpg,En78_8,Enojo,8,Estefanía despierta a las 7 a.m.,Afirmación,En78,78,,,,,,,,,,,,,0,32,32,32,,,,,2,0.550257908502,2018_may._04_1059,60.0410202824,Experimento Piloto1,001,105,
0.25,Stim\\02_028.jpg,Al28_12,Alegría,12,Ana compra el libro.,Afirmación,Al28,28,,,,,,,,,,,,,0,33,33,33,,,,,3,0.283417770719,2018_may._04_1059,60.0410202824,Experimento Piloto1,001,105,
0.25,Stim\\05_075.jpg,En75_1,Enojo,1,Juan colecciona monedas antiguas.,Afirmación,En75,75,,,,,,,,,,,,,0,34,34,34,,,,,2,0.350418200455,2018_may._04_1059,60.0410202824,Experimento Piloto1,001,105,
0.25,Stim\\03_028.jpg,Tr28_4,Tristeza,4,Jorge sustituye a Gustavo cada sábado.,Afirmación,Tr28,28,,,,,,,,,,,,,0,35,35,35,,,,,4,0.350399011831,2018_may._04_1059,60.0410202824,Experimento Piloto1,001,105,
2.5,Stim\\03_078.jpg,Tr78_3,Tristeza,3,Andrea diseña la portada del libro.,Afirmación,Tr78,78,,,,,,,,,,,,,0,36,36,36,,,,,4,0.500280020045,2018_may._04_1059,60.0410202824,Experimento Piloto1,001,105,
0.25,Stim\\05_078.jpg,En78_4,Enojo,4,Jorge sustituye a Gustavo cada sábado.,Afirmación,En78,78,,,,,,,,,,,,,0,37,37,37,,,,,2,0.400302377024,2018_may._04_1059,60.0410202824,Experimento Piloto1,001,105,
2.5,Stim\\03_019.jpg,Tr19_7,Tristeza,7,Roberto contesta los cuestionarios solicitados.,Afirmación,Tr19,19,,,,,,,,,,,,,0,38,38,38,,,,,3,0.600317460176,2018_may._04_1059,60.0410202824,Experimento Piloto1,001,105,
0.25,Stim\\02_078.jpg,Al78_2,Alegría,2,Jonathan pasea al perro.,Afirmación,Al78,78,,,,,,,,,,,,,0,39,39,39,,,,,3,0.433612490634,2018_may._04_1059,60.0410202824,Experimento Piloto1,001,105,
0.25,Stim\\02_078.jpg,Al78_5,Alegría,5,Emilio revisa el formato del archivo.,Afirmación,Al78,78,,,,,,,,,,,,,0,40,40,40,,,,,3,0.233746007762,2018_may._04_1059,60.0410202824,Experimento Piloto1,001,105,
2.5,Stim\\05_019.jpg,En19_11,Enojo,11,María asiste a la cena.,Afirmación,En19,19,,,,,,,,,,,,,0,41,41,41,,,,,2,0.383975088703,2018_may._04_1059,60.0410202824,Experimento Piloto1,001,105,
2.5,Stim\\02_028.jpg,Al28_15,Alegría,15,Ángel envía una carta a la abuela.,Afirmación,Al28,28,,,,,,,,,,,,,0,42,42,42,,,,,3,0.650287762432,2018_may._04_1059,60.0410202824,Experimento Piloto1,001,105,
0.25,Stim\\03_019.jpg,Tr19_4,Tristeza,4,Jorge sustituye a Gustavo cada sábado.,Afirmación,Tr19,19,,,,,,,,,,,,,0,43,43,43,,,,,4,0.300344815122,2018_may._04_1059,60.0410202824,Experimento Piloto1,001,105,
2.5,Stim\\02_075.jpg,Al75_12,Alegría,12,Ana compra el libro.,Afirmación,Al75,75,,,,,,,,,,,,,0,44,44,44,,,,,3,0.250419583821,2018_may._04_1059,60.0410202824,Experimento Piloto1,001,105,
2.5,Stim\\05_028.jpg,En28_12,Enojo,12,Ana compra el libro.,Afirmación,En28,28,,,,,,,,,,,,,0,45,45,45,,,,,2,0.383714926653,2018_may._04_1059,60.0410202824,Experimento Piloto1,001,105,
0.25,Stim\\02_028.jpg,Al28_14,Alegría,14,Elizabeth elige la ropa un día antes.,Afirmación,Al28,28,,,,,,,,,,,,,0,46,46,46,,,,,3,0.550033892466,2018_may._04_1059,60.0410202824,Experimento Piloto1,001,105,
2.5,Stim\\03_075.jpg,Tr75_6,Tristeza,6,Eduardo camina hacia la biblioteca.,Afirmación,Tr75,75,,,,,,,,,,,,,0,47,47,47,,,,,4,0.350636861526,2018_may._04_1059,60.0410202824,Experimento Piloto1,001,105,
0.25,Stim\\05_028.jpg,En28_8,Enojo,8,Estefanía despierta a las 7 a.m.,Afirmación,En28,28,,,,,,,,,,,,,0,48,48,48,,,,,2,0.55029494701,2018_may._04_1059,60.0410202824,Experimento Piloto1,001,105,
2.5,Stim\\05_019.jpg,En19_7,Enojo,7,Roberto contesta los cuestionarios solicitados.,Afirmación,En19,19,,,,,,,,,,,,,0,49,49,49,,,,,2,0.800146458293,2018_may._04_1059,60.0410202824,Experimento Piloto1,001,105,
2.5,Stim\\02_019.jpg,Al19_10,Alegría,10,Laura finaliza la obra.,Afirmación,Al19,19,,,,,,,,,,,,,0,50,50,50,,,,,3,0.966857229047,2018_may._04_1059,60.0410202824,Experimento Piloto1,001,105,
0.25,Stim\\05_028.jpg,En28_14,Enojo,14,Elizabeth elige la ropa un día antes.,Afirmación,En28,28,,,,,,,,,,,,,0,51,51,51,,,,,2,0.533534799017,2018_may._04_1059,60.0410202824,Experimento Piloto1,001,105,
2.5,Stim\\03_028.jpg,Tr28_8,Tristeza,8,Estefanía despierta a las 7 a.m.,Afirmación,Tr28,28,,,,,,,,,,,,,0,52,52,52,,,,,4,1.88318634698,2018_may._04_1059,60.0410202824,Experimento Piloto1,001,105,
0.25,Stim\\02_075.jpg,Al75_3,Alegría,3,Andrea diseña la portada del libro.,Afirmación,Al75,75,,,,,,,,,,,,,0,53,53,53,,,,,3,0.500287606246,2018_may._04_1059,60.0410202824,Experimento Piloto1,001,105,
0.25,Stim\\02_028.jpg,Al28_1,Alegría,1,Juan colecciona monedas antiguas.,Afirmación,Al28,28,,,,,,,,,,,,,0,54,54,54,,,,,2,0.483739425617,2018_may._04_1059,60.0410202824,Experimento Piloto1,001,105,
0.25,Stim\\03_028.jpg,Tr28_3,Tristeza,3,Andrea diseña la portada del libro.,Afirmación,Tr28,28,,,,,,,,,,,,,0,55,55,55,,,,,3,1.21670472411,2018_may._04_1059,60.0410202824,Experimento Piloto1,001,105,
2.5,Stim\\02_078.jpg,Al78_11,Alegría,11,María asiste a la cena.,Afirmación,Al78,78,,,,,,,,,,,,,0,56,56,56,,,,,3,0.433329569983,2018_may._04_1059,60.0410202824,Experimento Piloto1,001,105,
0.25,Stim\\03_019.jpg,Tr19_12,Tristeza,12,Ana compra el libro.,Afirmación,Tr19,19,,,,,,,,,,,,,0,57,57,57,,,,,4,0.500229147878,2018_may._04_1059,60.0410202824,Experimento Piloto1,001,105,
2.5,Stim\\02_078.jpg,Al78_14,Alegría,14,Elizabeth elige la ropa un día antes.,Afirmación,Al78,78,,,,,,,,,,,,,0,58,58,58,,,,,3,0.350290127542,2018_may._04_1059,60.0410202824,Experimento Piloto1,001,105,
0.25,Stim\\03_019.jpg,Tr19_2,Tristeza,2,Jonathan pasea al perro.,Afirmación,Tr19,19,,,,,,,,,,,,,0,59,59,59,,,,,3,0.433653099119,2018_may._04_1059,60.0410202824,Experimento Piloto1,001,105,
2.5,Stim\\03_078.jpg,Tr78_1,Tristeza,1,Juan colecciona monedas antiguas.,Afirmación,Tr78,78,,,,,,,,,,,,,0,60,60,60,,,,,4,0.750460861676,2018_may._04_1059,60.0410202824,Experimento Piloto1,001,105,
0.25,Stim\\03_078.jpg,Tr78_4,Tristeza,4,Jorge sustituye a Gustavo cada sábado.,Afirmación,Tr78,78,,,,,,,,,,,,,0,61,61,61,,,,,4,0.333824948871,2018_may._04_1059,60.0410202824,Experimento Piloto1,001,105,
0.25,Stim\\05_019.jpg,En19_14,Enojo,14,Elizabeth elige la ropa un día antes.,Afirmación,En19,19,,,,,,,,,,,,,0,62,62,62,,,,,2,0.400312640707,2018_may._04_1059,60.0410202824,Experimento Piloto1,001,105,
0.25,Stim\\02_075.jpg,Al75_15,Alegría,15,Ángel envía una carta a la abuela.,Afirmación,Al75,75,,,,,,,,,,,,,0,63,63,63,,,,,3,0.450325782684,2018_may._04_1059,60.0410202824,Experimento Piloto1,001,105,
2.5,Stim\\03_028.jpg,Tr28_2,Tristeza,2,Jonathan pasea al perro.,Afirmación,Tr28,28,,,,,,,,,,,,,0,64,64,64,,,,,4,0.600355837425,2018_may._04_1059,60.0410202824,Experimento Piloto1,001,105,
0.25,Stim\\05_028.jpg,En28_3,Enojo,3,Andrea diseña la portada del libro.,Afirmación,En28,28,,,,,,,,,,,,,0,65,65,65,,,,,2,0.550310565658,2018_may._04_1059,60.0410202824,Experimento Piloto1,001,105,
0.25,Stim\\05_078.jpg,En78_3,Enojo,3,Andrea diseña la portada del libro.,Afirmación,En78,78,,,,,,,,,,,,,0,66,66,66,,,,,2,0.383717604135,2018_may._04_1059,60.0410202824,Experimento Piloto1,001,105,
0.25,Stim\\05_075.jpg,En75_9,Enojo,9,Marco colabora en la organización del evento.,Afirmación,En75,75,,,,,,,,,,,,,0,67,67,67,,,,,2,0.400000267748,2018_may._04_1059,60.0410202824,Experimento Piloto1,001,105,
2.5,Stim\\05_075.jpg,En75_7,Enojo,7,Roberto contesta los cuestionarios solicitados.,Afirmación,En75,75,,,,,,,,,,,,,0,68,68,68,,,,,2,0.400275155952,2018_may._04_1059,60.0410202824,Experimento Piloto1,001,105,
0.25,Stim\\03_078.jpg,Tr78_14,Tristeza,14,Elizabeth elige la ropa un día antes.,Afirmación,Tr78,78,,,,,,,,,,,,,0,69,69,69,,,,,4,0.350403920548,2018_may._04_1059,60.0410202824,Experimento Piloto1,001,105,
2.5,Stim\\03_019.jpg,Tr19_5,Tristeza,5,Emilio revisa el formato del archivo.,Afirmación,Tr19,19,,,,,,,,,,,,,0,70,70,70,,,,,3,0.400077468494,2018_may._04_1059,60.0410202824,Experimento Piloto1,001,105,
2.5,Stim\\05_028.jpg,En28_13,Enojo,13,Rocío consume alimentos nutritivos.,Afirmación,En28,28,,,,,,,,,,,,,0,71,71,71,,,,,2,0.350333413509,2018_may._04_1059,60.0410202824,Experimento Piloto1,001,105,
0.25,Stim\\05_075.jpg,En75_15,Enojo,15,Ángel envía una carta a la abuela.,Afirmación,En75,75,,,,,,,,,,,,,0,72,72,72,,,,,2,0.333646896285,2018_may._04_1059,60.0410202824,Experimento Piloto1,001,105,
2.5,Stim\\05_019.jpg,En19_6,Enojo,6,Eduardo camina hacia la biblioteca.,Afirmación,En19,19,,,,,,,,,,,,,0,73,73,73,,,,,2,0.483810378904,2018_may._04_1059,60.0410202824,Experimento Piloto1,001,105,
2.5,Stim\\05_078.jpg,En78_10,Enojo,10,Laura finaliza la obra.,Afirmación,En78,78,,,,,,,,,,,,,0,74,74,74,,,,,2,0.333588884164,2018_may._04_1059,60.0410202824,Experimento Piloto1,001,105,
2.5,Stim\\05_019.jpg,En19_9,Enojo,9,Marco colabora en la organización del evento.,Afirmación,En19,19,,,,,,,,,,,,,0,75,75,75,,,,,2,0.550234257407,2018_may._04_1059,60.0410202824,Experimento Piloto1,001,105,
2.5,Stim\\02_078.jpg,Al78_6,Alegría,6,Eduardo camina hacia la biblioteca.,Afirmación,Al78,78,,,,,,,,,,,,,0,76,76,76,,,,,3,0.333601825329,2018_may._04_1059,60.0410202824,Experimento Piloto1,001,105,
2.5,Stim\\05_078.jpg,En78_13,Enojo,13,Rocío consume alimentos nutritivos.,Afirmación,En78,78,,,,,,,,,,,,,0,77,77,77,,,,,2,0.433658007837,2018_may._04_1059,60.0410202824,Experimento Piloto1,001,105,
0.25,Stim\\05_028.jpg,En28_2,Enojo,2,Jonathan pasea al perro.,Afirmación,En28,28,,,,,,,,,,,,,0,78,78,78,,,,,2,0.449970123758,2018_may._04_1059,60.0410202824,Experimento Piloto1,001,105,
0.25,Stim\\05_019.jpg,En19_6,Enojo,6,Eduardo camina hacia la biblioteca.,Afirmación,En19,19,,,,,,,,,,,,,0,79,79,79,,,,,2,0.50051965473,2018_may._04_1059,60.0410202824,Experimento Piloto1,001,105,
2.5,Stim\\03_019.jpg,Tr19_11,Tristeza,11,María asiste a la cena.,Afirmación,Tr19,19,,,,,,,,,,,,,0,80,80,80,,,,,3,0.283739514867,2018_may._04_1059,60.0410202824,Experimento Piloto1,001,105,
2.5,Stim\\05_028.jpg,En28_11,Enojo,11,María asiste a la cena.,Afirmación,En28,28,,,,,,,,,,,,,0,81,81,81,,,,,2,1.53295467781,2018_may._04_1059,60.0410202824,Experimento Piloto1,001,105,
0.25,Stim\\02_078.jpg,Al78_9,Alegría,9,Marco colabora en la organización del evento.,Afirmación,Al78,78,,,,,,,,,,,,,0,82,82,82,,,,,3,0.450355681239,2018_may._04_1059,60.0410202824,Experimento Piloto1,001,105,
0.25,Stim\\05_019.jpg,En19_13,Enojo,13,Rocío consume alimentos nutritivos.,Afirmación,En19,19,,,,,,,,,,,,,0,83,83,83,,,,,2,0.449947365156,2018_may._04_1059,60.0410202824,Experimento Piloto1,001,105,
0.25,Stim\\03_078.jpg,Tr78_11,Tristeza,11,María asiste a la cena.,Afirmación,Tr78,78,,,,,,,,,,,,,0,84,84,84,,,,,4,0.500298316176,2018_may._04_1059,60.0410202824,Experimento Piloto1,001,105,
2.5,Stim\\05_028.jpg,En28_5,Enojo,5,Emilio revisa el formato del archivo.,Afirmación,En28,28,,,,,,,,,,,,,0,85,85,85,,,,,2,0.450338723849,2018_may._04_1059,60.0410202824,Experimento Piloto1,001,105,
0.25,Stim\\03_028.jpg,Tr28_10,Tristeza,10,Laura finaliza la obra.,Afirmación,Tr28,28,,,,,,,,,,,,,0,86,86,86,,,,,4,0.50032062853,2018_may._04_1059,60.0410202824,Experimento Piloto1,001,105,
0.25,Stim\\05_019.jpg,En19_11,Enojo,11,María asiste a la cena.,Afirmación,En19,19,,,,,,,,,,,,,0,87,87,87,,,,,2,0.38384076833,2018_may._04_1059,60.0410202824,Experimento Piloto1,001,105,
2.5,Stim\\03_028.jpg,Tr28_9,Tristeza,9,Marco colabora en la organización del evento.,Afirmación,Tr28,28,,,,,,,,,,,,,0,88,88,88,,,,,4,1.166787079,2018_may._04_1059,60.0410202824,Experimento Piloto1,001,105,
2.5,Stim\\05_019.jpg,En19_8,Enojo,8,Estefanía despierta a las 7 a.m.,Afirmación,En19,19,,,,,,,,,,,,,0,89,89,89,,,,,4,0.850150675328,2018_may._04_1059,60.0410202824,Experimento Piloto1,001,105,
0.25,Stim\\03_075.jpg,Tr75_9,Tristeza,9,Marco colabora en la organización del evento.,Afirmación,Tr75,75,,,,,,,,,,,,,0,90,90,90,,,,,3,0.600104600317,2018_may._04_1059,60.0410202824,Experimento Piloto1,001,105,
2.5,Stim\\02_075.jpg,Al75_3,Alegría,3,Andrea diseña la portada del libro.,Afirmación,Al75,75,,,,,,,,,,,,,0,91,91,91,,,,,3,0.400314425696,2018_may._04_1059,60.0410202824,Experimento Piloto1,001,105,
0.25,Stim\\05_028.jpg,En28_12,Enojo,12,Ana compra el libro.,Afirmación,En28,28,,,,,,,,,,,,,0,92,92,92,,,,,2,0.450281604223,2018_may._04_1059,60.0410202824,Experimento Piloto1,001,105,
0.25,Stim\\03_028.jpg,Tr28_7,Tristeza,7,Roberto contesta los cuestionarios solicitados.,Afirmación,Tr28,28,,,,,,,,,,,,,0,93,93,93,,,,,4,0.333633508872,2018_may._04_1059,60.0410202824,Experimento Piloto1,001,105,
0.25,Stim\\03_019.jpg,Tr19_8,Tristeza,8,Estefanía despierta a las 7 a.m.,Afirmación,Tr19,19,,,,,,,,,,,,,0,94,94,94,,,,,3,0.350494954954,2018_may._04_1059,60.0410202824,Experimento Piloto1,001,105,
0.25,Stim\\02_019.jpg,Al19_4,Alegría,4,Jorge sustituye a Gustavo cada sábado.,Afirmación,Al19,19,,,,,,,,,,,,,0,95,95,95,,,,,3,0.450254829397,2018_may._04_1059,60.0410202824,Experimento Piloto1,001,105,
2.5,Stim\\05_019.jpg,En19_15,Enojo,15,Ángel envía una carta a la abuela.,Afirmación,En19,19,,,,,,,,,,,,,0,96,96,96,,,,,2,0.450304809071,2018_may._04_1059,60.0410202824,Experimento Piloto1,001,105,
0.25,Stim\\05_075.jpg,En75_13,Enojo,13,Rocío consume alimentos nutritivos.,Afirmación,En75,75,,,,,,,,,,,,,0,97,97,97,,,,,2,0.383896102969,2018_may._04_1059,60.0410202824,Experimento Piloto1,001,105,
0.25,Stim\\02_078.jpg,Al78_7,Alegría,7,Roberto contesta los cuestionarios solicitados.,Afirmación,Al78,78,,,,,,,,,,,,,0,98,98,98,,,,,4,0.350294143766,2018_may._04_1059,60.0410202824,Experimento Piloto1,001,105,
2.5,Stim\\03_028.jpg,Tr28_3,Tristeza,3,Andrea diseña la portada del libro.,Afirmación,Tr28,28,,,,,,,,,,,,,0,99,99,99,,,,,4,0.333817362671,2018_may._04_1059,60.0410202824,Experimento Piloto1,001,105,
2.5,Stim\\05_075.jpg,En75_15,Enojo,15,Ángel envía una carta a la abuela.,Afirmación,En75,75,,,,,,,,,,,,,0,100,100,100,,,,,2,0.383538212807,2018_may._04_1059,60.0410202824,Experimento Piloto1,001,105,
0.25,Stim\\02_028.jpg,Al28_13,Alegría,13,Rocío consume alimentos nutritivos.,Afirmación,Al28,28,,,,,,,,,,,,,0,101,101,101,,,,,3,2.38302101244,2018_may._04_1059,60.0410202824,Experimento Piloto1,001,105,
0.25,Stim\\03_028.jpg,Tr28_15,Tristeza,15,Ángel envía una carta a la abuela.,Afirmación,Tr28,28,,,,,,,,,,,,,0,102,102,102,,,,,4,0.450262861845,2018_may._04_1059,60.0410202824,Experimento Piloto1,001,105,
0.25,Stim\\05_019.jpg,En19_2,Enojo,2,Jonathan pasea al perro.,Afirmación,En19,19,,,,,,,,,,,,,0,103,103,103,,,,,2,0.95017562054,2018_may._04_1059,60.0410202824,Experimento Piloto1,001,105,
0.25,Stim\\03_078.jpg,Tr78_13,Tristeza,13,Rocío consume alimentos nutritivos.,Afirmación,Tr78,78,,,,,,,,,,,,,0,104,104,104,,,,,4,0.767024660953,2018_may._04_1059,60.0410202824,Experimento Piloto1,001,105,
2.5,Stim\\03_075.jpg,Tr75_2,Tristeza,2,Jonathan pasea al perro.,Afirmación,Tr75,75,,,,,,,,,,,,,0,105,105,105,,,,,4,2.64963758043,2018_may._04_1059,60.0410202824,Experimento Piloto1,001,105,
2.5,Stim\\05_075.jpg,En75_10,Enojo,10,Laura finaliza la obra.,Afirmación,En75,75,,,,,,,,,,,,,0,106,106,106,,,,,3,0.950083693641,2018_may._04_1059,60.0410202824,Experimento Piloto1,001,105,
2.5,Stim\\05_028.jpg,En28_3,Enojo,3,Andrea diseña la portada del libro.,Afirmación,En28,28,,,,,,,,,,,,,0,107,107,107,,,,,2,1.16681430008,2018_may._04_1059,60.0410202824,Experimento Piloto1,001,105,
2.5,Stim\\02_078.jpg,Al78_8,Alegría,8,Estefanía despierta a las 7 a.m.,Afirmación,Al78,78,,,,,,,,,,,,,0,108,108,108,,,,,3,0.383763567585,2018_may._04_1059,60.0410202824,Experimento Piloto1,001,105,
2.5,Stim\\05_075.jpg,En75_2,Enojo,2,Jonathan pasea al perro.,Afirmación,En75,75,,,,,,,,,,,,,0,109,109,109,,,,,2,1.5166483631,2018_may._04_1059,60.0410202824,Experimento Piloto1,001,105,
0.25,Stim\\05_078.jpg,En78_2,Enojo,2,Jonathan pasea al perro.,Afirmación,En78,78,,,,,,,,,,,,,0,110,110,110,,,,,2,0.333742393161,2018_may._04_1059,60.0410202824,Experimento Piloto1,001,105,
2.5,Stim\\05_078.jpg,En78_14,Enojo,14,Elizabeth elige la ropa un día antes.,Afirmación,En78,78,,,,,,,,,,,,,0,111,111,111,,,,,2,0.400133249379,2018_may._04_1059,60.0410202824,Experimento Piloto1,001,105,
2.5,Stim\\05_028.jpg,En28_1,Enojo,1,Juan colecciona monedas antiguas.,Afirmación,En28,28,,,,,,,,,,,,,0,112,112,112,,,,,2,0.450539981285,2018_may._04_1059,60.0410202824,Experimento Piloto1,001,105,
0.25,Stim\\05_019.jpg,En19_12,Enojo,12,Ana compra el libro.,Afirmación,En19,19,,,,,,,,,,,,,0,113,113,113,,,,,2,0.350329843533,2018_may._04_1059,60.0410202824,Experimento Piloto1,001,105,
0.25,Stim\\02_075.jpg,Al75_13,Alegría,13,Rocío consume alimentos nutritivos.,Afirmación,Al75,75,,,,,,,,,,,,,0,114,114,114,,,,,3,0.450085255505,2018_may._04_1059,60.0410202824,Experimento Piloto1,001,105,
2.5,Stim\\03_019.jpg,Tr19_6,Tristeza,6,Eduardo camina hacia la biblioteca.,Afirmación,Tr19,19,,,,,,,,,,,,,0,115,115,115,,,,,3,1.9331999352,2018_may._04_1059,60.0410202824,Experimento Piloto1,001,105,
2.5,Stim\\05_028.jpg,En28_14,Enojo,14,Elizabeth elige la ropa un día antes.,Afirmación,En28,28,,,,,,,,,,,,,0,116,116,116,,,,,2,0.349956334723,2018_may._04_1059,60.0410202824,Experimento Piloto1,001,105,
2.5,Stim\\02_028.jpg,Al28_5,Alegría,5,Emilio revisa el formato del archivo.,Afirmación,Al28,28,,,,,,,,,,,,,0,117,117,117,,,,,3,1.36673388635,2018_may._04_1059,60.0410202824,Experimento Piloto1,001,105,
2.5,Stim\\02_078.jpg,Al78_9,Alegría,9,Marco colabora en la organización del evento.,Afirmación,Al78,78,,,,,,,,,,,,,0,118,118,118,,,,,3,0.350362865816,2018_may._04_1059,60.0410202824,Experimento Piloto1,001,105,
0.25,Stim\\03_019.jpg,Tr19_3,Tristeza,3,Andrea diseña la portada del libro.,Afirmación,Tr19,19,,,,,,,,,,,,,0,119,119,119,,,,,3,0.350220512997,2018_may._04_1059,60.0410202824,Experimento Piloto1,001,105,
