Tiempo,ImagenesE,ClaveEn,Emocion,NumEn,Enunciado,ActoHabla,Clave,Cara,trials.thisRepN,trials.thisTrialN,trials.thisN,trials.thisIndex,Bloque1.thisRepN,Bloque1.thisTrialN,Bloque1.thisN,Bloque1.thisIndex,Bloque3.thisRepN,Bloque3.thisTrialN,Bloque3.thisN,Bloque3.thisIndex,Bloque2.thisRepN,Bloque2.thisTrialN,Bloque2.thisN,Bloque2.thisIndex,Resp_Bloque1.keys,Resp_Bloque1.rt,Resp_Bloque3.keys,Resp_Bloque3.rt,Resp_Bloque2.keys,Resp_Bloque2.rt,date,frameRate,expName,session,participant,
0.25,Stim\\03_028.jpg,Tr28_2,Tristeza,2,Jonathan pasea al perro.,Afirmación,Tr28,28,,,,,0,0,0,0,,,,,,,,,4,3.63262753407,,,,,2018_may._04_1327,59.9331108157,Experimento Piloto1,001,106,
2.5,Stim\\05_075.jpg,En75_12,Enojo,12,Ana compra el libro.,Afirmación,En75,75,,,,,0,1,1,1,,,,,,,,,2,0.850161831506,,,,,2018_may._04_1327,59.9331108157,Experimento Piloto1,001,106,
0.25,Stim\\02_078.jpg,Al78_11,Alegría,11,María asiste a la cena.,Afirmación,Al78,78,,,,,0,2,2,2,,,,,,,,,3,7.56478146611,,,,,2018_may._04_1327,59.9331108157,Experimento Piloto1,001,106,
0.25,Stim\\02_078.jpg,Al78_8,Alegría,8,Estefanía despierta a las 7 a.m.,Afirmación,Al78,78,,,,,0,3,3,3,,,,,,,,,3,6.84849108242,,,,,2018_may._04_1327,59.9331108157,Experimento Piloto1,001,106,
0.25,Stim\\05_028.jpg,En28_6,Enojo,6,Eduardo camina hacia la biblioteca.,Afirmación,En28,28,,,,,0,4,4,4,,,,,,,,,2,1.11653162486,,,,,2018_may._04_1327,59.9331108157,Experimento Piloto1,001,106,
0.25,Stim\\02_019.jpg,Al19_14,Alegría,14,Elizabeth elige la ropa un día antes.,Afirmación,Al19,19,,,,,0,5,5,5,,,,,,,,,3,4.74897485889,,,,,2018_may._04_1327,59.9331108157,Experimento Piloto1,001,106,
2.5,Stim\\05_078.jpg,En78_1,Enojo,1,Juan colecciona monedas antiguas.,Afirmación,En78,78,,,,,0,6,6,6,,,,,,,,,2,2.54955506934,,,,,2018_may._04_1327,59.9331108157,Experimento Piloto1,001,106,
2.5,Stim\\02_078.jpg,Al78_15,Alegría,15,Ángel envía una carta a la abuela.,Afirmación,Al78,78,,,,,0,7,7,7,,,,,,,,,2,9.26390874069,,,,,2018_may._04_1327,59.9331108157,Experimento Piloto1,001,106,
0.25,Stim\\02_075.jpg,Al75_14,Alegría,14,Elizabeth elige la ropa un día antes.,Afirmación,Al75,75,,,,,0,8,8,8,,,,,,,,,3,7.04833748418,,,,,2018_may._04_1327,59.9331108157,Experimento Piloto1,001,106,
2.5,Stim\\02_075.jpg,Al75_2,Alegría,2,Jonathan pasea al perro.,Afirmación,Al75,75,,,,,0,9,9,9,,,,,,,,,2,6.99829221241,,,,,2018_may._04_1327,59.9331108157,Experimento Piloto1,001,106,
0.25,Stim\\05_075.jpg,En75_12,Enojo,12,Ana compra el libro.,Afirmación,En75,75,,,,,0,10,10,10,,,,,,,,,2,0.700267882126,,,,,2018_may._04_1327,59.9331108157,Experimento Piloto1,001,106,
2.5,Stim\\03_078.jpg,Tr78_8,Tristeza,8,Estefanía despierta a las 7 a.m.,Afirmación,Tr78,78,,,,,0,11,11,11,,,,,,,,,4,2.2497957304,,,,,2018_may._04_1327,59.9331108157,Experimento Piloto1,001,106,
0.25,Stim\\03_078.jpg,Tr78_15,Tristeza,15,Ángel envía una carta a la abuela.,Afirmación,Tr78,78,,,,,0,12,12,12,,,,,,,,,4,1.61673890663,,,,,2018_may._04_1327,59.9331108157,Experimento Piloto1,001,106,
0.25,Stim\\03_078.jpg,Tr78_5,Tristeza,5,Emilio revisa el formato del archivo.,Afirmación,Tr78,78,,,,,0,13,13,13,,,,,,,,,4,1.5832873327,,,,,2018_may._04_1327,59.9331108157,Experimento Piloto1,001,106,
2.5,Stim\\02_019.jpg,Al19_5,Alegría,5,Emilio revisa el formato del archivo.,Afirmación,Al19,19,,,,,0,14,14,14,,,,,,,,,3,2.84984008736,,,,,2018_may._04_1327,59.9331108157,Experimento Piloto1,001,106,
2.5,Stim\\03_075.jpg,Tr75_10,Tristeza,10,Laura finaliza la obra.,Afirmación,Tr75,75,,,,,0,15,15,15,,,,,,,,,4,4.28231777166,,,,,2018_may._04_1327,59.9331108157,Experimento Piloto1,001,106,
2.5,Stim\\03_075.jpg,Tr75_4,Tristeza,4,Jorge sustituye a Gustavo cada sábado.,Afirmación,Tr75,75,,,,,0,16,16,16,,,,,,,,,4,5.31539271305,,,,,2018_may._04_1327,59.9331108157,Experimento Piloto1,001,106,
0.25,Stim\\03_028.jpg,Tr28_5,Tristeza,5,Emilio revisa el formato del archivo.,Afirmación,Tr28,28,,,,,0,17,17,17,,,,,,,,,4,6.23191505598,,,,,2018_may._04_1327,59.9331108157,Experimento Piloto1,001,106,
0.25,Stim\\05_075.jpg,En75_11,Enojo,11,María asiste a la cena.,Afirmación,En75,75,,,,,0,18,18,18,,,,,,,,,2,2.44969880553,,,,,2018_may._04_1327,59.9331108157,Experimento Piloto1,001,106,
0.25,Stim\\02_075.jpg,Al75_6,Alegría,6,Eduardo camina hacia la biblioteca.,Afirmación,Al75,75,,,,,0,19,19,19,,,,,,,,,3,1.68330335297,,,,,2018_may._04_1327,59.9331108157,Experimento Piloto1,001,106,
0.25,Stim\\05_078.jpg,En78_1,Enojo,1,Juan colecciona monedas antiguas.,Afirmación,En78,78,,,,,0,20,20,20,,,,,,,,,3,3.98264678963,,,,,2018_may._04_1327,59.9331108157,Experimento Piloto1,001,106,
2.5,Stim\\03_019.jpg,Tr19_4,Tristeza,4,Jorge sustituye a Gustavo cada sábado.,Afirmación,Tr19,19,,,,,0,21,21,21,,,,,,,,,2,11.3637810694,,,,,2018_may._04_1327,59.9331108157,Experimento Piloto1,001,106,
0.25,Stim\\03_028.jpg,Tr28_11,Tristeza,11,María asiste a la cena.,Afirmación,Tr28,28,,,,,0,22,22,22,,,,,,,,,4,1.31689924321,,,,,2018_may._04_1327,59.9331108157,Experimento Piloto1,001,106,
0.25,Stim\\02_019.jpg,Al19_7,Alegría,7,Roberto contesta los cuestionarios solicitados.,Afirmación,Al19,19,,,,,0,23,23,23,,,,,,,,,4,4.81577403119,,,,,2018_may._04_1327,59.9331108157,Experimento Piloto1,001,106,
0.25,Stim\\05_028.jpg,En28_1,Enojo,1,Juan colecciona monedas antiguas.,Afirmación,En28,28,,,,,0,24,24,24,,,,,,,,,2,0.650268573807,,,,,2018_may._04_1327,59.9331108157,Experimento Piloto1,001,106,
0.25,Stim\\03_019.jpg,Tr19_6,Tristeza,6,Eduardo camina hacia la biblioteca.,Afirmación,Tr19,19,,,,,0,25,25,25,,,,,,,,,3,1.7832109352,,,,,2018_may._04_1327,59.9331108157,Experimento Piloto1,001,106,
0.25,Stim\\03_078.jpg,Tr78_7,Tristeza,7,Roberto contesta los cuestionarios solicitados.,Afirmación,Tr78,78,,,,,0,26,26,26,,,,,,,,,4,1.88327782763,,,,,2018_may._04_1327,59.9331108157,Experimento Piloto1,001,106,
2.5,Stim\\03_019.jpg,Tr19_15,Tristeza,15,Ángel envía una carta a la abuela.,Afirmación,Tr19,19,,,,,0,27,27,27,,,,,,,,,4,5.11546911055,,,,,2018_may._04_1327,59.9331108157,Experimento Piloto1,001,106,
2.5,Stim\\02_028.jpg,Al28_4,Alegría,4,Jorge sustituye a Gustavo cada sábado.,Afirmación,Al28,28,,,,,0,28,28,28,,,,,,,,,3,1.7669028355,,,,,2018_may._04_1327,59.9331108157,Experimento Piloto1,001,106,
2.5,Stim\\03_078.jpg,Tr78_5,Tristeza,5,Emilio revisa el formato del archivo.,Afirmación,Tr78,78,,,,,0,29,29,29,,,,,,,,,4,0.950191239188,,,,,2018_may._04_1327,59.9331108157,Experimento Piloto1,001,106,
2.5,Stim\\03_028.jpg,Tr28_12,Tristeza,12,Ana compra el libro.,Afirmación,Tr28,28,,,,,0,30,30,30,,,,,,,,,4,0.950234971402,,,,,2018_may._04_1327,59.9331108157,Experimento Piloto1,001,106,
0.25,Stim\\02_028.jpg,Al28_2,Alegría,2,Jonathan pasea al perro.,Afirmación,Al28,28,,,,,0,31,31,31,,,,,,,,,4,3.36614216272,,,,,2018_may._04_1327,59.9331108157,Experimento Piloto1,001,106,
0.25,Stim\\05_019.jpg,En19_8,Enojo,8,Estefanía despierta a las 7 a.m.,Afirmación,En19,19,,,,,0,32,32,32,,,,,,,,,4,3.06628107944,,,,,2018_may._04_1327,59.9331108157,Experimento Piloto1,001,106,
0.25,Stim\\03_019.jpg,Tr19_9,Tristeza,9,Marco colabora en la organización del evento.,Afirmación,Tr19,19,,,,,0,33,33,33,,,,,,,,,2,2.28322811571,,,,,2018_may._04_1327,59.9331108157,Experimento Piloto1,001,106,
2.5,Stim\\02_078.jpg,Al78_10,Alegría,10,Laura finaliza la obra.,Afirmación,Al78,78,,,,,0,34,34,34,,,,,,,,,3,3.46628848714,,,,,2018_may._04_1327,59.9331108157,Experimento Piloto1,001,106,
2.5,Stim\\02_075.jpg,Al75_15,Alegría,15,Ángel envía una carta a la abuela.,Afirmación,Al75,75,,,,,0,35,35,35,,,,,,,,,3,4.69901080409,,,,,2018_may._04_1327,59.9331108157,Experimento Piloto1,001,106,
2.5,Stim\\03_028.jpg,Tr28_6,Tristeza,6,Eduardo camina hacia la biblioteca.,Afirmación,Tr28,28,,,,,0,36,36,36,,,,,,,,,4,1.61631720314,,,,,2018_may._04_1327,59.9331108157,Experimento Piloto1,001,106,
0.25,Stim\\03_075.jpg,Tr75_14,Tristeza,14,Elizabeth elige la ropa un día antes.,Afirmación,Tr75,75,,,,,0,37,37,37,,,,,,,,,4,2.64976029838,,,,,2018_may._04_1327,59.9331108157,Experimento Piloto1,001,106,
2.5,Stim\\05_075.jpg,En75_13,Enojo,13,Rocío consume alimentos nutritivos.,Afirmación,En75,75,,,,,0,38,38,38,,,,,,,,,2,0.900172295998,,,,,2018_may._04_1327,59.9331108157,Experimento Piloto1,001,106,
2.5,Stim\\03_075.jpg,Tr75_8,Tristeza,8,Estefanía despierta a las 7 a.m.,Afirmación,Tr75,75,,,,,0,39,39,39,,,,,,,,,4,1.41673408716,,,,,2018_may._04_1327,59.9331108157,Experimento Piloto1,001,106,
0.25,Stim\\05_075.jpg,En75_7,Enojo,7,Roberto contesta los cuestionarios solicitados.,Afirmación,En75,75,,,,,0,40,40,40,,,,,,,,,2,0.650234212782,,,,,2018_may._04_1327,59.9331108157,Experimento Piloto1,001,106,
2.5,Stim\\03_019.jpg,Tr19_10,Tristeza,10,Laura finaliza la obra.,Afirmación,Tr19,19,,,,,0,41,41,41,,,,,,,,,3,4.34911114274,,,,,2018_may._04_1327,59.9331108157,Experimento Piloto1,001,106,
2.5,Stim\\03_019.jpg,Tr19_2,Tristeza,2,Jonathan pasea al perro.,Afirmación,Tr19,19,,,,,0,42,42,42,,,,,,,,,2,1.7165179697,,,,,2018_may._04_1327,59.9331108157,Experimento Piloto1,001,106,
0.25,Stim\\03_075.jpg,Tr75_15,Tristeza,15,Ángel envía una carta a la abuela.,Afirmación,Tr75,75,,,,,0,43,43,43,,,,,,,,,4,0.700556157741,,,,,2018_may._04_1327,59.9331108157,Experimento Piloto1,001,106,
0.25,Stim\\05_019.jpg,En19_1,Enojo,1,Juan colecciona monedas antiguas.,Afirmación,En19,19,,,,,0,44,44,44,,,,,,,,,3,6.08187384506,,,,,2018_may._04_1327,59.9331108157,Experimento Piloto1,001,106,
0.25,Stim\\03_078.jpg,Tr78_2,Tristeza,2,Jonathan pasea al perro.,Afirmación,Tr78,78,,,,,0,45,45,45,,,,,,,,,4,0.950359920587,,,,,2018_may._04_1327,59.9331108157,Experimento Piloto1,001,106,
2.5,Stim\\02_019.jpg,Al19_9,Alegría,9,Marco colabora en la organización del evento.,Afirmación,Al19,19,,,,,0,46,46,46,,,,,,,,,4,3.98270881798,,,,,2018_may._04_1327,59.9331108157,Experimento Piloto1,001,106,
2.5,Stim\\03_028.jpg,Tr28_11,Tristeza,11,María asiste a la cena.,Afirmación,Tr28,28,,,,,0,47,47,47,,,,,,,,,4,0.90037444593,,,,,2018_may._04_1327,59.9331108157,Experimento Piloto1,001,106,
2.5,Stim\\05_078.jpg,En78_6,Enojo,6,Eduardo camina hacia la biblioteca.,Afirmación,En78,78,,,,,0,48,48,48,,,,,,,,,2,1.83326290067,,,,,2018_may._04_1327,59.9331108157,Experimento Piloto1,001,106,
2.5,Stim\\02_028.jpg,Al28_14,Alegría,14,Elizabeth elige la ropa un día antes.,Afirmación,Al28,28,,,,,0,49,49,49,,,,,,,,,4,6.69833429351,,,,,2018_may._04_1327,59.9331108157,Experimento Piloto1,001,106,
0.25,Stim\\03_019.jpg,Tr19_10,Tristeza,10,Laura finaliza la obra.,Afirmación,Tr19,19,,,,,0,50,50,50,,,,,,,,,2,3.16609628852,,,,,2018_may._04_1327,59.9331108157,Experimento Piloto1,001,106,
2.5,Stim\\05_019.jpg,En19_2,Enojo,2,Jonathan pasea al perro.,Afirmación,En19,19,,,,,0,51,51,51,,,,,,,,,2,0.866867983601,,,,,2018_may._04_1327,59.9331108157,Experimento Piloto1,001,106,
0.25,Stim\\05_078.jpg,En78_5,Enojo,5,Emilio revisa el formato del archivo.,Afirmación,En78,78,,,,,0,52,52,52,,,,,,,,,2,0.550125819365,,,,,2018_may._04_1327,59.9331108157,Experimento Piloto1,001,106,
2.5,Stim\\02_075.jpg,Al75_5,Alegría,5,Emilio revisa el formato del archivo.,Afirmación,Al75,75,,,,,0,53,53,53,,,,,,,,,3,3.56610592746,,,,,2018_may._04_1327,59.9331108157,Experimento Piloto1,001,106,
0.25,Stim\\05_028.jpg,En28_9,Enojo,9,Marco colabora en la organización del evento.,Afirmación,En28,28,,,,,0,54,54,54,,,,,,,,,3,3.26617656837,,,,,2018_may._04_1327,59.9331108157,Experimento Piloto1,001,106,
2.5,Stim\\03_019.jpg,Tr19_1,Tristeza,1,Juan colecciona monedas antiguas.,Afirmación,Tr19,19,,,,,0,55,55,55,,,,,,,,,3,2.92721442306,,,,,2018_may._04_1327,59.9331108157,Experimento Piloto1,001,106,
0.25,Stim\\02_028.jpg,Al28_3,Alegría,3,Andrea diseña la portada del libro.,Afirmación,Al28,28,,,,,0,56,56,56,,,,,,,,,3,2.03358277058,,,,,2018_may._04_1327,59.9331108157,Experimento Piloto1,001,106,
0.25,Stim\\05_028.jpg,En28_5,Enojo,5,Emilio revisa el formato del archivo.,Afirmación,En28,28,,,,,0,57,57,57,,,,,,,,,4,4.08271100459,,,,,2018_may._04_1327,59.9331108157,Experimento Piloto1,001,106,
2.5,Stim\\03_078.jpg,Tr78_15,Tristeza,15,Ángel envía una carta a la abuela.,Afirmación,Tr78,78,,,,,0,58,58,58,,,,,,,,,4,0.916921287815,,,,,2018_may._04_1327,59.9331108157,Experimento Piloto1,001,106,
0.25,Stim\\02_078.jpg,Al78_10,Alegría,10,Laura finaliza la obra.,Afirmación,Al78,78,,,,,0,59,59,59,,,,,,,,,3,1.41654398591,,,,,2018_may._04_1327,59.9331108157,Experimento Piloto1,001,106,
0.25,Stim\\03_075.jpg,Tr75_7,Tristeza,7,Roberto contesta los cuestionarios solicitados.,Afirmación,Tr75,75,,,,,0,60,60,60,,,,,,,,,4,1.01683824123,,,,,2018_may._04_1327,59.9331108157,Experimento Piloto1,001,106,
0.25,Stim\\03_075.jpg,Tr75_5,Tristeza,5,Emilio revisa el formato del archivo.,Afirmación,Tr75,75,,,,,0,61,61,61,,,,,,,,,4,1.26673883969,,,,,2018_may._04_1327,59.9331108157,Experimento Piloto1,001,106,
0.25,Stim\\05_075.jpg,En75_14,Enojo,14,Elizabeth elige la ropa un día antes.,Afirmación,En75,75,,,,,0,62,62,62,,,,,,,,,2,1.16672817439,,,,,2018_may._04_1327,59.9331108157,Experimento Piloto1,001,106,
0.25,Stim\\05_075.jpg,En75_2,Enojo,2,Jonathan pasea al perro.,Afirmación,En75,75,,,,,0,63,63,63,,,,,,,,,2,1.15009386807,,,,,2018_may._04_1327,59.9331108157,Experimento Piloto1,001,106,
0.25,Stim\\02_078.jpg,Al78_6,Alegría,6,Eduardo camina hacia la biblioteca.,Afirmación,Al78,78,,,,,0,64,64,64,,,,,,,,,3,2.5330939069,,,,,2018_may._04_1327,59.9331108157,Experimento Piloto1,001,106,
0.25,Stim\\03_075.jpg,Tr75_4,Tristeza,4,Jorge sustituye a Gustavo cada sábado.,Afirmación,Tr75,75,,,,,0,65,65,65,,,,,,,,,4,0.700153642871,,,,,2018_may._04_1327,59.9331108157,Experimento Piloto1,001,106,
0.25,Stim\\03_075.jpg,Tr75_3,Tristeza,3,Andrea diseña la portada del libro.,Afirmación,Tr75,75,,,,,0,66,66,66,,,,,,,,,4,0.750346622423,,,,,2018_may._04_1327,59.9331108157,Experimento Piloto1,001,106,
0.25,Stim\\02_028.jpg,Al28_10,Alegría,10,Laura finaliza la obra.,Afirmación,Al28,28,,,,,0,67,67,67,,,,,,,,,3,1.01679495527,,,,,2018_may._04_1327,59.9331108157,Experimento Piloto1,001,106,
0.25,Stim\\03_028.jpg,Tr28_12,Tristeza,12,Ana compra el libro.,Afirmación,Tr28,28,,,,,0,68,68,68,,,,,,,,,4,1.06674473016,,,,,2018_may._04_1327,59.9331108157,Experimento Piloto1,001,106,
0.25,Stim\\03_075.jpg,Tr75_10,Tristeza,10,Laura finaliza la obra.,Afirmación,Tr75,75,,,,,0,69,69,69,,,,,,,,,4,0.433854356554,,,,,2018_may._04_1327,59.9331108157,Experimento Piloto1,001,106,
0.25,Stim\\02_028.jpg,Al28_8,Alegría,8,Estefanía despierta a las 7 a.m.,Afirmación,Al28,28,,,,,0,70,70,70,,,,,,,,,3,2.44980367359,,,,,2018_may._04_1327,59.9331108157,Experimento Piloto1,001,106,
0.25,Stim\\05_078.jpg,En78_14,Enojo,14,Elizabeth elige la ropa un día antes.,Afirmación,En78,78,,,,,0,71,71,71,,,,,,,,,2,0.817035571694,,,,,2018_may._04_1327,59.9331108157,Experimento Piloto1,001,106,
2.5,Stim\\03_078.jpg,Tr78_9,Tristeza,9,Marco colabora en la organización del evento.,Afirmación,Tr78,78,,,,,0,72,72,72,,,,,,,,,4,0.7001643528,,,,,2018_may._04_1327,59.9331108157,Experimento Piloto1,001,106,
0.25,Stim\\02_019.jpg,Al19_3,Alegría,3,Andrea diseña la portada del libro.,Afirmación,Al19,19,,,,,0,73,73,73,,,,,,,,,4,4.54893567839,,,,,2018_may._04_1327,59.9331108157,Experimento Piloto1,001,106,
0.25,Stim\\03_078.jpg,Tr78_6,Tristeza,6,Eduardo camina hacia la biblioteca.,Afirmación,Tr78,78,,,,,0,74,74,74,,,,,,,,,3,0.900140166208,,,,,2018_may._04_1327,59.9331108157,Experimento Piloto1,001,106,
0.25,Stim\\03_028.jpg,Tr28_8,Tristeza,8,Estefanía despierta a las 7 a.m.,Afirmación,Tr28,28,,,,,0,75,75,75,,,,,,,,,4,0.600391090946,,,,,2018_may._04_1327,59.9331108157,Experimento Piloto1,001,106,
2.5,Stim\\05_078.jpg,En78_9,Enojo,9,Marco colabora en la organización del evento.,Afirmación,En78,78,,,,,0,76,76,76,,,,,,,,,2,0.716649166345,,,,,2018_may._04_1327,59.9331108157,Experimento Piloto1,001,106,
2.5,Stim\\02_028.jpg,Al28_6,Alegría,6,Eduardo camina hacia la biblioteca.,Afirmación,Al28,28,,,,,0,77,77,77,,,,,,,,,2,5.88208411668,,,,,2018_may._04_1327,59.9331108157,Experimento Piloto1,001,106,
2.5,Stim\\03_078.jpg,Tr78_6,Tristeza,6,Eduardo camina hacia la biblioteca.,Afirmación,Tr78,78,,,,,0,78,78,78,,,,,,,,,4,1.53301268993,,,,,2018_may._04_1327,59.9331108157,Experimento Piloto1,001,106,
2.5,Stim\\02_078.jpg,Al78_2,Alegría,2,Jonathan pasea al perro.,Afirmación,Al78,78,,,,,0,79,79,79,,,,,,,,,3,9.11420043009,,,,,2018_may._04_1327,59.9331108157,Experimento Piloto1,001,106,
2.5,Stim\\02_028.jpg,Al28_10,Alegría,10,Laura finaliza la obra.,Afirmación,Al28,28,,,,,0,80,80,80,,,,,,,,,3,0.916794553645,,,,,2018_may._04_1327,59.9331108157,Experimento Piloto1,001,106,
2.5,Stim\\02_019.jpg,Al19_15,Alegría,15,Ángel envía una carta a la abuela.,Afirmación,Al19,19,,,,,0,81,81,81,,,,,,,,,3,3.46602877134,,,,,2018_may._04_1327,59.9331108157,Experimento Piloto1,001,106,
0.25,Stim\\03_019.jpg,Tr19_5,Tristeza,5,Emilio revisa el formato del archivo.,Afirmación,Tr19,19,,,,,0,82,82,82,,,,,,,,,2,2.49934245492,,,,,2018_may._04_1327,59.9331108157,Experimento Piloto1,001,106,
0.25,Stim\\02_075.jpg,Al75_12,Alegría,12,Ana compra el libro.,Afirmación,Al75,75,,,,,0,83,83,83,,,,,,,,,3,1.11688192882,,,,,2018_may._04_1327,59.9331108157,Experimento Piloto1,001,106,
2.5,Stim\\05_078.jpg,En78_3,Enojo,3,Andrea diseña la portada del libro.,Afirmación,En78,78,,,,,0,84,84,84,,,,,,,,,2,1.6166068175,,,,,2018_may._04_1327,59.9331108157,Experimento Piloto1,001,106,
2.5,Stim\\03_075.jpg,Tr75_5,Tristeza,5,Emilio revisa el formato del archivo.,Afirmación,Tr75,75,,,,,0,85,85,85,,,,,,,,,4,1.56666150508,,,,,2018_may._04_1327,59.9331108157,Experimento Piloto1,001,106,
2.5,Stim\\05_028.jpg,En28_2,Enojo,2,Jonathan pasea al perro.,Afirmación,En28,28,,,,,0,86,86,86,,,,,,,,,2,0.483533705712,,,,,2018_may._04_1327,59.9331108157,Experimento Piloto1,001,106,
0.25,Stim\\03_028.jpg,Tr28_9,Tristeza,9,Marco colabora en la organización del evento.,Afirmación,Tr28,28,,,,,0,87,87,87,,,,,,,,,4,0.750279239113,,,,,2018_may._04_1327,59.9331108157,Experimento Piloto1,001,106,
0.25,Stim\\03_078.jpg,Tr78_9,Tristeza,9,Marco colabora en la organización del evento.,Afirmación,Tr78,78,,,,,0,88,88,88,,,,,,,,,4,0.866876908543,,,,,2018_may._04_1327,59.9331108157,Experimento Piloto1,001,106,
2.5,Stim\\03_075.jpg,Tr75_12,Tristeza,12,Ana compra el libro.,Afirmación,Tr75,75,,,,,0,89,89,89,,,,,,,,,4,0.750291287783,,,,,2018_may._04_1327,59.9331108157,Experimento Piloto1,001,106,
2.5,Stim\\05_078.jpg,En78_11,Enojo,11,María asiste a la cena.,Afirmación,En78,78,,,,,0,90,90,90,,,,,,,,,2,1.16675093299,,,,,2018_may._04_1327,59.9331108157,Experimento Piloto1,001,106,
2.5,Stim\\02_075.jpg,Al75_14,Alegría,14,Elizabeth elige la ropa un día antes.,Afirmación,Al75,75,,,,,0,91,91,91,,,,,,,,,2,2.08317376281,,,,,2018_may._04_1327,59.9331108157,Experimento Piloto1,001,106,
0.25,Stim\\03_019.jpg,Tr19_7,Tristeza,7,Roberto contesta los cuestionarios solicitados.,Afirmación,Tr19,19,,,,,0,92,92,92,,,,,,,,,2,0.600181801063,,,,,2018_may._04_1327,59.9331108157,Experimento Piloto1,001,106,
0.25,Stim\\05_075.jpg,En75_5,Enojo,5,Emilio revisa el formato del archivo.,Afirmación,En75,75,,,,,0,93,93,93,,,,,,,,,3,0.700184433919,,,,,2018_may._04_1327,59.9331108157,Experimento Piloto1,001,106,
2.5,Stim\\05_019.jpg,En19_14,Enojo,14,Elizabeth elige la ropa un día antes.,Afirmación,En19,19,,,,,0,94,94,94,,,,,,,,,2,0.85018235887,,,,,2018_may._04_1327,59.9331108157,Experimento Piloto1,001,106,
0.25,Stim\\02_075.jpg,Al75_2,Alegría,2,Jonathan pasea al perro.,Afirmación,Al75,75,,,,,0,95,95,95,,,,,,,,,3,0.533991309785,,,,,2018_may._04_1327,59.9331108157,Experimento Piloto1,001,106,
2.5,Stim\\03_028.jpg,Tr28_10,Tristeza,10,Laura finaliza la obra.,Afirmación,Tr28,28,,,,,0,96,96,96,,,,,,,,,4,1.11676144211,,,,,2018_may._04_1327,59.9331108157,Experimento Piloto1,001,106,
2.5,Stim\\02_078.jpg,Al78_3,Alegría,3,Andrea diseña la portada del libro.,Afirmación,Al78,78,,,,,0,97,97,97,,,,,,,,,3,1.31685238727,,,,,2018_may._04_1327,59.9331108157,Experimento Piloto1,001,106,
2.5,Stim\\05_075.jpg,En75_3,Enojo,3,Andrea diseña la portada del libro.,Afirmación,En75,75,,,,,0,98,98,98,,,,,,,,,2,0.650158797025,,,,,2018_may._04_1327,59.9331108157,Experimento Piloto1,001,106,
2.5,Stim\\03_075.jpg,Tr75_3,Tristeza,3,Andrea diseña la portada del libro.,Afirmación,Tr75,75,,,,,0,99,99,99,,,,,,,,,2,0.916799462362,,,,,2018_may._04_1327,59.9331108157,Experimento Piloto1,001,106,
2.5,Stim\\03_075.jpg,Tr75_7,Tristeza,7,Roberto contesta los cuestionarios solicitados.,Afirmación,Tr75,75,,,,,0,100,100,100,,,,,,,,,4,0.900201748307,,,,,2018_may._04_1327,59.9331108157,Experimento Piloto1,001,106,
2.5,Stim\\03_019.jpg,Tr19_14,Tristeza,14,Elizabeth elige la ropa un día antes.,Afirmación,Tr19,19,,,,,0,101,101,101,,,,,,,,,4,1.48251715485,,,,,2018_may._04_1327,59.9331108157,Experimento Piloto1,001,106,
2.5,Stim\\05_078.jpg,En78_5,Enojo,5,Emilio revisa el formato del archivo.,Afirmación,En78,78,,,,,0,102,102,102,,,,,,,,,2,0.850368890151,,,,,2018_may._04_1327,59.9331108157,Experimento Piloto1,001,106,
2.5,Stim\\02_078.jpg,Al78_12,Alegría,12,Ana compra el libro.,Afirmación,Al78,78,,,,,0,103,103,103,,,,,,,,,3,1.78339121902,,,,,2018_may._04_1327,59.9331108157,Experimento Piloto1,001,106,
2.5,Stim\\02_028.jpg,Al28_13,Alegría,13,Rocío consume alimentos nutritivos.,Afirmación,Al28,28,,,,,0,104,104,104,,,,,,,,,3,0.966763517159,,,,,2018_may._04_1327,59.9331108157,Experimento Piloto1,001,106,
2.5,Stim\\05_028.jpg,En28_4,Enojo,4,Jorge sustituye a Gustavo cada sábado.,Afirmación,En28,28,,,,,0,105,105,105,,,,,,,,,2,1.05002742188,,,,,2018_may._04_1327,59.9331108157,Experimento Piloto1,001,106,
0.25,Stim\\02_028.jpg,Al28_7,Alegría,7,Roberto contesta los cuestionarios solicitados.,Afirmación,Al28,28,,,,,0,106,106,106,,,,,,,,,3,0.966846519117,,,,,2018_may._04_1327,59.9331108157,Experimento Piloto1,001,106,
0.25,Stim\\02_078.jpg,Al78_12,Alegría,12,Ana compra el libro.,Afirmación,Al78,78,,,,,0,107,107,107,,,,,,,,,3,1.93316512793,,,,,2018_may._04_1327,59.9331108157,Experimento Piloto1,001,106,
2.5,Stim\\02_028.jpg,Al28_7,Alegría,7,Roberto contesta los cuestionarios solicitados.,Afirmación,Al28,28,,,,,0,108,108,108,,,,,,,,,3,0.700255387206,,,,,2018_may._04_1327,59.9331108157,Experimento Piloto1,001,106,
0.25,Stim\\02_075.jpg,Al75_7,Alegría,7,Roberto contesta los cuestionarios solicitados.,Afirmación,Al75,75,,,,,0,109,109,109,,,,,,,,,3,0.600443301853,,,,,2018_may._04_1327,59.9331108157,Experimento Piloto1,001,106,
0.25,Stim\\05_075.jpg,En75_10,Enojo,10,Laura finaliza la obra.,Afirmación,En75,75,,,,,0,110,110,110,,,,,,,,,2,0.650265450078,,,,,2018_may._04_1327,59.9331108157,Experimento Piloto1,001,106,
2.5,Stim\\05_028.jpg,En28_8,Enojo,8,Estefanía despierta a las 7 a.m.,Afirmación,En28,28,,,,,0,111,111,111,,,,,,,,,2,0.600336202553,,,,,2018_may._04_1327,59.9331108157,Experimento Piloto1,001,106,
0.25,Stim\\03_075.jpg,Tr75_6,Tristeza,6,Eduardo camina hacia la biblioteca.,Afirmación,Tr75,75,,,,,0,112,112,112,,,,,,,,,4,0.950083247395,,,,,2018_may._04_1327,59.9331108157,Experimento Piloto1,001,106,
0.25,Stim\\02_078.jpg,Al78_4,Alegría,4,Jorge sustituye a Gustavo cada sábado.,Afirmación,Al78,78,,,,,0,113,113,113,,,,,,,,,3,1.10024717626,,,,,2018_may._04_1327,59.9331108157,Experimento Piloto1,001,106,
2.5,Stim\\02_019.jpg,Al19_13,Alegría,13,Rocío consume alimentos nutritivos.,Afirmación,Al19,19,,,,,0,114,114,114,,,,,,,,,3,0.800184389296,,,,,2018_may._04_1327,59.9331108157,Experimento Piloto1,001,106,
0.25,Stim\\02_078.jpg,Al78_15,Alegría,15,Ángel envía una carta a la abuela.,Afirmación,Al78,78,,,,,0,115,115,115,,,,,,,,,3,0.700553034012,,,,,2018_may._04_1327,59.9331108157,Experimento Piloto1,001,106,
2.5,Stim\\05_019.jpg,En19_4,Enojo,4,Jorge sustituye a Gustavo cada sábado.,Afirmación,En19,19,,,,,0,116,116,116,,,,,,,,,2,0.650308289798,,,,,2018_may._04_1327,59.9331108157,Experimento Piloto1,001,106,
2.5,Stim\\05_075.jpg,En75_9,Enojo,9,Marco colabora en la organización del evento.,Afirmación,En75,75,,,,,0,117,117,117,,,,,,,,,2,0.750266297948,,,,,2018_may._04_1327,59.9331108157,Experimento Piloto1,001,106,
0.25,Stim\\05_078.jpg,En78_8,Enojo,8,Estefanía despierta a las 7 a.m.,Afirmación,En78,78,,,,,0,118,118,118,,,,,,,,,2,0.650224395346,,,,,2018_may._04_1327,59.9331108157,Experimento Piloto1,001,106,
0.25,Stim\\03_075.jpg,Tr75_12,Tristeza,12,Ana compra el libro.,Afirmación,Tr75,75,,,,,0,119,119,119,,,,,,,,,4,1.01679584776,,,,,2018_may._04_1327,59.9331108157,Experimento Piloto1,001,106,
0.25,Stim\\02_075.jpg,Al75_11,Alegría,11,María asiste a la cena.,Afirmación,Al75,75,,,,,,,,,0,0,0,0,,,,,,,3,0.550527441741,,,2018_may._04_1327,59.9331108157,Experimento Piloto1,001,106,
2.5,Stim\\03_019.jpg,Tr19_9,Tristeza,9,Marco colabora en la organización del evento.,Afirmación,Tr19,19,,,,,,,,,0,1,1,1,,,,,,,4,1.68322704471,,,2018_may._04_1327,59.9331108157,Experimento Piloto1,001,106,
2.5,Stim\\02_075.jpg,Al75_8,Alegría,8,Estefanía despierta a las 7 a.m.,Afirmación,Al75,75,,,,,,,,,0,2,2,2,,,,,,,3,1.06679381734,,,2018_may._04_1327,59.9331108157,Experimento Piloto1,001,106,
2.5,Stim\\03_075.jpg,Tr75_13,Tristeza,13,Rocío consume alimentos nutritivos.,Afirmación,Tr75,75,,,,,,,,,0,3,3,3,,,,,,,4,0.916613823574,,,2018_may._04_1327,59.9331108157,Experimento Piloto1,001,106,
0.25,Stim\\03_019.jpg,Tr19_15,Tristeza,15,Ángel envía una carta a la abuela.,Afirmación,Tr19,19,,,,,,,,,0,4,4,4,,,,,,,2,1.98314792511,,,2018_may._04_1327,59.9331108157,Experimento Piloto1,001,106,
2.5,Stim\\05_075.jpg,En75_11,Enojo,11,María asiste a la cena.,Afirmación,En75,75,,,,,,,,,0,5,5,5,,,,,,,2,0.583533661087,,,2018_may._04_1327,59.9331108157,Experimento Piloto1,001,106,
0.25,Stim\\05_028.jpg,En28_4,Enojo,4,Jorge sustituye a Gustavo cada sábado.,Afirmación,En28,28,,,,,,,,,0,6,6,6,,,,,,,2,0.433591070774,,,2018_may._04_1327,59.9331108157,Experimento Piloto1,001,106,
2.5,Stim\\05_028.jpg,En28_9,Enojo,9,Marco colabora en la organización del evento.,Afirmación,En28,28,,,,,,,,,0,7,7,7,,,,,,,2,0.500017180511,,,2018_may._04_1327,59.9331108157,Experimento Piloto1,001,106,
2.5,Stim\\03_075.jpg,Tr75_9,Tristeza,9,Marco colabora en la organización del evento.,Afirmación,Tr75,75,,,,,,,,,0,8,8,8,,,,,,,4,0.700304474385,,,2018_may._04_1327,59.9331108157,Experimento Piloto1,001,106,
2.5,Stim\\05_028.jpg,En28_15,Enojo,15,Ángel envía una carta a la abuela.,Afirmación,En28,28,,,,,,,,,0,9,9,9,,,,,,,2,0.750363133564,,,2018_may._04_1327,59.9331108157,Experimento Piloto1,001,106,
0.25,Stim\\03_078.jpg,Tr78_8,Tristeza,8,Estefanía despierta a las 7 a.m.,Afirmación,Tr78,78,,,,,,,,,0,10,10,10,,,,,,,4,0.900216920707,,,2018_may._04_1327,59.9331108157,Experimento Piloto1,001,106,
0.25,Stim\\02_075.jpg,Al75_1,Alegría,1,Juan colecciona monedas antiguas.,Afirmación,Al75,75,,,,,,,,,0,11,11,11,,,,,,,3,0.816836545495,,,2018_may._04_1327,59.9331108157,Experimento Piloto1,001,106,
0.25,Stim\\05_078.jpg,En78_11,Enojo,11,María asiste a la cena.,Afirmación,En78,78,,,,,,,,,0,12,12,12,,,,,,,2,0.383738131501,,,2018_may._04_1327,59.9331108157,Experimento Piloto1,001,106,
2.5,Stim\\03_028.jpg,Tr28_15,Tristeza,15,Ángel envía una carta a la abuela.,Afirmación,Tr28,28,,,,,,,,,0,13,13,13,,,,,,,4,2.24966854998,,,2018_may._04_1327,59.9331108157,Experimento Piloto1,001,106,
2.5,Stim\\02_019.jpg,Al19_3,Alegría,3,Andrea diseña la portada del libro.,Afirmación,Al19,19,,,,,,,,,0,14,14,14,,,,,,,3,0.650280176231,,,2018_may._04_1327,59.9331108157,Experimento Piloto1,001,106,
2.5,Stim\\05_019.jpg,En19_5,Enojo,5,Emilio revisa el formato del archivo.,Afirmación,En19,19,,,,,,,,,0,15,15,15,,,,,,,2,1.53333488032,,,2018_may._04_1327,59.9331108157,Experimento Piloto1,001,106,
0.25,Stim\\02_028.jpg,Al28_11,Alegría,11,María asiste a la cena.,Afirmación,Al28,28,,,,,,,,,0,16,16,16,,,,,,,3,0.850222967356,,,2018_may._04_1327,59.9331108157,Experimento Piloto1,001,106,
0.25,Stim\\03_019.jpg,Tr19_11,Tristeza,11,María asiste a la cena.,Afirmación,Tr19,19,,,,,,,,,0,17,17,17,,,,,,,2,4.29923410613,,,2018_may._04_1327,59.9331108157,Experimento Piloto1,001,106,
2.5,Stim\\03_078.jpg,Tr78_14,Tristeza,14,Elizabeth elige la ropa un día antes.,Afirmación,Tr78,78,,,,,,,,,0,18,18,18,,,,,,,4,0.750213194544,,,2018_may._04_1327,59.9331108157,Experimento Piloto1,001,106,
0.25,Stim\\02_019.jpg,Al19_9,Alegría,9,Marco colabora en la organización del evento.,Afirmación,Al19,19,,,,,,,,,0,19,19,19,,,,,,,4,4.89911602915,,,2018_may._04_1327,59.9331108157,Experimento Piloto1,001,106,
2.5,Stim\\02_075.jpg,Al75_11,Alegría,11,María asiste a la cena.,Afirmación,Al75,75,,,,,,,,,0,20,20,20,,,,,,,3,1.93314817054,,,2018_may._04_1327,59.9331108157,Experimento Piloto1,001,106,
0.25,Stim\\02_028.jpg,Al28_4,Alegría,4,Jorge sustituye a Gustavo cada sábado.,Afirmación,Al28,28,,,,,,,,,0,21,21,21,,,,,,,3,1.15007958817,,,2018_may._04_1327,59.9331108157,Experimento Piloto1,001,106,
2.5,Stim\\02_075.jpg,Al75_10,Alegría,10,Laura finaliza la obra.,Afirmación,Al75,75,,,,,,,,,0,22,22,22,,,,,,,3,2.89958101861,,,2018_may._04_1327,59.9331108157,Experimento Piloto1,001,106,
0.25,Stim\\05_075.jpg,En75_4,Enojo,4,Jorge sustituye a Gustavo cada sábado.,Afirmación,En75,75,,,,,,,,,0,23,23,23,,,,,,,2,0.700200052568,,,2018_may._04_1327,59.9331108157,Experimento Piloto1,001,106,
2.5,Stim\\02_028.jpg,Al28_11,Alegría,11,María asiste a la cena.,Afirmación,Al28,28,,,,,,,,,0,24,24,24,,,,,,,3,0.866712689614,,,2018_may._04_1327,59.9331108157,Experimento Piloto1,001,106,
0.25,Stim\\02_078.jpg,Al78_1,Alegría,1,Juan colecciona monedas antiguas.,Afirmación,Al78,78,,,,,,,,,0,25,25,25,,,,,,,3,1.66666993915,,,2018_may._04_1327,59.9331108157,Experimento Piloto1,001,106,
2.5,Stim\\02_019.jpg,Al19_7,Alegría,7,Roberto contesta los cuestionarios solicitados.,Afirmación,Al19,19,,,,,,,,,0,26,26,26,,,,,,,3,0.7001264218,,,2018_may._04_1327,59.9331108157,Experimento Piloto1,001,106,
0.25,Stim\\05_028.jpg,En28_15,Enojo,15,Ángel envía una carta a la abuela.,Afirmación,En28,28,,,,,,,,,0,27,27,27,,,,,,,2,0.600334417564,,,2018_may._04_1327,59.9331108157,Experimento Piloto1,001,106,
0.25,Stim\\03_075.jpg,Tr75_2,Tristeza,2,Jonathan pasea al perro.,Afirmación,Tr75,75,,,,,,,,,0,28,28,28,,,,,,,4,0.48370238711,,,2018_may._04_1327,59.9331108157,Experimento Piloto1,001,106,
0.25,Stim\\05_075.jpg,En75_3,Enojo,3,Andrea diseña la portada del libro.,Afirmación,En75,75,,,,,,,,,0,29,29,29,,,,,,,2,0.550236934891,,,2018_may._04_1327,59.9331108157,Experimento Piloto1,001,106,
2.5,Stim\\05_028.jpg,En28_10,Enojo,10,Laura finaliza la obra.,Afirmación,En28,28,,,,,,,,,0,30,30,30,,,,,,,2,1.00011647049,,,2018_may._04_1327,59.9331108157,Experimento Piloto1,001,106,
0.25,Stim\\05_019.jpg,En19_4,Enojo,4,Jorge sustituye a Gustavo cada sábado.,Afirmación,En19,19,,,,,,,,,0,31,31,31,,,,,,,2,0.549954460486,,,2018_may._04_1327,59.9331108157,Experimento Piloto1,001,106,
2.5,Stim\\02_078.jpg,Al78_1,Alegría,1,Juan colecciona monedas antiguas.,Afirmación,Al78,78,,,,,,,,,0,32,32,32,,,,,,,3,0.550493526964,,,2018_may._04_1327,59.9331108157,Experimento Piloto1,001,106,
0.25,Stim\\05_075.jpg,En75_6,Enojo,6,Eduardo camina hacia la biblioteca.,Afirmación,En75,75,,,,,,,,,0,33,33,33,,,,,,,2,0.500324644754,,,2018_may._04_1327,59.9331108157,Experimento Piloto1,001,106,
2.5,Stim\\02_019.jpg,Al19_12,Alegría,12,Ana compra el libro.,Afirmación,Al19,19,,,,,,,,,0,34,34,34,,,,,,,3,0.400704445648,,,2018_may._04_1327,59.9331108157,Experimento Piloto1,001,106,
0.25,Stim\\05_075.jpg,En75_8,Enojo,8,Estefanía despierta a las 7 a.m.,Afirmación,En75,75,,,,,,,,,0,35,35,35,,,,,,,2,0.550140991767,,,2018_may._04_1327,59.9331108157,Experimento Piloto1,001,106,
2.5,Stim\\03_028.jpg,Tr28_4,Tristeza,4,Jorge sustituye a Gustavo cada sábado.,Afirmación,Tr28,28,,,,,,,,,0,36,36,36,,,,,,,4,1.10016149682,,,2018_may._04_1327,59.9331108157,Experimento Piloto1,001,106,
0.25,Stim\\03_078.jpg,Tr78_12,Tristeza,12,Ana compra el libro.,Afirmación,Tr78,78,,,,,,,,,0,37,37,37,,,,,,,4,0.750156074917,,,2018_may._04_1327,59.9331108157,Experimento Piloto1,001,106,
2.5,Stim\\03_019.jpg,Tr19_3,Tristeza,3,Andrea diseña la portada del libro.,Afirmación,Tr19,19,,,,,,,,,0,38,38,38,,,,,,,3,3.88234650997,,,2018_may._04_1327,59.9331108157,Experimento Piloto1,001,106,
2.5,Stim\\05_075.jpg,En75_4,Enojo,4,Jorge sustituye a Gustavo cada sábado.,Afirmación,En75,75,,,,,,,,,0,39,39,39,,,,,,,2,0.55046318216,,,2018_may._04_1327,59.9331108157,Experimento Piloto1,001,106,
0.25,Stim\\05_078.jpg,En78_6,Enojo,6,Eduardo camina hacia la biblioteca.,Afirmación,En78,78,,,,,,,,,0,40,40,40,,,,,,,2,0.550307441928,,,2018_may._04_1327,59.9331108157,Experimento Piloto1,001,106,
0.25,Stim\\03_078.jpg,Tr78_3,Tristeza,3,Andrea diseña la portada del libro.,Afirmación,Tr78,78,,,,,,,,,0,41,41,41,,,,,,,4,0.700325001751,,,2018_may._04_1327,59.9331108157,Experimento Piloto1,001,106,
0.25,Stim\\05_078.jpg,En78_15,Enojo,15,Ángel envía una carta a la abuela.,Afirmación,En78,78,,,,,,,,,0,42,42,42,,,,,,,2,0.750352423634,,,2018_may._04_1327,59.9331108157,Experimento Piloto1,001,106,
2.5,Stim\\05_078.jpg,En78_2,Enojo,2,Jonathan pasea al perro.,Afirmación,En78,78,,,,,,,,,0,43,43,43,,,,,,,2,0.500356328297,,,2018_may._04_1327,59.9331108157,Experimento Piloto1,001,106,
2.5,Stim\\02_078.jpg,Al78_4,Alegría,4,Jorge sustituye a Gustavo cada sábado.,Afirmación,Al78,78,,,,,,,,,0,44,44,44,,,,,,,3,1.0002530221,,,2018_may._04_1327,59.9331108157,Experimento Piloto1,001,106,
2.5,Stim\\05_078.jpg,En78_4,Enojo,4,Jorge sustituye a Gustavo cada sábado.,Afirmación,En78,78,,,,,,,,,0,45,45,45,,,,,,,2,0.600354052436,,,2018_may._04_1327,59.9331108157,Experimento Piloto1,001,106,
0.25,Stim\\05_019.jpg,En19_9,Enojo,9,Marco colabora en la organización del evento.,Afirmación,En19,19,,,,,,,,,0,46,46,46,,,,,,,2,0.550439084818,,,2018_may._04_1327,59.9331108157,Experimento Piloto1,001,106,
0.25,Stim\\05_019.jpg,En19_15,Enojo,15,Ángel envía una carta a la abuela.,Afirmación,En19,19,,,,,,,,,0,47,47,47,,,,,,,2,0.750174371047,,,2018_may._04_1327,59.9331108157,Experimento Piloto1,001,106,
2.5,Stim\\02_028.jpg,Al28_2,Alegría,2,Jonathan pasea al perro.,Afirmación,Al28,28,,,,,,,,,0,48,48,48,,,,,,,3,0.900223168168,,,2018_may._04_1327,59.9331108157,Experimento Piloto1,001,106,
0.25,Stim\\03_075.jpg,Tr75_1,Tristeza,1,Juan colecciona monedas antiguas.,Afirmación,Tr75,75,,,,,,,,,0,49,49,49,,,,,,,4,1.1499671339,,,2018_may._04_1327,59.9331108157,Experimento Piloto1,001,106,
2.5,Stim\\02_028.jpg,Al28_12,Alegría,12,Ana compra el libro.,Afirmación,Al28,28,,,,,,,,,0,50,50,50,,,,,,,3,0.500027444195,,,2018_may._04_1327,59.9331108157,Experimento Piloto1,001,106,
0.25,Stim\\05_019.jpg,En19_5,Enojo,5,Emilio revisa el formato del archivo.,Afirmación,En19,19,,,,,,,,,0,51,51,51,,,,,,,2,0.700196482592,,,2018_may._04_1327,59.9331108157,Experimento Piloto1,001,106,
0.25,Stim\\02_075.jpg,Al75_9,Alegría,9,Marco colabora en la organización del evento.,Afirmación,Al75,75,,,,,,,,,0,52,52,52,,,,,,,3,0.500381318134,,,2018_may._04_1327,59.9331108157,Experimento Piloto1,001,106,
2.5,Stim\\03_019.jpg,Tr19_12,Tristeza,12,Ana compra el libro.,Afirmación,Tr19,19,,,,,,,,,0,53,53,53,,,,,,,3,2.09981788656,,,2018_may._04_1327,59.9331108157,Experimento Piloto1,001,106,
2.5,Stim\\02_019.jpg,Al19_4,Alegría,4,Jorge sustituye a Gustavo cada sábado.,Afirmación,Al19,19,,,,,,,,,0,54,54,54,,,,,,,3,0.850136841667,,,2018_may._04_1327,59.9331108157,Experimento Piloto1,001,106,
0.25,Stim\\02_019.jpg,Al19_12,Alegría,12,Ana compra el libro.,Afirmación,Al19,19,,,,,,,,,0,55,55,55,,,,,,,3,2.7495768462,,,2018_may._04_1327,59.9331108157,Experimento Piloto1,001,106,
2.5,Stim\\02_078.jpg,Al78_7,Alegría,7,Roberto contesta los cuestionarios solicitados.,Afirmación,Al78,78,,,,,,,,,0,56,56,56,,,,,,,3,0.800324510879,,,2018_may._04_1327,59.9331108157,Experimento Piloto1,001,106,
2.5,Stim\\03_078.jpg,Tr78_13,Tristeza,13,Rocío consume alimentos nutritivos.,Afirmación,Tr78,78,,,,,,,,,0,57,57,57,,,,,,,4,0.750240861864,,,2018_may._04_1327,59.9331108157,Experimento Piloto1,001,106,
2.5,Stim\\02_075.jpg,Al75_9,Alegría,9,Marco colabora en la organización del evento.,Afirmación,Al75,75,,,,,,,,,0,58,58,58,,,,,,,3,0.550302979458,,,2018_may._04_1327,59.9331108157,Experimento Piloto1,001,106,
0.25,Stim\\02_028.jpg,Al28_5,Alegría,5,Emilio revisa el formato del archivo.,Afirmación,Al28,28,,,,,,,,,0,59,59,59,,,,,,,3,0.650002610546,,,2018_may._04_1327,59.9331108157,Experimento Piloto1,001,106,
2.5,Stim\\03_028.jpg,Tr28_7,Tristeza,7,Roberto contesta los cuestionarios solicitados.,Afirmación,Tr28,28,,,,,,,,,0,60,60,60,,,,,,,4,0.600232226983,,,2018_may._04_1327,59.9331108157,Experimento Piloto1,001,106,
0.25,Stim\\05_078.jpg,En78_7,Enojo,7,Roberto contesta los cuestionarios solicitados.,Afirmación,En78,78,,,,,,,,,0,61,61,61,,,,,,,2,0.500174705732,,,2018_may._04_1327,59.9331108157,Experimento Piloto1,001,106,
2.5,Stim\\03_028.jpg,Tr28_5,Tristeza,5,Emilio revisa el formato del archivo.,Afirmación,Tr28,28,,,,,,,,,0,62,62,62,,,,,,,4,0.450230285809,,,2018_may._04_1327,59.9331108157,Experimento Piloto1,001,106,
0.25,Stim\\02_019.jpg,Al19_13,Alegría,13,Rocío consume alimentos nutritivos.,Afirmación,Al19,19,,,,,,,,,0,63,63,63,,,,,,,3,2.23315160665,,,2018_may._04_1327,59.9331108157,Experimento Piloto1,001,106,
2.5,Stim\\05_019.jpg,En19_13,Enojo,13,Rocío consume alimentos nutritivos.,Afirmación,En19,19,,,,,,,,,0,64,64,64,,,,,,,2,0.700085367067,,,2018_may._04_1327,59.9331108157,Experimento Piloto1,001,106,
2.5,Stim\\03_078.jpg,Tr78_4,Tristeza,4,Jorge sustituye a Gustavo cada sábado.,Afirmación,Tr78,78,,,,,,,,,0,65,65,65,,,,,,,4,0.550283344586,,,2018_may._04_1327,59.9331108157,Experimento Piloto1,001,106,
0.25,Stim\\05_028.jpg,En28_13,Enojo,13,Rocío consume alimentos nutritivos.,Afirmación,En28,28,,,,,,,,,0,66,66,66,,,,,,,2,0.600327277611,,,2018_may._04_1327,59.9331108157,Experimento Piloto1,001,106,
0.25,Stim\\02_075.jpg,Al75_4,Alegría,4,Jorge sustituye a Gustavo cada sábado.,Afirmación,Al75,75,,,,,,,,,0,67,67,67,,,,,,,3,0.483746119324,,,2018_may._04_1327,59.9331108157,Experimento Piloto1,001,106,
0.25,Stim\\03_019.jpg,Tr19_14,Tristeza,14,Elizabeth elige la ropa un día antes.,Afirmación,Tr19,19,,,,,,,,,0,68,68,68,,,,,,,3,0.800516843372,,,2018_may._04_1327,59.9331108157,Experimento Piloto1,001,106,
2.5,Stim\\02_075.jpg,Al75_4,Alegría,4,Jorge sustituye a Gustavo cada sábado.,Afirmación,Al75,75,,,,,,,,,0,69,69,69,,,,,,,3,0.450581482262,,,2018_may._04_1327,59.9331108157,Experimento Piloto1,001,106,
2.5,Stim\\05_078.jpg,En78_7,Enojo,7,Roberto contesta los cuestionarios solicitados.,Afirmación,En78,78,,,,,,,,,0,70,70,70,,,,,,,2,0.449950935134,,,2018_may._04_1327,59.9331108157,Experimento Piloto1,001,106,
2.5,Stim\\05_028.jpg,En28_6,Enojo,6,Eduardo camina hacia la biblioteca.,Afirmación,En28,28,,,,,,,,,0,71,71,71,,,,,,,2,0.700121066835,,,2018_may._04_1327,59.9331108157,Experimento Piloto1,001,106,
2.5,Stim\\05_028.jpg,En28_7,Enojo,7,Roberto contesta los cuestionarios solicitados.,Afirmación,En28,28,,,,,,,,,0,72,72,72,,,,,,,2,0.750226135709,,,2018_may._04_1327,59.9331108157,Experimento Piloto1,001,106,
2.5,Stim\\03_028.jpg,Tr28_14,Tristeza,14,Elizabeth elige la ropa un día antes.,Afirmación,Tr28,28,,,,,,,,,0,73,73,73,,,,,,,4,1.06681657594,,,2018_may._04_1327,59.9331108157,Experimento Piloto1,001,106,
2.5,Stim\\02_019.jpg,Al19_11,Alegría,11,María asiste a la cena.,Afirmación,Al19,19,,,,,,,,,0,74,74,74,,,,,,,3,1.4663705966,,,2018_may._04_1327,59.9331108157,Experimento Piloto1,001,106,
0.25,Stim\\05_028.jpg,En28_7,Enojo,7,Roberto contesta los cuestionarios solicitados.,Afirmación,En28,28,,,,,,,,,0,75,75,75,,,,,,,2,0.549929916895,,,2018_may._04_1327,59.9331108157,Experimento Piloto1,001,106,
0.25,Stim\\05_078.jpg,En78_13,Enojo,13,Rocío consume alimentos nutritivos.,Afirmación,En78,78,,,,,,,,,0,76,76,76,,,,,,,2,0.600312997705,,,2018_may._04_1327,59.9331108157,Experimento Piloto1,001,106,
0.25,Stim\\03_028.jpg,Tr28_14,Tristeza,14,Elizabeth elige la ropa un día antes.,Afirmación,Tr28,28,,,,,,,,,0,77,77,77,,,,,,,2,1.01668919471,,,2018_may._04_1327,59.9331108157,Experimento Piloto1,001,106,
2.5,Stim\\03_075.jpg,Tr75_14,Tristeza,14,Elizabeth elige la ropa un día antes.,Afirmación,Tr75,75,,,,,,,,,0,78,78,78,,,,,,,4,1.01677844412,,,2018_may._04_1327,59.9331108157,Experimento Piloto1,001,106,
0.25,Stim\\05_019.jpg,En19_10,Enojo,10,Laura finaliza la obra.,Afirmación,En19,19,,,,,,,,,0,79,79,79,,,,,,,2,0.800037127758,,,2018_may._04_1327,59.9331108157,Experimento Piloto1,001,106,
0.25,Stim\\05_078.jpg,En78_9,Enojo,9,Marco colabora en la organización del evento.,Afirmación,En78,78,,,,,,,,,0,80,80,80,,,,,,,2,0.550317259364,,,2018_may._04_1327,59.9331108157,Experimento Piloto1,001,106,
0.25,Stim\\02_028.jpg,Al28_6,Alegría,6,Eduardo camina hacia la biblioteca.,Afirmación,Al28,28,,,,,,,,,0,81,81,81,,,,,,,3,0.600236689454,,,2018_may._04_1327,59.9331108157,Experimento Piloto1,001,106,
0.25,Stim\\05_078.jpg,En78_12,Enojo,12,Ana compra el libro.,Afirmación,En78,78,,,,,,,,,0,82,82,82,,,,,,,2,0.550062452279,,,2018_may._04_1327,59.9331108157,Experimento Piloto1,001,106,
2.5,Stim\\05_075.jpg,En75_1,Enojo,1,Juan colecciona monedas antiguas.,Afirmación,En75,75,,,,,,,,,0,83,83,83,,,,,,,2,0.500319736037,,,2018_may._04_1327,59.9331108157,Experimento Piloto1,001,106,
0.25,Stim\\03_019.jpg,Tr19_13,Tristeza,13,Rocío consume alimentos nutritivos.,Afirmación,Tr19,19,,,,,,,,,0,84,84,84,,,,,,,3,1.36666561055,,,2018_may._04_1327,59.9331108157,Experimento Piloto1,001,106,
2.5,Stim\\03_078.jpg,Tr78_11,Tristeza,11,María asiste a la cena.,Afirmación,Tr78,78,,,,,,,,,0,85,85,85,,,,,,,4,0.866583724208,,,2018_may._04_1327,59.9331108157,Experimento Piloto1,001,106,
2.5,Stim\\05_019.jpg,En19_1,Enojo,1,Juan colecciona monedas antiguas.,Afirmación,En19,19,,,,,,,,,0,86,86,86,,,,,,,2,1.46673518047,,,2018_may._04_1327,59.9331108157,Experimento Piloto1,001,106,
0.25,Stim\\02_075.jpg,Al75_10,Alegría,10,Laura finaliza la obra.,Afirmación,Al75,75,,,,,,,,,0,87,87,87,,,,,,,3,2.18304519903,,,2018_may._04_1327,59.9331108157,Experimento Piloto1,001,106,
2.5,Stim\\02_019.jpg,Al19_14,Alegría,14,Elizabeth elige la ropa un día antes.,Afirmación,Al19,19,,,,,,,,,0,88,88,88,,,,,,,3,1.61659700006,,,2018_may._04_1327,59.9331108157,Experimento Piloto1,001,106,
0.25,Stim\\03_028.jpg,Tr28_6,Tristeza,6,Eduardo camina hacia la biblioteca.,Afirmación,Tr28,28,,,,,,,,,0,89,89,89,,,,,,,4,1.41640074059,,,2018_may._04_1327,59.9331108157,Experimento Piloto1,001,106,
0.25,Stim\\02_075.jpg,Al75_8,Alegría,8,Estefanía despierta a las 7 a.m.,Afirmación,Al75,75,,,,,,,,,0,90,90,90,,,,,,,3,2.18309205497,,,2018_may._04_1327,59.9331108157,Experimento Piloto1,001,106,
2.5,Stim\\02_019.jpg,Al19_6,Alegría,6,Eduardo camina hacia la biblioteca.,Afirmación,Al19,19,,,,,,,,,0,91,91,91,,,,,,,3,0.716571965599,,,2018_may._04_1327,59.9331108157,Experimento Piloto1,001,106,
2.5,Stim\\03_078.jpg,Tr78_7,Tristeza,7,Roberto contesta los cuestionarios solicitados.,Afirmación,Tr78,78,,,,,,,,,0,92,92,92,,,,,,,4,0.816701778875,,,2018_may._04_1327,59.9331108157,Experimento Piloto1,001,106,
2.5,Stim\\02_028.jpg,Al28_8,Alegría,8,Estefanía despierta a las 7 a.m.,Afirmación,Al28,28,,,,,,,,,0,93,93,93,,,,,,,3,0.650203421734,,,2018_may._04_1327,59.9331108157,Experimento Piloto1,001,106,
0.25,Stim\\03_075.jpg,Tr75_13,Tristeza,13,Rocío consume alimentos nutritivos.,Afirmación,Tr75,75,,,,,,,,,0,94,94,94,,,,,,,4,0.550284237081,,,2018_may._04_1327,59.9331108157,Experimento Piloto1,001,106,
2.5,Stim\\02_075.jpg,Al75_6,Alegría,6,Eduardo camina hacia la biblioteca.,Afirmación,Al75,75,,,,,,,,,0,95,95,95,,,,,,,3,0.600276405445,,,2018_may._04_1327,59.9331108157,Experimento Piloto1,001,106,
0.25,Stim\\02_028.jpg,Al28_9,Alegría,9,Marco colabora en la organización del evento.,Afirmación,Al28,28,,,,,,,,,0,96,96,96,,,,,,,3,0.55061356743,,,2018_may._04_1327,59.9331108157,Experimento Piloto1,001,106,
0.25,Stim\\02_019.jpg,Al19_8,Alegría,8,Estefanía despierta a las 7 a.m.,Afirmación,Al19,19,,,,,,,,,0,97,97,97,,,,,,,3,0.600402247122,,,2018_may._04_1327,59.9331108157,Experimento Piloto1,001,106,
2.5,Stim\\02_019.jpg,Al19_1,Alegría,1,Juan colecciona monedas antiguas.,Afirmación,Al19,19,,,,,,,,,0,98,98,98,,,,,,,3,0.400853045927,,,2018_may._04_1327,59.9331108157,Experimento Piloto1,001,106,
0.25,Stim\\02_019.jpg,Al19_5,Alegría,5,Emilio revisa el formato del archivo.,Afirmación,Al19,19,,,,,,,,,0,99,99,99,,,,,,,2,2.03325745645,,,2018_may._04_1327,59.9331108157,Experimento Piloto1,001,106,
2.5,Stim\\02_078.jpg,Al78_13,Alegría,13,Rocío consume alimentos nutritivos.,Afirmación,Al78,78,,,,,,,,,0,100,100,100,,,,,,,3,3.26624350543,,,2018_may._04_1327,59.9331108157,Experimento Piloto1,001,106,
2.5,Stim\\05_078.jpg,En78_12,Enojo,12,Ana compra el libro.,Afirmación,En78,78,,,,,,,,,0,101,101,101,,,,,,,2,0.650277944997,,,2018_may._04_1327,59.9331108157,Experimento Piloto1,001,106,
2.5,Stim\\03_075.jpg,Tr75_11,Tristeza,11,María asiste a la cena.,Afirmación,Tr75,75,,,,,,,,,0,102,102,102,,,,,,,4,0.599977419897,,,2018_may._04_1327,59.9331108157,Experimento Piloto1,001,106,
0.25,Stim\\02_078.jpg,Al78_13,Alegría,13,Rocío consume alimentos nutritivos.,Afirmación,Al78,78,,,,,,,,,0,103,103,103,,,,,,,2,8.44787097747,,,2018_may._04_1327,59.9331108157,Experimento Piloto1,001,106,
0.25,Stim\\03_075.jpg,Tr75_11,Tristeza,11,María asiste a la cena.,Afirmación,Tr75,75,,,,,,,,,0,104,104,104,,,,,,,4,0.533490174308,,,2018_may._04_1327,59.9331108157,Experimento Piloto1,001,106,
2.5,Stim\\05_075.jpg,En75_8,Enojo,8,Estefanía despierta a las 7 a.m.,Afirmación,En75,75,,,,,,,,,0,105,105,105,,,,,,,2,0.550254784772,,,2018_may._04_1327,59.9331108157,Experimento Piloto1,001,106,
2.5,Stim\\03_078.jpg,Tr78_2,Tristeza,2,Jonathan pasea al perro.,Afirmación,Tr78,78,,,,,,,,,0,106,106,106,,,,,,,4,0.800073273771,,,2018_may._04_1327,59.9331108157,Experimento Piloto1,001,106,
2.5,Stim\\03_078.jpg,Tr78_12,Tristeza,12,Ana compra el libro.,Afirmación,Tr78,78,,,,,,,,,0,107,107,107,,,,,,,4,0.550147239226,,,2018_may._04_1327,59.9331108157,Experimento Piloto1,001,106,
2.5,Stim\\05_019.jpg,En19_10,Enojo,10,Laura finaliza la obra.,Afirmación,En19,19,,,,,,,,,0,108,108,108,,,,,,,2,0.500288944988,,,2018_may._04_1327,59.9331108157,Experimento Piloto1,001,106,
2.5,Stim\\05_078.jpg,En78_15,Enojo,15,Ángel envía una carta a la abuela.,Afirmación,En78,78,,,,,,,,,0,109,109,109,,,,,,,2,0.500263508904,,,2018_may._04_1327,59.9331108157,Experimento Piloto1,001,106,
0.25,Stim\\02_028.jpg,Al28_15,Alegría,15,Ángel envía una carta a la abuela.,Afirmación,Al28,28,,,,,,,,,0,110,110,110,,,,,,,4,5.91537638041,,,2018_may._04_1327,59.9331108157,Experimento Piloto1,001,106,
2.5,Stim\\02_075.jpg,Al75_13,Alegría,13,Rocío consume alimentos nutritivos.,Afirmación,Al75,75,,,,,,,,,0,111,111,111,,,,,,,2,1.01678067536,,,2018_may._04_1327,59.9331108157,Experimento Piloto1,001,106,
2.5,Stim\\02_078.jpg,Al78_5,Alegría,5,Emilio revisa el formato del archivo.,Afirmación,Al78,78,,,,,,,,,0,112,112,112,,,,,,,4,1.05006624538,,,2018_may._04_1327,59.9331108157,Experimento Piloto1,001,106,
2.5,Stim\\05_019.jpg,En19_12,Enojo,12,Ana compra el libro.,Afirmación,En19,19,,,,,,,,,0,113,113,113,,,,,,,2,0.750190435943,,,2018_may._04_1327,59.9331108157,Experimento Piloto1,001,106,
2.5,Stim\\03_028.jpg,Tr28_13,Tristeza,13,Rocío consume alimentos nutritivos.,Afirmación,Tr28,28,,,,,,,,,0,114,114,114,,,,,,,4,1.98334605881,,,2018_may._04_1327,59.9331108157,Experimento Piloto1,001,106,
2.5,Stim\\02_075.jpg,Al75_1,Alegría,1,Juan colecciona monedas antiguas.,Afirmación,Al75,75,,,,,,,,,0,115,115,115,,,,,,,3,0.700436117277,,,2018_may._04_1327,59.9331108157,Experimento Piloto1,001,106,
2.5,Stim\\02_028.jpg,Al28_3,Alegría,3,Andrea diseña la portada del libro.,Afirmación,Al28,28,,,,,,,,,0,116,116,116,,,,,,,3,0.49999933063,,,2018_may._04_1327,59.9331108157,Experimento Piloto1,001,106,
0.25,Stim\\05_028.jpg,En28_10,Enojo,10,Laura finaliza la obra.,Afirmación,En28,28,,,,,,,,,0,117,117,117,,,,,,,2,0.433712449982,,,2018_may._04_1327,59.9331108157,Experimento Piloto1,001,106,
0.25,Stim\\02_078.jpg,Al78_3,Alegría,3,Andrea diseña la portada del libro.,Afirmación,Al78,78,,,,,,,,,0,118,118,118,,,,,,,3,0.80028167116,,,2018_may._04_1327,59.9331108157,Experimento Piloto1,001,106,
2.5,Stim\\03_075.jpg,Tr75_15,Tristeza,15,Ángel envía una carta a la abuela.,Afirmación,Tr75,75,,,,,,,,,0,119,119,119,,,,,,,4,0.60024784563,,,2018_may._04_1327,59.9331108157,Experimento Piloto1,001,106,
2.5,Stim\\03_028.jpg,Tr28_1,Tristeza,1,Juan colecciona monedas antiguas.,Afirmación,Tr28,28,,,,,,,,,,,,,0,0,0,0,,,,,4,1.26679685182,2018_may._04_1327,59.9331108157,Experimento Piloto1,001,106,
0.25,Stim\\03_019.jpg,Tr19_1,Tristeza,1,Juan colecciona monedas antiguas.,Afirmación,Tr19,19,,,,,,,,,,,,,0,1,1,1,,,,,3,0.483695247156,2018_may._04_1327,59.9331108157,Experimento Piloto1,001,106,
2.5,Stim\\03_078.jpg,Tr78_10,Tristeza,10,Laura finaliza la obra.,Afirmación,Tr78,78,,,,,,,,,,,,,0,2,2,2,,,,,4,0.433628109282,2018_may._04_1327,59.9331108157,Experimento Piloto1,001,106,
0.25,Stim\\02_075.jpg,Al75_5,Alegría,5,Emilio revisa el formato del archivo.,Afirmación,Al75,75,,,,,,,,,,,,,0,3,3,3,,,,,2,4.91545447365,2018_may._04_1327,59.9331108157,Experimento Piloto1,001,106,
0.25,Stim\\02_019.jpg,Al19_15,Alegría,15,Ángel envía una carta a la abuela.,Afirmación,Al19,19,,,,,,,,,,,,,0,4,4,4,,,,,2,3.26604715671,2018_may._04_1327,59.9331108157,Experimento Piloto1,001,106,
2.5,Stim\\02_075.jpg,Al75_7,Alegría,7,Roberto contesta los cuestionarios solicitados.,Afirmación,Al75,75,,,,,,,,,,,,,0,5,5,5,,,,,2,0.750399279577,2018_may._04_1327,59.9331108157,Experimento Piloto1,001,106,
0.25,Stim\\03_075.jpg,Tr75_8,Tristeza,8,Estefanía despierta a las 7 a.m.,Afirmación,Tr75,75,,,,,,,,,,,,,0,6,6,6,,,,,3,0.750119036409,2018_may._04_1327,59.9331108157,Experimento Piloto1,001,106,
0.25,Stim\\02_019.jpg,Al19_11,Alegría,11,María asiste a la cena.,Afirmación,Al19,19,,,,,,,,,,,,,0,7,7,7,,,,,3,2.04938036361,2018_may._04_1327,59.9331108157,Experimento Piloto1,001,106,
2.5,Stim\\02_019.jpg,Al19_2,Alegría,2,Jonathan pasea al perro.,Afirmación,Al19,19,,,,,,,,,,,,,0,8,8,8,,,,,4,5.11582343074,2018_may._04_1327,59.9331108157,Experimento Piloto1,001,106,
2.5,Stim\\05_075.jpg,En75_5,Enojo,5,Emilio revisa el formato del archivo.,Afirmación,En75,75,,,,,,,,,,,,,0,9,9,9,,,,,2,0.750278792866,2018_may._04_1327,59.9331108157,Experimento Piloto1,001,106,
0.25,Stim\\03_078.jpg,Tr78_10,Tristeza,10,Laura finaliza la obra.,Afirmación,Tr78,78,,,,,,,,,,,,,0,10,10,10,,,,,4,0.650357823226,2018_may._04_1327,59.9331108157,Experimento Piloto1,001,106,
0.25,Stim\\02_019.jpg,Al19_6,Alegría,6,Eduardo camina hacia la biblioteca.,Afirmación,Al19,19,,,,,,,,,,,,,0,11,11,11,,,,,2,2.54972151951,2018_may._04_1327,59.9331108157,Experimento Piloto1,001,106,
2.5,Stim\\05_019.jpg,En19_3,Enojo,3,Andrea diseña la portada del libro.,Afirmación,En19,19,,,,,,,,,,,,,0,12,12,12,,,,,2,0.450310610282,2018_may._04_1327,59.9331108157,Experimento Piloto1,001,106,
0.25,Stim\\05_019.jpg,En19_3,Enojo,3,Andrea diseña la portada del libro.,Afirmación,En19,19,,,,,,,,,,,,,0,13,13,13,,,,,2,1.267609914,2018_may._04_1327,59.9331108157,Experimento Piloto1,001,106,
2.5,Stim\\02_028.jpg,Al28_1,Alegría,1,Juan colecciona monedas antiguas.,Afirmación,Al28,28,,,,,,,,,,,,,0,14,14,14,,,,,3,2.19968932278,2018_may._04_1327,59.9331108157,Experimento Piloto1,001,106,
0.25,Stim\\02_019.jpg,Al19_2,Alegría,2,Jonathan pasea al perro.,Afirmación,Al19,19,,,,,,,,,,,,,0,15,15,15,,,,,3,0.600192064747,2018_may._04_1327,59.9331108157,Experimento Piloto1,001,106,
0.25,Stim\\05_028.jpg,En28_11,Enojo,11,María asiste a la cena.,Afirmación,En28,28,,,,,,,,,,,,,0,16,16,16,,,,,2,0.900194162106,2018_may._04_1327,59.9331108157,Experimento Piloto1,001,106,
0.25,Stim\\03_028.jpg,Tr28_1,Tristeza,1,Juan colecciona monedas antiguas.,Afirmación,Tr28,28,,,,,,,,,,,,,0,17,17,17,,,,,4,1.43305557427,2018_may._04_1327,59.9331108157,Experimento Piloto1,001,106,
0.25,Stim\\03_078.jpg,Tr78_1,Tristeza,1,Juan colecciona monedas antiguas.,Afirmación,Tr78,78,,,,,,,,,,,,,0,18,18,18,,,,,4,0.60018358605,2018_may._04_1327,59.9331108157,Experimento Piloto1,001,106,
0.25,Stim\\02_019.jpg,Al19_1,Alegría,1,Juan colecciona monedas antiguas.,Afirmación,Al19,19,,,,,,,,,,,,,0,19,19,19,,,,,3,0.800212949109,2018_may._04_1327,59.9331108157,Experimento Piloto1,001,106,
0.25,Stim\\02_019.jpg,Al19_10,Alegría,10,Laura finaliza la obra.,Afirmación,Al19,19,,,,,,,,,,,,,0,20,20,20,,,,,3,0.50028225128,2018_may._04_1327,59.9331108157,Experimento Piloto1,001,106,
2.5,Stim\\03_019.jpg,Tr19_13,Tristeza,13,Rocío consume alimentos nutritivos.,Afirmación,Tr19,19,,,,,,,,,,,,,0,21,21,21,,,,,3,0.400254628586,2018_may._04_1327,59.9331108157,Experimento Piloto1,001,106,
2.5,Stim\\05_075.jpg,En75_6,Enojo,6,Eduardo camina hacia la biblioteca.,Afirmación,En75,75,,,,,,,,,,,,,0,22,22,22,,,,,2,0.383704662969,2018_may._04_1327,59.9331108157,Experimento Piloto1,001,106,
0.25,Stim\\05_078.jpg,En78_10,Enojo,10,Laura finaliza la obra.,Afirmación,En78,78,,,,,,,,,,,,,0,23,23,23,,,,,2,0.483735409392,2018_may._04_1327,59.9331108157,Experimento Piloto1,001,106,
2.5,Stim\\05_075.jpg,En75_14,Enojo,14,Elizabeth elige la ropa un día antes.,Afirmación,En75,75,,,,,,,,,,,,,0,24,24,24,,,,,2,0.450255721893,2018_may._04_1327,59.9331108157,Experimento Piloto1,001,106,
0.25,Stim\\05_019.jpg,En19_7,Enojo,7,Roberto contesta los cuestionarios solicitados.,Afirmación,En19,19,,,,,,,,,,,,,0,25,25,25,,,,,2,1.16680269765,2018_may._04_1327,59.9331108157,Experimento Piloto1,001,106,
0.25,Stim\\02_078.jpg,Al78_14,Alegría,14,Elizabeth elige la ropa un día antes.,Afirmación,Al78,78,,,,,,,,,,,,,0,26,26,26,,,,,3,1.83326914813,2018_may._04_1327,59.9331108157,Experimento Piloto1,001,106,
0.25,Stim\\03_028.jpg,Tr28_13,Tristeza,13,Rocío consume alimentos nutritivos.,Afirmación,Tr28,28,,,,,,,,,,,,,0,27,27,27,,,,,4,1.06670947664,2018_may._04_1327,59.9331108157,Experimento Piloto1,001,106,
2.5,Stim\\03_019.jpg,Tr19_8,Tristeza,8,Estefanía despierta a las 7 a.m.,Afirmación,Tr19,19,,,,,,,,,,,,,0,28,28,28,,,,,3,1.73320582567,2018_may._04_1327,59.9331108157,Experimento Piloto1,001,106,
2.5,Stim\\02_019.jpg,Al19_8,Alegría,8,Estefanía despierta a las 7 a.m.,Afirmación,Al19,19,,,,,,,,,,,,,0,29,29,29,,,,,4,0.850185482601,2018_may._04_1327,59.9331108157,Experimento Piloto1,001,106,
2.5,Stim\\02_028.jpg,Al28_9,Alegría,9,Marco colabora en la organización del evento.,Afirmación,Al28,28,,,,,,,,,,,,,0,30,30,30,,,,,4,1.21686983553,2018_may._04_1327,59.9331108157,Experimento Piloto1,001,106,
2.5,Stim\\03_075.jpg,Tr75_1,Tristeza,1,Juan colecciona monedas antiguas.,Afirmación,Tr75,75,,,,,,,,,,,,,0,31,31,31,,,,,4,0.75021854951,2018_may._04_1327,59.9331108157,Experimento Piloto1,001,106,
2.5,Stim\\05_078.jpg,En78_8,Enojo,8,Estefanía despierta a las 7 a.m.,Afirmación,En78,78,,,,,,,,,,,,,0,32,32,32,,,,,2,0.700253602217,2018_may._04_1327,59.9331108157,Experimento Piloto1,001,106,
0.25,Stim\\02_028.jpg,Al28_12,Alegría,12,Ana compra el libro.,Afirmación,Al28,28,,,,,,,,,,,,,0,33,33,33,,,,,3,3.36616626006,2018_may._04_1327,59.9331108157,Experimento Piloto1,001,106,
0.25,Stim\\05_075.jpg,En75_1,Enojo,1,Juan colecciona monedas antiguas.,Afirmación,En75,75,,,,,,,,,,,,,0,34,34,34,,,,,2,1.36682938323,2018_may._04_1327,59.9331108157,Experimento Piloto1,001,106,
0.25,Stim\\03_028.jpg,Tr28_4,Tristeza,4,Jorge sustituye a Gustavo cada sábado.,Afirmación,Tr28,28,,,,,,,,,,,,,0,35,35,35,,,,,3,1.21677969362,2018_may._04_1327,59.9331108157,Experimento Piloto1,001,106,
2.5,Stim\\03_078.jpg,Tr78_3,Tristeza,3,Andrea diseña la portada del libro.,Afirmación,Tr78,78,,,,,,,,,,,,,0,36,36,36,,,,,4,1.31674975044,2018_may._04_1327,59.9331108157,Experimento Piloto1,001,106,
0.25,Stim\\05_078.jpg,En78_4,Enojo,4,Jorge sustituye a Gustavo cada sábado.,Afirmación,En78,78,,,,,,,,,,,,,0,37,37,37,,,,,2,1.58328867144,2018_may._04_1327,59.9331108157,Experimento Piloto1,001,106,
2.5,Stim\\03_019.jpg,Tr19_7,Tristeza,7,Roberto contesta los cuestionarios solicitados.,Afirmación,Tr19,19,,,,,,,,,,,,,0,38,38,38,,,,,2,2.81604401067,2018_may._04_1327,59.9331108157,Experimento Piloto1,001,106,
0.25,Stim\\02_078.jpg,Al78_2,Alegría,2,Jonathan pasea al perro.,Afirmación,Al78,78,,,,,,,,,,,,,0,39,39,39,,,,,3,1.58348011144,2018_may._04_1327,59.9331108157,Experimento Piloto1,001,106,
0.25,Stim\\02_078.jpg,Al78_5,Alegría,5,Emilio revisa el formato del archivo.,Afirmación,Al78,78,,,,,,,,,,,,,0,40,40,40,,,,,4,1.46666735091,2018_may._04_1327,59.9331108157,Experimento Piloto1,001,106,
2.5,Stim\\05_019.jpg,En19_11,Enojo,11,María asiste a la cena.,Afirmación,En19,19,,,,,,,,,,,,,0,41,41,41,,,,,2,0.633640068705,2018_may._04_1327,59.9331108157,Experimento Piloto1,001,106,
2.5,Stim\\02_028.jpg,Al28_15,Alegría,15,Ángel envía una carta a la abuela.,Afirmación,Al28,28,,,,,,,,,,,,,0,42,42,42,,,,,4,1.73333389858,2018_may._04_1327,59.9331108157,Experimento Piloto1,001,106,
0.25,Stim\\03_019.jpg,Tr19_4,Tristeza,4,Jorge sustituye a Gustavo cada sábado.,Afirmación,Tr19,19,,,,,,,,,,,,,0,43,43,43,,,,,2,1.46695741152,2018_may._04_1327,59.9331108157,Experimento Piloto1,001,106,
2.5,Stim\\02_075.jpg,Al75_12,Alegría,12,Ana compra el libro.,Afirmación,Al75,75,,,,,,,,,,,,,0,44,44,44,,,,,3,0.900318665044,2018_may._04_1327,59.9331108157,Experimento Piloto1,001,106,
2.5,Stim\\05_028.jpg,En28_12,Enojo,12,Ana compra el libro.,Afirmación,En28,28,,,,,,,,,,,,,0,45,45,45,,,,,2,0.433788311986,2018_may._04_1327,59.9331108157,Experimento Piloto1,001,106,
0.25,Stim\\02_028.jpg,Al28_14,Alegría,14,Elizabeth elige la ropa un día antes.,Afirmación,Al28,28,,,,,,,,,,,,,0,46,46,46,,,,,4,2.84972495561,2018_may._04_1327,59.9331108157,Experimento Piloto1,001,106,
2.5,Stim\\03_075.jpg,Tr75_6,Tristeza,6,Eduardo camina hacia la biblioteca.,Afirmación,Tr75,75,,,,,,,,,,,,,0,47,47,47,,,,,4,1.66663111565,2018_may._04_1327,59.9331108157,Experimento Piloto1,001,106,
0.25,Stim\\05_028.jpg,En28_8,Enojo,8,Estefanía despierta a las 7 a.m.,Afirmación,En28,28,,,,,,,,,,,,,0,48,48,48,,,,,2,1.01687572599,2018_may._04_1327,59.9331108157,Experimento Piloto1,001,106,
2.5,Stim\\05_019.jpg,En19_7,Enojo,7,Roberto contesta los cuestionarios solicitados.,Afirmación,En19,19,,,,,,,,,,,,,0,49,49,49,,,,,2,1.48343240762,2018_may._04_1327,59.9331108157,Experimento Piloto1,001,106,
2.5,Stim\\02_019.jpg,Al19_10,Alegría,10,Laura finaliza la obra.,Afirmación,Al19,19,,,,,,,,,,,,,0,50,50,50,,,,,4,3.7826281365,2018_may._04_1327,59.9331108157,Experimento Piloto1,001,106,
0.25,Stim\\05_028.jpg,En28_14,Enojo,14,Elizabeth elige la ropa un día antes.,Afirmación,En28,28,,,,,,,,,,,,,0,51,51,51,,,,,2,1.16681519257,2018_may._04_1327,59.9331108157,Experimento Piloto1,001,106,
2.5,Stim\\03_028.jpg,Tr28_8,Tristeza,8,Estefanía despierta a las 7 a.m.,Afirmación,Tr28,28,,,,,,,,,,,,,0,52,52,52,,,,,4,1.56678511552,2018_may._04_1327,59.9331108157,Experimento Piloto1,001,106,
0.25,Stim\\02_075.jpg,Al75_3,Alegría,3,Andrea diseña la portada del libro.,Afirmación,Al75,75,,,,,,,,,,,,,0,53,53,53,,,,,3,1.06679292484,2018_may._04_1327,59.9331108157,Experimento Piloto1,001,106,
0.25,Stim\\02_028.jpg,Al28_1,Alegría,1,Juan colecciona monedas antiguas.,Afirmación,Al28,28,,,,,,,,,,,,,0,54,54,54,,,,,3,0.500320628531,2018_may._04_1327,59.9331108157,Experimento Piloto1,001,106,
0.25,Stim\\03_028.jpg,Tr28_3,Tristeza,3,Andrea diseña la portada del libro.,Afirmación,Tr28,28,,,,,,,,,,,,,0,55,55,55,,,,,4,1.6664552943,2018_may._04_1327,59.9331108157,Experimento Piloto1,001,106,
2.5,Stim\\02_078.jpg,Al78_11,Alegría,11,María asiste a la cena.,Afirmación,Al78,78,,,,,,,,,,,,,0,56,56,56,,,,,3,2.03313518475,2018_may._04_1327,59.9331108157,Experimento Piloto1,001,106,
0.25,Stim\\03_019.jpg,Tr19_12,Tristeza,12,Ana compra el libro.,Afirmación,Tr19,19,,,,,,,,,,,,,0,57,57,57,,,,,2,1.11681766924,2018_may._04_1327,59.9331108157,Experimento Piloto1,001,106,
2.5,Stim\\02_078.jpg,Al78_14,Alegría,14,Elizabeth elige la ropa un día antes.,Afirmación,Al78,78,,,,,,,,,,,,,0,58,58,58,,,,,4,1.00016064895,2018_may._04_1327,59.9331108157,Experimento Piloto1,001,106,
0.25,Stim\\03_019.jpg,Tr19_2,Tristeza,2,Jonathan pasea al perro.,Afirmación,Tr19,19,,,,,,,,,,,,,0,59,59,59,,,,,2,1.78321272019,2018_may._04_1327,59.9331108157,Experimento Piloto1,001,106,
2.5,Stim\\03_078.jpg,Tr78_1,Tristeza,1,Juan colecciona monedas antiguas.,Afirmación,Tr78,78,,,,,,,,,,,,,0,60,60,60,,,,,4,1.01681280515,2018_may._04_1327,59.9331108157,Experimento Piloto1,001,106,
0.25,Stim\\03_078.jpg,Tr78_4,Tristeza,4,Jorge sustituye a Gustavo cada sábado.,Afirmación,Tr78,78,,,,,,,,,,,,,0,61,61,61,,,,,4,0.600279082928,2018_may._04_1327,59.9331108157,Experimento Piloto1,001,106,
0.25,Stim\\05_019.jpg,En19_14,Enojo,14,Elizabeth elige la ropa un día antes.,Afirmación,En19,19,,,,,,,,,,,,,0,62,62,62,,,,,2,0.500314381072,2018_may._04_1327,59.9331108157,Experimento Piloto1,001,106,
0.25,Stim\\02_075.jpg,Al75_15,Alegría,15,Ángel envía una carta a la abuela.,Afirmación,Al75,75,,,,,,,,,,,,,0,63,63,63,,,,,3,0.850375137612,2018_may._04_1327,59.9331108157,Experimento Piloto1,001,106,
2.5,Stim\\03_028.jpg,Tr28_2,Tristeza,2,Jonathan pasea al perro.,Afirmación,Tr28,28,,,,,,,,,,,,,0,64,64,64,,,,,4,0.600298717798,2018_may._04_1327,59.9331108157,Experimento Piloto1,001,106,
0.25,Stim\\05_028.jpg,En28_3,Enojo,3,Andrea diseña la portada del libro.,Afirmación,En28,28,,,,,,,,,,,,,0,65,65,65,,,,,2,0.500377748156,2018_may._04_1327,59.9331108157,Experimento Piloto1,001,106,
0.25,Stim\\05_078.jpg,En78_3,Enojo,3,Andrea diseña la portada del libro.,Afirmación,En78,78,,,,,,,,,,,,,0,66,66,66,,,,,2,0.600515147635,2018_may._04_1327,59.9331108157,Experimento Piloto1,001,106,
0.25,Stim\\05_075.jpg,En75_9,Enojo,9,Marco colabora en la organización del evento.,Afirmación,En75,75,,,,,,,,,,,,,0,67,67,67,,,,,2,1.11691718234,2018_may._04_1327,59.9331108157,Experimento Piloto1,001,106,
2.5,Stim\\05_075.jpg,En75_7,Enojo,7,Roberto contesta los cuestionarios solicitados.,Afirmación,En75,75,,,,,,,,,,,,,0,68,68,68,,,,,2,0.600457581761,2018_may._04_1327,59.9331108157,Experimento Piloto1,001,106,
0.25,Stim\\03_078.jpg,Tr78_14,Tristeza,14,Elizabeth elige la ropa un día antes.,Afirmación,Tr78,78,,,,,,,,,,,,,0,69,69,69,,,,,4,0.484013421326,2018_may._04_1327,59.9331108157,Experimento Piloto1,001,106,
2.5,Stim\\03_019.jpg,Tr19_5,Tristeza,5,Emilio revisa el formato del archivo.,Afirmación,Tr19,19,,,,,,,,,,,,,0,70,70,70,,,,,3,0.700378105155,2018_may._04_1327,59.9331108157,Experimento Piloto1,001,106,
2.5,Stim\\05_028.jpg,En28_13,Enojo,13,Rocío consume alimentos nutritivos.,Afirmación,En28,28,,,,,,,,,,,,,0,71,71,71,,,,,2,0.50032241352,2018_may._04_1327,59.9331108157,Experimento Piloto1,001,106,
0.25,Stim\\05_075.jpg,En75_15,Enojo,15,Ángel envía una carta a la abuela.,Afirmación,En75,75,,,,,,,,,,,,,0,72,72,72,,,,,2,0.433732084854,2018_may._04_1327,59.9331108157,Experimento Piloto1,001,106,
2.5,Stim\\05_019.jpg,En19_6,Enojo,6,Eduardo camina hacia la biblioteca.,Afirmación,En19,19,,,,,,,,,,,,,0,73,73,73,,,,,2,0.650147640847,2018_may._04_1327,59.9331108157,Experimento Piloto1,001,106,
2.5,Stim\\05_078.jpg,En78_10,Enojo,10,Laura finaliza la obra.,Afirmación,En78,78,,,,,,,,,,,,,0,74,74,74,,,,,2,0.450277587999,2018_may._04_1327,59.9331108157,Experimento Piloto1,001,106,
2.5,Stim\\05_019.jpg,En19_9,Enojo,9,Marco colabora en la organización del evento.,Afirmación,En19,19,,,,,,,,,,,,,0,75,75,75,,,,,2,0.900173188493,2018_may._04_1327,59.9331108157,Experimento Piloto1,001,106,
2.5,Stim\\02_078.jpg,Al78_6,Alegría,6,Eduardo camina hacia la biblioteca.,Afirmación,Al78,78,,,,,,,,,,,,,0,76,76,76,,,,,3,1.9832264646,2018_may._04_1327,59.9331108157,Experimento Piloto1,001,106,
2.5,Stim\\05_078.jpg,En78_13,Enojo,13,Rocío consume alimentos nutritivos.,Afirmación,En78,78,,,,,,,,,,,,,0,77,77,77,,,,,2,0.60026167929,2018_may._04_1327,59.9331108157,Experimento Piloto1,001,106,
0.25,Stim\\05_028.jpg,En28_2,Enojo,2,Jonathan pasea al perro.,Afirmación,En28,28,,,,,,,,,,,,,0,78,78,78,,,,,2,0.550294054516,2018_may._04_1327,59.9331108157,Experimento Piloto1,001,106,
0.25,Stim\\05_019.jpg,En19_6,Enojo,6,Eduardo camina hacia la biblioteca.,Afirmación,En19,19,,,,,,,,,,,,,0,79,79,79,,,,,2,0.450535518812,2018_may._04_1327,59.9331108157,Experimento Piloto1,001,106,
2.5,Stim\\03_019.jpg,Tr19_11,Tristeza,11,María asiste a la cena.,Afirmación,Tr19,19,,,,,,,,,,,,,0,80,80,80,,,,,3,0.450275356763,2018_may._04_1327,59.9331108157,Experimento Piloto1,001,106,
2.5,Stim\\05_028.jpg,En28_11,Enojo,11,María asiste a la cena.,Afirmación,En28,28,,,,,,,,,,,,,0,81,81,81,,,,,2,0.500254583962,2018_may._04_1327,59.9331108157,Experimento Piloto1,001,106,
0.25,Stim\\02_078.jpg,Al78_9,Alegría,9,Marco colabora en la organización del evento.,Afirmación,Al78,78,,,,,,,,,,,,,0,82,82,82,,,,,3,0.80020670165,2018_may._04_1327,59.9331108157,Experimento Piloto1,001,106,
0.25,Stim\\05_019.jpg,En19_13,Enojo,13,Rocío consume alimentos nutritivos.,Afirmación,En19,19,,,,,,,,,,,,,0,83,83,83,,,,,2,0.500381318134,2018_may._04_1327,59.9331108157,Experimento Piloto1,001,106,
0.25,Stim\\03_078.jpg,Tr78_11,Tristeza,11,María asiste a la cena.,Afirmación,Tr78,78,,,,,,,,,,,,,0,84,84,84,,,,,4,0.500172028253,2018_may._04_1327,59.9331108157,Experimento Piloto1,001,106,
2.5,Stim\\05_028.jpg,En28_5,Enojo,5,Emilio revisa el formato del archivo.,Afirmación,En28,28,,,,,,,,,,,,,0,85,85,85,,,,,2,0.400405013854,2018_may._04_1327,59.9331108157,Experimento Piloto1,001,106,
0.25,Stim\\03_028.jpg,Tr28_10,Tristeza,10,Laura finaliza la obra.,Afirmación,Tr28,28,,,,,,,,,,,,,0,86,86,86,,,,,4,0.600227318266,2018_may._04_1327,59.9331108157,Experimento Piloto1,001,106,
0.25,Stim\\05_019.jpg,En19_11,Enojo,11,María asiste a la cena.,Afirmación,En19,19,,,,,,,,,,,,,0,87,87,87,,,,,2,0.500301886153,2018_may._04_1327,59.9331108157,Experimento Piloto1,001,106,
2.5,Stim\\03_028.jpg,Tr28_9,Tristeza,9,Marco colabora en la organización del evento.,Afirmación,Tr28,28,,,,,,,,,,,,,0,88,88,88,,,,,4,0.600192510992,2018_may._04_1327,59.9331108157,Experimento Piloto1,001,106,
2.5,Stim\\05_019.jpg,En19_8,Enojo,8,Estefanía despierta a las 7 a.m.,Afirmación,En19,19,,,,,,,,,,,,,0,89,89,89,,,,,2,0.816528635007,2018_may._04_1327,59.9331108157,Experimento Piloto1,001,106,
0.25,Stim\\03_075.jpg,Tr75_9,Tristeza,9,Marco colabora en la organización del evento.,Afirmación,Tr75,75,,,,,,,,,,,,,0,90,90,90,,,,,4,0.650285977443,2018_may._04_1327,59.9331108157,Experimento Piloto1,001,106,
2.5,Stim\\02_075.jpg,Al75_3,Alegría,3,Andrea diseña la portada del libro.,Afirmación,Al75,75,,,,,,,,,,,,,0,91,91,91,,,,,3,0.866859504906,2018_may._04_1327,59.9331108157,Experimento Piloto1,001,106,
0.25,Stim\\05_028.jpg,En28_12,Enojo,12,Ana compra el libro.,Afirmación,En28,28,,,,,,,,,,,,,0,92,92,92,,,,,2,0.500288944988,2018_may._04_1327,59.9331108157,Experimento Piloto1,001,106,
0.25,Stim\\03_028.jpg,Tr28_7,Tristeza,7,Roberto contesta los cuestionarios solicitados.,Afirmación,Tr28,28,,,,,,,,,,,,,0,93,93,93,,,,,4,0.700199606321,2018_may._04_1327,59.9331108157,Experimento Piloto1,001,106,
0.25,Stim\\03_019.jpg,Tr19_8,Tristeza,8,Estefanía despierta a las 7 a.m.,Afirmación,Tr19,19,,,,,,,,,,,,,0,94,94,94,,,,,3,2.09953585841,2018_may._04_1327,59.9331108157,Experimento Piloto1,001,106,
0.25,Stim\\02_019.jpg,Al19_4,Alegría,4,Jorge sustituye a Gustavo cada sábado.,Afirmación,Al19,19,,,,,,,,,,,,,0,95,95,95,,,,,3,0.800404389109,2018_may._04_1327,59.9331108157,Experimento Piloto1,001,106,
2.5,Stim\\05_019.jpg,En19_15,Enojo,15,Ángel envía una carta a la abuela.,Afirmación,En19,19,,,,,,,,,,,,,0,96,96,96,,,,,2,0.384075494298,2018_may._04_1327,59.9331108157,Experimento Piloto1,001,106,
0.25,Stim\\05_075.jpg,En75_13,Enojo,13,Rocío consume alimentos nutritivos.,Afirmación,En75,75,,,,,,,,,,,,,0,97,97,97,,,,,2,0.450213774666,2018_may._04_1327,59.9331108157,Experimento Piloto1,001,106,
0.25,Stim\\02_078.jpg,Al78_7,Alegría,7,Roberto contesta los cuestionarios solicitados.,Afirmación,Al78,78,,,,,,,,,,,,,0,98,98,98,,,,,3,1.58358051703,2018_may._04_1327,59.9331108157,Experimento Piloto1,001,106,
2.5,Stim\\03_028.jpg,Tr28_3,Tristeza,3,Andrea diseña la portada del libro.,Afirmación,Tr28,28,,,,,,,,,,,,,0,99,99,99,,,,,4,0.966841164152,2018_may._04_1327,59.9331108157,Experimento Piloto1,001,106,
2.5,Stim\\05_075.jpg,En75_15,Enojo,15,Ángel envía una carta a la abuela.,Afirmación,En75,75,,,,,,,,,,,,,0,100,100,100,,,,,2,0.500297869929,2018_may._04_1327,59.9331108157,Experimento Piloto1,001,106,
0.25,Stim\\02_028.jpg,Al28_13,Alegría,13,Rocío consume alimentos nutritivos.,Afirmación,Al28,28,,,,,,,,,,,,,0,101,101,101,,,,,3,3.14963958854,2018_may._04_1327,59.9331108157,Experimento Piloto1,001,106,
0.25,Stim\\03_028.jpg,Tr28_15,Tristeza,15,Ángel envía una carta a la abuela.,Afirmación,Tr28,28,,,,,,,,,,,,,0,102,102,102,,,,,4,0.900241018051,2018_may._04_1327,59.9331108157,Experimento Piloto1,001,106,
0.25,Stim\\05_019.jpg,En19_2,Enojo,2,Jonathan pasea al perro.,Afirmación,En19,19,,,,,,,,,,,,,0,103,103,103,,,,,2,0.43369727758,2018_may._04_1327,59.9331108157,Experimento Piloto1,001,106,
0.25,Stim\\03_078.jpg,Tr78_13,Tristeza,13,Rocío consume alimentos nutritivos.,Afirmación,Tr78,78,,,,,,,,,,,,,0,104,104,104,,,,,4,0.916866399424,2018_may._04_1327,59.9331108157,Experimento Piloto1,001,106,
2.5,Stim\\03_075.jpg,Tr75_2,Tristeza,2,Jonathan pasea al perro.,Afirmación,Tr75,75,,,,,,,,,,,,,0,105,105,105,,,,,4,0.550234257407,2018_may._04_1327,59.9331108157,Experimento Piloto1,001,106,
2.5,Stim\\05_075.jpg,En75_10,Enojo,10,Laura finaliza la obra.,Afirmación,En75,75,,,,,,,,,,,,,0,106,106,106,,,,,2,0.500307687365,2018_may._04_1327,59.9331108157,Experimento Piloto1,001,106,
2.5,Stim\\05_028.jpg,En28_3,Enojo,3,Andrea diseña la portada del libro.,Afirmación,En28,28,,,,,,,,,,,,,0,107,107,107,,,,,2,0.450562293638,2018_may._04_1327,59.9331108157,Experimento Piloto1,001,106,
2.5,Stim\\02_078.jpg,Al78_8,Alegría,8,Estefanía despierta a las 7 a.m.,Afirmación,Al78,78,,,,,,,,,,,,,0,108,108,108,,,,,3,1.4667070669,2018_may._04_1327,59.9331108157,Experimento Piloto1,001,106,
2.5,Stim\\05_075.jpg,En75_2,Enojo,2,Jonathan pasea al perro.,Afirmación,En75,75,,,,,,,,,,,,,0,109,109,109,,,,,2,1.51648592916,2018_may._04_1327,59.9331108157,Experimento Piloto1,001,106,
0.25,Stim\\05_078.jpg,En78_2,Enojo,2,Jonathan pasea al perro.,Afirmación,En78,78,,,,,,,,,,,,,0,110,110,110,,,,,2,0.500026105454,2018_may._04_1327,59.9331108157,Experimento Piloto1,001,106,
2.5,Stim\\05_078.jpg,En78_14,Enojo,14,Elizabeth elige la ropa un día antes.,Afirmación,En78,78,,,,,,,,,,,,,0,111,111,111,,,,,2,0.550395798851,2018_may._04_1327,59.9331108157,Experimento Piloto1,001,106,
2.5,Stim\\05_028.jpg,En28_1,Enojo,1,Juan colecciona monedas antiguas.,Afirmación,En28,28,,,,,,,,,,,,,0,112,112,112,,,,,2,0.64986427395,2018_may._04_1327,59.9331108157,Experimento Piloto1,001,106,
0.25,Stim\\05_019.jpg,En19_12,Enojo,12,Ana compra el libro.,Afirmación,En19,19,,,,,,,,,,,,,0,113,113,113,,,,,2,0.483494435968,2018_may._04_1327,59.9331108157,Experimento Piloto1,001,106,
0.25,Stim\\02_075.jpg,Al75_13,Alegría,13,Rocío consume alimentos nutritivos.,Afirmación,Al75,75,,,,,,,,,,,,,0,114,114,114,,,,,2,1.31691307687,2018_may._04_1327,59.9331108157,Experimento Piloto1,001,106,
2.5,Stim\\03_019.jpg,Tr19_6,Tristeza,6,Eduardo camina hacia la biblioteca.,Afirmación,Tr19,19,,,,,,,,,,,,,0,115,115,115,,,,,2,3.3161125096,2018_may._04_1327,59.9331108157,Experimento Piloto1,001,106,
2.5,Stim\\05_028.jpg,En28_14,Enojo,14,Elizabeth elige la ropa un día antes.,Afirmación,En28,28,,,,,,,,,,,,,0,116,116,116,,,,,2,0.400255967328,2018_may._04_1327,59.9331108157,Experimento Piloto1,001,106,
2.5,Stim\\02_028.jpg,Al28_5,Alegría,5,Emilio revisa el formato del archivo.,Afirmación,Al28,28,,,,,,,,,,,,,0,117,117,117,,,,,3,1.4830530976,2018_may._04_1327,59.9331108157,Experimento Piloto1,001,106,
2.5,Stim\\02_078.jpg,Al78_9,Alegría,9,Marco colabora en la organización del evento.,Afirmación,Al78,78,,,,,,,,,,,,,0,118,118,118,,,,,4,1.21652220905,2018_may._04_1327,59.9331108157,Experimento Piloto1,001,106,
0.25,Stim\\03_019.jpg,Tr19_3,Tristeza,3,Andrea diseña la portada del libro.,Afirmación,Tr19,19,,,,,,,,,,,,,0,119,119,119,,,,,2,1.81667634279,2018_may._04_1327,59.9331108157,Experimento Piloto1,001,106,
