Tiempo,ImagenesE,ClaveEn,Emocion,NumEn,Enunciado,ActoHabla,Clave,Cara,trials.thisRepN,trials.thisTrialN,trials.thisN,trials.thisIndex,Bloque1.thisRepN,Bloque1.thisTrialN,Bloque1.thisN,Bloque1.thisIndex,Bloque2.thisRepN,Bloque2.thisTrialN,Bloque2.thisN,Bloque2.thisIndex,Bloque3.thisRepN,Bloque3.thisTrialN,Bloque3.thisN,Bloque3.thisIndex,Resp_Bloque1.keys,Resp_Bloque1.rt,Resp_Bloque2.keys,Resp_Bloque2.rt,Resp_Bloque3.keys,Resp_Bloque3.rt,date,frameRate,expName,session,participant,
0.25,Stim\\03_028.jpg,Tr28_2,Tristeza,2,Jonathan pasea al perro.,Afirmación,Tr28,28,,,,,0,0,0,0,,,,,,,,,4,1.11665746654,,,,,2018_may._04_1624,60.006935481,Experimento Piloto1,001,107,
2.5,Stim\\05_075.jpg,En75_12,Enojo,12,Ana compra el libro.,Afirmación,En75,75,,,,,0,1,1,1,,,,,,,,,3,1.20010924129,,,,,2018_may._04_1624,60.006935481,Experimento Piloto1,001,107,
0.25,Stim\\02_078.jpg,Al78_11,Alegría,11,María asiste a la cena.,Afirmación,Al78,78,,,,,0,2,2,2,,,,,,,,,3,2.13336495738,,,,,2018_may._04_1624,60.006935481,Experimento Piloto1,001,107,
0.25,Stim\\02_078.jpg,Al78_8,Alegría,8,Estefanía despierta a las 7 a.m.,Afirmación,Al78,78,,,,,0,3,3,3,,,,,,,,,3,0.95014482949,,,,,2018_may._04_1624,60.006935481,Experimento Piloto1,001,107,
0.25,Stim\\05_028.jpg,En28_6,Enojo,6,Eduardo camina hacia la biblioteca.,Afirmación,En28,28,,,,,0,4,4,4,,,,,,,,,2,1.06681612969,,,,,2018_may._04_1624,60.006935481,Experimento Piloto1,001,107,
0.25,Stim\\02_019.jpg,Al19_14,Alegría,14,Elizabeth elige la ropa un día antes.,Afirmación,Al19,19,,,,,0,5,5,5,,,,,,,,,3,0.850159154023,,,,,2018_may._04_1624,60.006935481,Experimento Piloto1,001,107,
2.5,Stim\\05_078.jpg,En78_1,Enojo,1,Juan colecciona monedas antiguas.,Afirmación,En78,78,,,,,0,6,6,6,,,,,,,,,3,2.44961669607,,,,,2018_may._04_1624,60.006935481,Experimento Piloto1,001,107,
2.5,Stim\\02_078.jpg,Al78_15,Alegría,15,Ángel envía una carta a la abuela.,Afirmación,Al78,78,,,,,0,7,7,7,,,,,,,,,3,1.76679082748,,,,,2018_may._04_1624,60.006935481,Experimento Piloto1,001,107,
0.25,Stim\\02_075.jpg,Al75_14,Alegría,14,Elizabeth elige la ropa un día antes.,Afirmación,Al75,75,,,,,0,8,8,8,,,,,,,,,3,1.63326968362,,,,,2018_may._04_1624,60.006935481,Experimento Piloto1,001,107,
2.5,Stim\\02_075.jpg,Al75_2,Alegría,2,Jonathan pasea al perro.,Afirmación,Al75,75,,,,,0,9,9,9,,,,,,,,,4,2.8662405602,,,,,2018_may._04_1624,60.006935481,Experimento Piloto1,001,107,
0.25,Stim\\05_075.jpg,En75_12,Enojo,12,Ana compra el libro.,Afirmación,En75,75,,,,,0,10,10,10,,,,,,,,,2,1.63327012987,,,,,2018_may._04_1624,60.006935481,Experimento Piloto1,001,107,
2.5,Stim\\03_078.jpg,Tr78_8,Tristeza,8,Estefanía despierta a las 7 a.m.,Afirmación,Tr78,78,,,,,0,11,11,11,,,,,,,,,3,0.800217857824,,,,,2018_may._04_1624,60.006935481,Experimento Piloto1,001,107,
0.25,Stim\\03_078.jpg,Tr78_15,Tristeza,15,Ángel envía una carta a la abuela.,Afirmación,Tr78,78,,,,,0,12,12,12,,,,,,,,,4,1.61663760854,,,,,2018_may._04_1624,60.006935481,Experimento Piloto1,001,107,
0.25,Stim\\03_078.jpg,Tr78_5,Tristeza,5,Emilio revisa el formato del archivo.,Afirmación,Tr78,78,,,,,0,13,13,13,,,,,,,,,4,0.550309673163,,,,,2018_may._04_1624,60.006935481,Experimento Piloto1,001,107,
2.5,Stim\\02_019.jpg,Al19_5,Alegría,5,Emilio revisa el formato del archivo.,Afirmación,Al19,19,,,,,0,14,14,14,,,,,,,,,3,2.91620149127,,,,,2018_may._04_1624,60.006935481,Experimento Piloto1,001,107,
2.5,Stim\\03_075.jpg,Tr75_10,Tristeza,10,Laura finaliza la obra.,Afirmación,Tr75,75,,,,,0,15,15,15,,,,,,,,,3,5.04895509014,,,,,2018_may._04_1624,60.006935481,Experimento Piloto1,001,107,
2.5,Stim\\03_075.jpg,Tr75_4,Tristeza,4,Jorge sustituye a Gustavo cada sábado.,Afirmación,Tr75,75,,,,,0,16,16,16,,,,,,,,,3,1.58314944235,,,,,2018_may._04_1624,60.006935481,Experimento Piloto1,001,107,
0.25,Stim\\03_028.jpg,Tr28_5,Tristeza,5,Emilio revisa el formato del archivo.,Afirmación,Tr28,28,,,,,0,17,17,17,,,,,,,,,2,1.09977950932,,,,,2018_may._04_1624,60.006935481,Experimento Piloto1,001,107,
0.25,Stim\\05_075.jpg,En75_11,Enojo,11,María asiste a la cena.,Afirmación,En75,75,,,,,0,18,18,18,,,,,,,,,4,1.88320598185,,,,,2018_may._04_1624,60.006935481,Experimento Piloto1,001,107,
0.25,Stim\\02_075.jpg,Al75_6,Alegría,6,Eduardo camina hacia la biblioteca.,Afirmación,Al75,75,,,,,0,19,19,19,,,,,,,,,3,1.15008851311,,,,,2018_may._04_1624,60.006935481,Experimento Piloto1,001,107,
0.25,Stim\\05_078.jpg,En78_1,Enojo,1,Juan colecciona monedas antiguas.,Afirmación,En78,78,,,,,0,20,20,20,,,,,,,,,2,1.00012896541,,,,,2018_may._04_1624,60.006935481,Experimento Piloto1,001,107,
2.5,Stim\\03_019.jpg,Tr19_4,Tristeza,4,Jorge sustituye a Gustavo cada sábado.,Afirmación,Tr19,19,,,,,0,21,21,21,,,,,,,,,3,0.58366798146,,,,,2018_may._04_1624,60.006935481,Experimento Piloto1,001,107,
0.25,Stim\\03_028.jpg,Tr28_11,Tristeza,11,María asiste a la cena.,Afirmación,Tr28,28,,,,,0,22,22,22,,,,,,,,,3,0.750164999859,,,,,2018_may._04_1624,60.006935481,Experimento Piloto1,001,107,
0.25,Stim\\02_019.jpg,Al19_7,Alegría,7,Roberto contesta los cuestionarios solicitados.,Afirmación,Al19,19,,,,,0,23,23,23,,,,,,,,,3,0.900066089194,,,,,2018_may._04_1624,60.006935481,Experimento Piloto1,001,107,
0.25,Stim\\05_028.jpg,En28_1,Enojo,1,Juan colecciona monedas antiguas.,Afirmación,En28,28,,,,,0,24,24,24,,,,,,,,,2,1.10038685159,,,,,2018_may._04_1624,60.006935481,Experimento Piloto1,001,107,
0.25,Stim\\03_019.jpg,Tr19_6,Tristeza,6,Eduardo camina hacia la biblioteca.,Afirmación,Tr19,19,,,,,0,25,25,25,,,,,,,,,2,1.06699775225,,,,,2018_may._04_1624,60.006935481,Experimento Piloto1,001,107,
0.25,Stim\\03_078.jpg,Tr78_7,Tristeza,7,Roberto contesta los cuestionarios solicitados.,Afirmación,Tr78,78,,,,,0,26,26,26,,,,,,,,,2,1.06673134274,,,,,2018_may._04_1624,60.006935481,Experimento Piloto1,001,107,
2.5,Stim\\03_019.jpg,Tr19_15,Tristeza,15,Ángel envía una carta a la abuela.,Afirmación,Tr19,19,,,,,0,27,27,27,,,,,,,,,2,0.600239813182,,,,,2018_may._04_1624,60.006935481,Experimento Piloto1,001,107,
2.5,Stim\\02_028.jpg,Al28_4,Alegría,4,Jorge sustituye a Gustavo cada sábado.,Afirmación,Al28,28,,,,,0,28,28,28,,,,,,,,,3,0.650170399451,,,,,2018_may._04_1624,60.006935481,Experimento Piloto1,001,107,
2.5,Stim\\03_078.jpg,Tr78_5,Tristeza,5,Emilio revisa el formato del archivo.,Afirmación,Tr78,78,,,,,0,29,29,29,,,,,,,,,4,1.98343129201,,,,,2018_may._04_1624,60.006935481,Experimento Piloto1,001,107,
2.5,Stim\\03_028.jpg,Tr28_12,Tristeza,12,Ana compra el libro.,Afirmación,Tr28,28,,,,,0,30,30,30,,,,,,,,,4,0.800323618387,,,,,2018_may._04_1624,60.006935481,Experimento Piloto1,001,107,
0.25,Stim\\02_028.jpg,Al28_2,Alegría,2,Jonathan pasea al perro.,Afirmación,Al28,28,,,,,0,31,31,31,,,,,,,,,3,2.74968617674,,,,,2018_may._04_1624,60.006935481,Experimento Piloto1,001,107,
0.25,Stim\\05_019.jpg,En19_8,Enojo,8,Estefanía despierta a las 7 a.m.,Afirmación,En19,19,,,,,0,32,32,32,,,,,,,,,3,1.36665311563,,,,,2018_may._04_1624,60.006935481,Experimento Piloto1,001,107,
0.25,Stim\\03_019.jpg,Tr19_9,Tristeza,9,Marco colabora en la organización del evento.,Afirmación,Tr19,19,,,,,0,33,33,33,,,,,,,,,3,0.650355591992,,,,,2018_may._04_1624,60.006935481,Experimento Piloto1,001,107,
2.5,Stim\\02_078.jpg,Al78_10,Alegría,10,Laura finaliza la obra.,Afirmación,Al78,78,,,,,0,34,34,34,,,,,,,,,3,0.600231780732,,,,,2018_may._04_1624,60.006935481,Experimento Piloto1,001,107,
2.5,Stim\\02_075.jpg,Al75_15,Alegría,15,Ángel envía una carta a la abuela.,Afirmación,Al75,75,,,,,0,35,35,35,,,,,,,,,3,0.500268863867,,,,,2018_may._04_1624,60.006935481,Experimento Piloto1,001,107,
2.5,Stim\\03_028.jpg,Tr28_6,Tristeza,6,Eduardo camina hacia la biblioteca.,Afirmación,Tr28,28,,,,,0,36,36,36,,,,,,,,,4,1.10013070577,,,,,2018_may._04_1624,60.006935481,Experimento Piloto1,001,107,
0.25,Stim\\03_075.jpg,Tr75_14,Tristeza,14,Elizabeth elige la ropa un día antes.,Afirmación,Tr75,75,,,,,0,37,37,37,,,,,,,,,2,0.500290283726,,,,,2018_may._04_1624,60.006935481,Experimento Piloto1,001,107,
2.5,Stim\\05_075.jpg,En75_13,Enojo,13,Rocío consume alimentos nutritivos.,Afirmación,En75,75,,,,,0,38,38,38,,,,,,,,,3,0.600545938683,,,,,2018_may._04_1624,60.006935481,Experimento Piloto1,001,107,
2.5,Stim\\03_075.jpg,Tr75_8,Tristeza,8,Estefanía despierta a las 7 a.m.,Afirmación,Tr75,75,,,,,0,39,39,39,,,,,,,,,3,0.700349545343,,,,,2018_may._04_1624,60.006935481,Experimento Piloto1,001,107,
0.25,Stim\\05_075.jpg,En75_7,Enojo,7,Roberto contesta los cuestionarios solicitados.,Afirmación,En75,75,,,,,0,40,40,40,,,,,,,,,2,0.900271362854,,,,,2018_may._04_1624,60.006935481,Experimento Piloto1,001,107,
2.5,Stim\\03_019.jpg,Tr19_10,Tristeza,10,Laura finaliza la obra.,Afirmación,Tr19,19,,,,,0,41,41,41,,,,,,,,,3,2.03328423128,,,,,2018_may._04_1624,60.006935481,Experimento Piloto1,001,107,
2.5,Stim\\03_019.jpg,Tr19_2,Tristeza,2,Jonathan pasea al perro.,Afirmación,Tr19,19,,,,,0,42,42,42,,,,,,,,,3,0.900195947095,,,,,2018_may._04_1624,60.006935481,Experimento Piloto1,001,107,
0.25,Stim\\03_075.jpg,Tr75_15,Tristeza,15,Ángel envía una carta a la abuela.,Afirmación,Tr75,75,,,,,0,43,43,43,,,,,,,,,3,0.950349656905,,,,,2018_may._04_1624,60.006935481,Experimento Piloto1,001,107,
0.25,Stim\\05_019.jpg,En19_1,Enojo,1,Juan colecciona monedas antiguas.,Afirmación,En19,19,,,,,0,44,44,44,,,,,,,,,2,0.91683917835,,,,,2018_may._04_1624,60.006935481,Experimento Piloto1,001,107,
0.25,Stim\\03_078.jpg,Tr78_2,Tristeza,2,Jonathan pasea al perro.,Afirmación,Tr78,78,,,,,0,45,45,45,,,,,,,,,4,0.700159444084,,,,,2018_may._04_1624,60.006935481,Experimento Piloto1,001,107,
2.5,Stim\\02_019.jpg,Al19_9,Alegría,9,Marco colabora en la organización del evento.,Afirmación,Al19,19,,,,,0,46,46,46,,,,,,,,,3,2.34986931654,,,,,2018_may._04_1624,60.006935481,Experimento Piloto1,001,107,
2.5,Stim\\03_028.jpg,Tr28_11,Tristeza,11,María asiste a la cena.,Afirmación,Tr28,28,,,,,0,47,47,47,,,,,,,,,4,2.18316479325,,,,,2018_may._04_1624,60.006935481,Experimento Piloto1,001,107,
2.5,Stim\\05_078.jpg,En78_6,Enojo,6,Eduardo camina hacia la biblioteca.,Afirmación,En78,78,,,,,0,48,48,48,,,,,,,,,2,0.816969973373,,,,,2018_may._04_1624,60.006935481,Experimento Piloto1,001,107,
2.5,Stim\\02_028.jpg,Al28_14,Alegría,14,Elizabeth elige la ropa un día antes.,Afirmación,Al28,28,,,,,0,49,49,49,,,,,,,,,3,1.73329061261,,,,,2018_may._04_1624,60.006935481,Experimento Piloto1,001,107,
0.25,Stim\\03_019.jpg,Tr19_10,Tristeza,10,Laura finaliza la obra.,Afirmación,Tr19,19,,,,,0,50,50,50,,,,,,,,,3,0.950280934852,,,,,2018_may._04_1624,60.006935481,Experimento Piloto1,001,107,
2.5,Stim\\05_019.jpg,En19_2,Enojo,2,Jonathan pasea al perro.,Afirmación,En19,19,,,,,0,51,51,51,,,,,,,,,2,0.600267480502,,,,,2018_may._04_1624,60.006935481,Experimento Piloto1,001,107,
0.25,Stim\\05_078.jpg,En78_5,Enojo,5,Emilio revisa el formato del archivo.,Afirmación,En78,78,,,,,0,52,52,52,,,,,,,,,2,1.41694516203,,,,,2018_may._04_1624,60.006935481,Experimento Piloto1,001,107,
2.5,Stim\\02_075.jpg,Al75_5,Alegría,5,Emilio revisa el formato del archivo.,Afirmación,Al75,75,,,,,0,53,53,53,,,,,,,,,4,1.16645462493,,,,,2018_may._04_1624,60.006935481,Experimento Piloto1,001,107,
0.25,Stim\\05_028.jpg,En28_9,Enojo,9,Marco colabora en la organización del evento.,Afirmación,En28,28,,,,,0,54,54,54,,,,,,,,,2,1.116779292,,,,,2018_may._04_1624,60.006935481,Experimento Piloto1,001,107,
2.5,Stim\\03_019.jpg,Tr19_1,Tristeza,1,Juan colecciona monedas antiguas.,Afirmación,Tr19,19,,,,,0,55,55,55,,,,,,,,,3,1.88329612376,,,,,2018_may._04_1624,60.006935481,Experimento Piloto1,001,107,
0.25,Stim\\02_028.jpg,Al28_3,Alegría,3,Andrea diseña la portada del libro.,Afirmación,Al28,28,,,,,0,56,56,56,,,,,,,,,3,1.63325941994,,,,,2018_may._04_1624,60.006935481,Experimento Piloto1,001,107,
0.25,Stim\\05_028.jpg,En28_5,Enojo,5,Emilio revisa el formato del archivo.,Afirmación,En28,28,,,,,0,57,57,57,,,,,,,,,2,0.800228567754,,,,,2018_may._04_1624,60.006935481,Experimento Piloto1,001,107,
2.5,Stim\\03_078.jpg,Tr78_15,Tristeza,15,Ángel envía una carta a la abuela.,Afirmación,Tr78,78,,,,,0,58,58,58,,,,,,,,,4,0.7002714521,,,,,2018_may._04_1624,60.006935481,Experimento Piloto1,001,107,
0.25,Stim\\02_078.jpg,Al78_10,Alegría,10,Laura finaliza la obra.,Afirmación,Al78,78,,,,,0,59,59,59,,,,,,,,,3,0.700258064691,,,,,2018_may._04_1624,60.006935481,Experimento Piloto1,001,107,
0.25,Stim\\03_075.jpg,Tr75_7,Tristeza,7,Roberto contesta los cuestionarios solicitados.,Afirmación,Tr75,75,,,,,0,60,60,60,,,,,,,,,4,0.599862734398,,,,,2018_may._04_1624,60.006935481,Experimento Piloto1,001,107,
0.25,Stim\\03_075.jpg,Tr75_5,Tristeza,5,Emilio revisa el formato del archivo.,Afirmación,Tr75,75,,,,,0,61,61,61,,,,,,,,,4,0.500203711792,,,,,2018_may._04_1624,60.006935481,Experimento Piloto1,001,107,
0.25,Stim\\05_075.jpg,En75_14,Enojo,14,Elizabeth elige la ropa un día antes.,Afirmación,En75,75,,,,,0,62,62,62,,,,,,,,,2,0.600366547354,,,,,2018_may._04_1624,60.006935481,Experimento Piloto1,001,107,
0.25,Stim\\05_075.jpg,En75_2,Enojo,2,Jonathan pasea al perro.,Afirmación,En75,75,,,,,0,63,63,63,,,,,,,,,2,0.60021571584,,,,,2018_may._04_1624,60.006935481,Experimento Piloto1,001,107,
0.25,Stim\\02_078.jpg,Al78_6,Alegría,6,Eduardo camina hacia la biblioteca.,Afirmación,Al78,78,,,,,0,64,64,64,,,,,,,,,3,0.700466908325,,,,,2018_may._04_1624,60.006935481,Experimento Piloto1,001,107,
0.25,Stim\\03_075.jpg,Tr75_4,Tristeza,4,Jorge sustituye a Gustavo cada sábado.,Afirmación,Tr75,75,,,,,0,65,65,65,,,,,,,,,4,0.600336202555,,,,,2018_may._04_1624,60.006935481,Experimento Piloto1,001,107,
0.25,Stim\\03_075.jpg,Tr75_3,Tristeza,3,Andrea diseña la portada del libro.,Afirmación,Tr75,75,,,,,0,66,66,66,,,,,,,,,4,0.550213730039,,,,,2018_may._04_1624,60.006935481,Experimento Piloto1,001,107,
0.25,Stim\\02_028.jpg,Al28_10,Alegría,10,Laura finaliza la obra.,Afirmación,Al28,28,,,,,0,67,67,67,,,,,,,,,3,0.534023885819,,,,,2018_may._04_1624,60.006935481,Experimento Piloto1,001,107,
0.25,Stim\\03_028.jpg,Tr28_12,Tristeza,12,Ana compra el libro.,Afirmación,Tr28,28,,,,,0,68,68,68,,,,,,,,,4,0.500283590023,,,,,2018_may._04_1624,60.006935481,Experimento Piloto1,001,107,
0.25,Stim\\03_075.jpg,Tr75_10,Tristeza,10,Laura finaliza la obra.,Afirmación,Tr75,75,,,,,0,69,69,69,,,,,,,,,4,0.533803439765,,,,,2018_may._04_1624,60.006935481,Experimento Piloto1,001,107,
0.25,Stim\\02_028.jpg,Al28_8,Alegría,8,Estefanía despierta a las 7 a.m.,Afirmación,Al28,28,,,,,0,70,70,70,,,,,,,,,3,0.600270604231,,,,,2018_may._04_1624,60.006935481,Experimento Piloto1,001,107,
0.25,Stim\\05_078.jpg,En78_14,Enojo,14,Elizabeth elige la ropa un día antes.,Afirmación,En78,78,,,,,0,71,71,71,,,,,,,,,2,0.533681168061,,,,,2018_may._04_1624,60.006935481,Experimento Piloto1,001,107,
2.5,Stim\\03_078.jpg,Tr78_9,Tristeza,9,Marco colabora en la organización del evento.,Afirmación,Tr78,78,,,,,0,72,72,72,,,,,,,,,4,1.71672011963,,,,,2018_may._04_1624,60.006935481,Experimento Piloto1,001,107,
0.25,Stim\\02_019.jpg,Al19_3,Alegría,3,Andrea diseña la portada del libro.,Afirmación,Al19,19,,,,,0,73,73,73,,,,,,,,,3,0.950181421751,,,,,2018_may._04_1624,60.006935481,Experimento Piloto1,001,107,
0.25,Stim\\03_078.jpg,Tr78_6,Tristeza,6,Eduardo camina hacia la biblioteca.,Afirmación,Tr78,78,,,,,0,74,74,74,,,,,,,,,4,0.500082332586,,,,,2018_may._04_1624,60.006935481,Experimento Piloto1,001,107,
0.25,Stim\\03_028.jpg,Tr28_8,Tristeza,8,Estefanía despierta a las 7 a.m.,Afirmación,Tr28,28,,,,,0,75,75,75,,,,,,,,,4,0.50003770788,,,,,2018_may._04_1624,60.006935481,Experimento Piloto1,001,107,
2.5,Stim\\05_078.jpg,En78_9,Enojo,9,Marco colabora en la organización del evento.,Afirmación,En78,78,,,,,0,76,76,76,,,,,,,,,2,1.36668524542,,,,,2018_may._04_1624,60.006935481,Experimento Piloto1,001,107,
2.5,Stim\\02_028.jpg,Al28_6,Alegría,6,Eduardo camina hacia la biblioteca.,Afirmación,Al28,28,,,,,0,77,77,77,,,,,,,,,3,0.76663508725,,,,,2018_may._04_1624,60.006935481,Experimento Piloto1,001,107,
2.5,Stim\\03_078.jpg,Tr78_6,Tristeza,6,Eduardo camina hacia la biblioteca.,Afirmación,Tr78,78,,,,,0,78,78,78,,,,,,,,,4,0.650166383224,,,,,2018_may._04_1624,60.006935481,Experimento Piloto1,001,107,
2.5,Stim\\02_078.jpg,Al78_2,Alegría,2,Jonathan pasea al perro.,Afirmación,Al78,78,,,,,0,79,79,79,,,,,,,,,3,0.600217500829,,,,,2018_may._04_1624,60.006935481,Experimento Piloto1,001,107,
2.5,Stim\\02_028.jpg,Al28_10,Alegría,10,Laura finaliza la obra.,Afirmación,Al28,28,,,,,0,80,80,80,,,,,,,,,3,0.750835262981,,,,,2018_may._04_1624,60.006935481,Experimento Piloto1,001,107,
2.5,Stim\\02_019.jpg,Al19_15,Alegría,15,Ángel envía una carta a la abuela.,Afirmación,Al19,19,,,,,0,81,81,81,,,,,,,,,3,1.21673685389,,,,,2018_may._04_1624,60.006935481,Experimento Piloto1,001,107,
0.25,Stim\\03_019.jpg,Tr19_5,Tristeza,5,Emilio revisa el formato del archivo.,Afirmación,Tr19,19,,,,,0,82,82,82,,,,,,,,,2,0.650359161966,,,,,2018_may._04_1624,60.006935481,Experimento Piloto1,001,107,
0.25,Stim\\02_075.jpg,Al75_12,Alegría,12,Ana compra el libro.,Afirmación,Al75,75,,,,,0,83,83,83,,,,,,,,,3,0.650406464159,,,,,2018_may._04_1624,60.006935481,Experimento Piloto1,001,107,
2.5,Stim\\05_078.jpg,En78_3,Enojo,3,Andrea diseña la portada del libro.,Afirmación,En78,78,,,,,0,84,84,84,,,,,,,,,2,0.600594579613,,,,,2018_may._04_1624,60.006935481,Experimento Piloto1,001,107,
2.5,Stim\\03_075.jpg,Tr75_5,Tristeza,5,Emilio revisa el formato del archivo.,Afirmación,Tr75,75,,,,,0,85,85,85,,,,,,,,,4,1.15042498341,,,,,2018_may._04_1624,60.006935481,Experimento Piloto1,001,107,
2.5,Stim\\05_028.jpg,En28_2,Enojo,2,Jonathan pasea al perro.,Afirmación,En28,28,,,,,0,86,86,86,,,,,,,,,2,0.950270671168,,,,,2018_may._04_1624,60.006935481,Experimento Piloto1,001,107,
0.25,Stim\\03_028.jpg,Tr28_9,Tristeza,9,Marco colabora en la organización del evento.,Afirmación,Tr28,28,,,,,0,87,87,87,,,,,,,,,4,0.550326630553,,,,,2018_may._04_1624,60.006935481,Experimento Piloto1,001,107,
0.25,Stim\\03_078.jpg,Tr78_9,Tristeza,9,Marco colabora en la organización del evento.,Afirmación,Tr78,78,,,,,0,88,88,88,,,,,,,,,4,0.600296932811,,,,,2018_may._04_1624,60.006935481,Experimento Piloto1,001,107,
2.5,Stim\\03_075.jpg,Tr75_12,Tristeza,12,Ana compra el libro.,Afirmación,Tr75,75,,,,,0,89,89,89,,,,,,,,,4,0.967068303918,,,,,2018_may._04_1624,60.006935481,Experimento Piloto1,001,107,
2.5,Stim\\05_078.jpg,En78_11,Enojo,11,María asiste a la cena.,Afirmación,En78,78,,,,,0,90,90,90,,,,,,,,,2,0.600279529175,,,,,2018_may._04_1624,60.006935481,Experimento Piloto1,001,107,
2.5,Stim\\02_075.jpg,Al75_14,Alegría,14,Elizabeth elige la ropa un día antes.,Afirmación,Al75,75,,,,,0,91,91,91,,,,,,,,,3,0.550502451904,,,,,2018_may._04_1624,60.006935481,Experimento Piloto1,001,107,
0.25,Stim\\03_019.jpg,Tr19_7,Tristeza,7,Roberto contesta los cuestionarios solicitados.,Afirmación,Tr19,19,,,,,0,92,92,92,,,,,,,,,2,1.56679716419,,,,,2018_may._04_1624,60.006935481,Experimento Piloto1,001,107,
0.25,Stim\\05_075.jpg,En75_5,Enojo,5,Emilio revisa el formato del archivo.,Afirmación,En75,75,,,,,0,93,93,93,,,,,,,,,2,0.849927551786,,,,,2018_may._04_1624,60.006935481,Experimento Piloto1,001,107,
2.5,Stim\\05_019.jpg,En19_14,Enojo,14,Elizabeth elige la ropa un día antes.,Afirmación,En19,19,,,,,0,94,94,94,,,,,,,,,2,0.550175799039,,,,,2018_may._04_1624,60.006935481,Experimento Piloto1,001,107,
0.25,Stim\\02_075.jpg,Al75_2,Alegría,2,Jonathan pasea al perro.,Afirmación,Al75,75,,,,,0,95,95,95,,,,,,,,,3,0.550284237081,,,,,2018_may._04_1624,60.006935481,Experimento Piloto1,001,107,
2.5,Stim\\03_028.jpg,Tr28_10,Tristeza,10,Laura finaliza la obra.,Afirmación,Tr28,28,,,,,0,96,96,96,,,,,,,,,4,0.549945535542,,,,,2018_may._04_1624,60.006935481,Experimento Piloto1,001,107,
2.5,Stim\\02_078.jpg,Al78_3,Alegría,3,Andrea diseña la portada del libro.,Afirmación,Al78,78,,,,,0,97,97,97,,,,,,,,,3,1.21717774602,,,,,2018_may._04_1624,60.006935481,Experimento Piloto1,001,107,
2.5,Stim\\05_075.jpg,En75_3,Enojo,3,Andrea diseña la portada del libro.,Afirmación,En75,75,,,,,0,98,98,98,,,,,,,,,2,1.06687191058,,,,,2018_may._04_1624,60.006935481,Experimento Piloto1,001,107,
2.5,Stim\\03_075.jpg,Tr75_3,Tristeza,3,Andrea diseña la portada del libro.,Afirmación,Tr75,75,,,,,0,99,99,99,,,,,,,,,4,1.05035809097,,,,,2018_may._04_1624,60.006935481,Experimento Piloto1,001,107,
2.5,Stim\\03_075.jpg,Tr75_7,Tristeza,7,Roberto contesta los cuestionarios solicitados.,Afirmación,Tr75,75,,,,,0,100,100,100,,,,,,,,,4,0.80031023097,,,,,2018_may._04_1624,60.006935481,Experimento Piloto1,001,107,
2.5,Stim\\03_019.jpg,Tr19_14,Tristeza,14,Elizabeth elige la ropa un día antes.,Afirmación,Tr19,19,,,,,0,101,101,101,,,,,,,,,2,1.26674196342,,,,,2018_may._04_1624,60.006935481,Experimento Piloto1,001,107,
2.5,Stim\\05_078.jpg,En78_5,Enojo,5,Emilio revisa el formato del archivo.,Afirmación,En78,78,,,,,0,102,102,102,,,,,,,,,2,0.950086371122,,,,,2018_may._04_1624,60.006935481,Experimento Piloto1,001,107,
2.5,Stim\\02_078.jpg,Al78_12,Alegría,12,Ana compra el libro.,Afirmación,Al78,78,,,,,0,103,103,103,,,,,,,,,3,2.03315883585,,,,,2018_may._04_1624,60.006935481,Experimento Piloto1,001,107,
2.5,Stim\\02_028.jpg,Al28_13,Alegría,13,Rocío consume alimentos nutritivos.,Afirmación,Al28,28,,,,,0,104,104,104,,,,,,,,,3,1.36647863302,,,,,2018_may._04_1624,60.006935481,Experimento Piloto1,001,107,
2.5,Stim\\05_028.jpg,En28_4,Enojo,4,Jorge sustituye a Gustavo cada sábado.,Afirmación,En28,28,,,,,0,105,105,105,,,,,,,,,2,1.0668143447,,,,,2018_may._04_1624,60.006935481,Experimento Piloto1,001,107,
0.25,Stim\\02_028.jpg,Al28_7,Alegría,7,Roberto contesta los cuestionarios solicitados.,Afirmación,Al28,28,,,,,0,106,106,106,,,,,,,,,3,1.66666235295,,,,,2018_may._04_1624,60.006935481,Experimento Piloto1,001,107,
0.25,Stim\\02_078.jpg,Al78_12,Alegría,12,Ana compra el libro.,Afirmación,Al78,78,,,,,0,107,107,107,,,,,,,,,3,1.93320127395,,,,,2018_may._04_1624,60.006935481,Experimento Piloto1,001,107,
2.5,Stim\\02_028.jpg,Al28_7,Alegría,7,Roberto contesta los cuestionarios solicitados.,Afirmación,Al28,28,,,,,0,108,108,108,,,,,,,,,3,0.60043125318,,,,,2018_may._04_1624,60.006935481,Experimento Piloto1,001,107,
0.25,Stim\\02_075.jpg,Al75_7,Alegría,7,Roberto contesta los cuestionarios solicitados.,Afirmación,Al75,75,,,,,0,109,109,109,,,,,,,,,3,0.550262817222,,,,,2018_may._04_1624,60.006935481,Experimento Piloto1,001,107,
0.25,Stim\\05_075.jpg,En75_10,Enojo,10,Laura finaliza la obra.,Afirmación,En75,75,,,,,0,110,110,110,,,,,,,,,2,0.650393522992,,,,,2018_may._04_1624,60.006935481,Experimento Piloto1,001,107,
2.5,Stim\\05_028.jpg,En28_8,Enojo,8,Estefanía despierta a las 7 a.m.,Afirmación,En28,28,,,,,0,111,111,111,,,,,,,,,2,0.800181711813,,,,,2018_may._04_1624,60.006935481,Experimento Piloto1,001,107,
0.25,Stim\\03_075.jpg,Tr75_6,Tristeza,6,Eduardo camina hacia la biblioteca.,Afirmación,Tr75,75,,,,,0,112,112,112,,,,,,,,,4,0.600313890198,,,,,2018_may._04_1624,60.006935481,Experimento Piloto1,001,107,
0.25,Stim\\02_078.jpg,Al78_4,Alegría,4,Jorge sustituye a Gustavo cada sábado.,Afirmación,Al78,78,,,,,0,113,113,113,,,,,,,,,3,0.483765754198,,,,,2018_may._04_1624,60.006935481,Experimento Piloto1,001,107,
2.5,Stim\\02_019.jpg,Al19_13,Alegría,13,Rocío consume alimentos nutritivos.,Afirmación,Al19,19,,,,,0,114,114,114,,,,,,,,,3,0.700271898349,,,,,2018_may._04_1624,60.006935481,Experimento Piloto1,001,107,
0.25,Stim\\02_078.jpg,Al78_15,Alegría,15,Ángel envía una carta a la abuela.,Afirmación,Al78,78,,,,,0,115,115,115,,,,,,,,,3,0.700172385248,,,,,2018_may._04_1624,60.006935481,Experimento Piloto1,001,107,
2.5,Stim\\05_019.jpg,En19_4,Enojo,4,Jorge sustituye a Gustavo cada sábado.,Afirmación,En19,19,,,,,0,116,116,116,,,,,,,,,2,0.550260585984,,,,,2018_may._04_1624,60.006935481,Experimento Piloto1,001,107,
2.5,Stim\\05_075.jpg,En75_9,Enojo,9,Marco colabora en la organización del evento.,Afirmación,En75,75,,,,,0,117,117,117,,,,,,,,,2,0.550209713816,,,,,2018_may._04_1624,60.006935481,Experimento Piloto1,001,107,
0.25,Stim\\05_078.jpg,En78_8,Enojo,8,Estefanía despierta a las 7 a.m.,Afirmación,En78,78,,,,,0,118,118,118,,,,,,,,,2,0.716633547694,,,,,2018_may._04_1624,60.006935481,Experimento Piloto1,001,107,
0.25,Stim\\03_075.jpg,Tr75_12,Tristeza,12,Ana compra el libro.,Afirmación,Tr75,75,,,,,0,119,119,119,,,,,,,,,3,0.399998929006,,,,,2018_may._04_1624,60.006935481,Experimento Piloto1,001,107,
2.5,Stim\\03_028.jpg,Tr28_1,Tristeza,1,Juan colecciona monedas antiguas.,Afirmación,Tr28,28,,,,,,,,,0,0,0,0,,,,,,,4,2.14947358463,,,2018_may._04_1624,60.006935481,Experimento Piloto1,001,107,
0.25,Stim\\03_019.jpg,Tr19_1,Tristeza,1,Juan colecciona monedas antiguas.,Afirmación,Tr19,19,,,,,,,,,0,1,1,1,,,,,,,3,0.966492198932,,,2018_may._04_1624,60.006935481,Experimento Piloto1,001,107,
2.5,Stim\\03_078.jpg,Tr78_10,Tristeza,10,Laura finaliza la obra.,Afirmación,Tr78,78,,,,,,,,,0,2,2,2,,,,,,,4,0.750335912493,,,2018_may._04_1624,60.006935481,Experimento Piloto1,001,107,
0.25,Stim\\02_075.jpg,Al75_5,Alegría,5,Emilio revisa el formato del archivo.,Afirmación,Al75,75,,,,,,,,,0,3,3,3,,,,,,,3,0.60036431612,,,2018_may._04_1624,60.006935481,Experimento Piloto1,001,107,
0.25,Stim\\02_019.jpg,Al19_15,Alegría,15,Ángel envía una carta a la abuela.,Afirmación,Al19,19,,,,,,,,,0,4,4,4,,,,,,,3,0.650049912736,,,2018_may._04_1624,60.006935481,Experimento Piloto1,001,107,
2.5,Stim\\02_075.jpg,Al75_7,Alegría,7,Roberto contesta los cuestionarios solicitados.,Afirmación,Al75,75,,,,,,,,,0,5,5,5,,,,,,,3,0.55015571792,,,2018_may._04_1624,60.006935481,Experimento Piloto1,001,107,
0.25,Stim\\03_075.jpg,Tr75_8,Tristeza,8,Estefanía despierta a las 7 a.m.,Afirmación,Tr75,75,,,,,,,,,0,6,6,6,,,,,,,4,0.500378194403,,,2018_may._04_1624,60.006935481,Experimento Piloto1,001,107,
0.25,Stim\\02_019.jpg,Al19_11,Alegría,11,María asiste a la cena.,Afirmación,Al19,19,,,,,,,,,0,7,7,7,,,,,,,3,0.550233811162,,,2018_may._04_1624,60.006935481,Experimento Piloto1,001,107,
2.5,Stim\\02_019.jpg,Al19_2,Alegría,2,Jonathan pasea al perro.,Afirmación,Al19,19,,,,,,,,,0,8,8,8,,,,,,,4,0.550259693489,,,2018_may._04_1624,60.006935481,Experimento Piloto1,001,107,
2.5,Stim\\05_075.jpg,En75_5,Enojo,5,Emilio revisa el formato del archivo.,Afirmación,En75,75,,,,,,,,,0,9,9,9,,,,,,,2,1.16656127798,,,2018_may._04_1624,60.006935481,Experimento Piloto1,001,107,
0.25,Stim\\03_078.jpg,Tr78_10,Tristeza,10,Laura finaliza la obra.,Afirmación,Tr78,78,,,,,,,,,0,10,10,10,,,,,,,4,1.01679495526,,,2018_may._04_1624,60.006935481,Experimento Piloto1,001,107,
0.25,Stim\\02_019.jpg,Al19_6,Alegría,6,Eduardo camina hacia la biblioteca.,Afirmación,Al19,19,,,,,,,,,0,11,11,11,,,,,,,3,0.750239076875,,,2018_may._04_1624,60.006935481,Experimento Piloto1,001,107,
2.5,Stim\\05_019.jpg,En19_3,Enojo,3,Andrea diseña la portada del libro.,Afirmación,En19,19,,,,,,,,,0,12,12,12,,,,,,,2,11.7800992543,,,2018_may._04_1624,60.006935481,Experimento Piloto1,001,107,
0.25,Stim\\05_019.jpg,En19_3,Enojo,3,Andrea diseña la portada del libro.,Afirmación,En19,19,,,,,,,,,0,13,13,13,,,,,,,2,1.06686343188,,,2018_may._04_1624,60.006935481,Experimento Piloto1,001,107,
2.5,Stim\\02_028.jpg,Al28_1,Alegría,1,Juan colecciona monedas antiguas.,Afirmación,Al28,28,,,,,,,,,0,14,14,14,,,,,,,3,0.500354097061,,,2018_may._04_1624,60.006935481,Experimento Piloto1,001,107,
0.25,Stim\\02_019.jpg,Al19_2,Alegría,2,Jonathan pasea al perro.,Afirmación,Al19,19,,,,,,,,,0,15,15,15,,,,,,,3,0.50027823506,,,2018_may._04_1624,60.006935481,Experimento Piloto1,001,107,
0.25,Stim\\05_028.jpg,En28_11,Enojo,11,María asiste a la cena.,Afirmación,En28,28,,,,,,,,,0,16,16,16,,,,,,,2,0.600193849732,,,2018_may._04_1624,60.006935481,Experimento Piloto1,001,107,
0.25,Stim\\03_028.jpg,Tr28_1,Tristeza,1,Juan colecciona monedas antiguas.,Afirmación,Tr28,28,,,,,,,,,0,17,17,17,,,,,,,4,0.600292470339,,,2018_may._04_1624,60.006935481,Experimento Piloto1,001,107,
0.25,Stim\\03_078.jpg,Tr78_1,Tristeza,1,Juan colecciona monedas antiguas.,Afirmación,Tr78,78,,,,,,,,,0,18,18,18,,,,,,,4,0.500250121488,,,2018_may._04_1624,60.006935481,Experimento Piloto1,001,107,
0.25,Stim\\02_019.jpg,Al19_1,Alegría,1,Juan colecciona monedas antiguas.,Afirmación,Al19,19,,,,,,,,,0,19,19,19,,,,,,,3,0.45021957588,,,2018_may._04_1624,60.006935481,Experimento Piloto1,001,107,
0.25,Stim\\02_019.jpg,Al19_10,Alegría,10,Laura finaliza la obra.,Afirmación,Al19,19,,,,,,,,,0,20,20,20,,,,,,,3,0.800230798992,,,2018_may._04_1624,60.006935481,Experimento Piloto1,001,107,
2.5,Stim\\03_019.jpg,Tr19_13,Tristeza,13,Rocío consume alimentos nutritivos.,Afirmación,Tr19,19,,,,,,,,,0,21,21,21,,,,,,,3,2.99956267786,,,2018_may._04_1624,60.006935481,Experimento Piloto1,001,107,
2.5,Stim\\05_075.jpg,En75_6,Enojo,6,Eduardo camina hacia la biblioteca.,Afirmación,En75,75,,,,,,,,,0,22,22,22,,,,,,,3,1.11681856174,,,2018_may._04_1624,60.006935481,Experimento Piloto1,001,107,
0.25,Stim\\05_078.jpg,En78_10,Enojo,10,Laura finaliza la obra.,Afirmación,En78,78,,,,,,,,,0,23,23,23,,,,,,,3,1.73319957821,,,2018_may._04_1624,60.006935481,Experimento Piloto1,001,107,
2.5,Stim\\05_075.jpg,En75_14,Enojo,14,Elizabeth elige la ropa un día antes.,Afirmación,En75,75,,,,,,,,,0,24,24,24,,,,,,,2,0.916507170521,,,2018_may._04_1624,60.006935481,Experimento Piloto1,001,107,
0.25,Stim\\05_019.jpg,En19_7,Enojo,7,Roberto contesta los cuestionarios solicitados.,Afirmación,En19,19,,,,,,,,,0,25,25,25,,,,,,,2,0.450406107157,,,2018_may._04_1624,60.006935481,Experimento Piloto1,001,107,
0.25,Stim\\02_078.jpg,Al78_14,Alegría,14,Elizabeth elige la ropa un día antes.,Afirmación,Al78,78,,,,,,,,,0,26,26,26,,,,,,,3,0.450433328235,,,2018_may._04_1624,60.006935481,Experimento Piloto1,001,107,
0.25,Stim\\03_028.jpg,Tr28_13,Tristeza,13,Rocío consume alimentos nutritivos.,Afirmación,Tr28,28,,,,,,,,,0,27,27,27,,,,,,,4,0.500275557577,,,2018_may._04_1624,60.006935481,Experimento Piloto1,001,107,
2.5,Stim\\03_019.jpg,Tr19_8,Tristeza,8,Estefanía despierta a las 7 a.m.,Afirmación,Tr19,19,,,,,,,,,0,28,28,28,,,,,,,3,1.11644103671,,,2018_may._04_1624,60.006935481,Experimento Piloto1,001,107,
2.5,Stim\\02_019.jpg,Al19_8,Alegría,8,Estefanía despierta a las 7 a.m.,Afirmación,Al19,19,,,,,,,,,0,29,29,29,,,,,,,4,1.41667429005,,,2018_may._04_1624,60.006935481,Experimento Piloto1,001,107,
2.5,Stim\\02_028.jpg,Al28_9,Alegría,9,Marco colabora en la organización del evento.,Afirmación,Al28,28,,,,,,,,,0,30,30,30,,,,,,,3,1.21686091058,,,2018_may._04_1624,60.006935481,Experimento Piloto1,001,107,
2.5,Stim\\03_075.jpg,Tr75_1,Tristeza,1,Juan colecciona monedas antiguas.,Afirmación,Tr75,75,,,,,,,,,0,31,31,31,,,,,,,4,0.900116515117,,,2018_may._04_1624,60.006935481,Experimento Piloto1,001,107,
2.5,Stim\\05_078.jpg,En78_8,Enojo,8,Estefanía despierta a las 7 a.m.,Afirmación,En78,78,,,,,,,,,0,32,32,32,,,,,,,2,1.46672804052,,,2018_may._04_1624,60.006935481,Experimento Piloto1,001,107,
0.25,Stim\\02_028.jpg,Al28_12,Alegría,12,Ana compra el libro.,Afirmación,Al28,28,,,,,,,,,0,33,33,33,,,,,,,3,1.10017666922,,,2018_may._04_1624,60.006935481,Experimento Piloto1,001,107,
0.25,Stim\\05_075.jpg,En75_1,Enojo,1,Juan colecciona monedas antiguas.,Afirmación,En75,75,,,,,,,,,0,34,34,34,,,,,,,2,0.70002021499,,,2018_may._04_1624,60.006935481,Experimento Piloto1,001,107,
0.25,Stim\\03_028.jpg,Tr28_4,Tristeza,4,Jorge sustituye a Gustavo cada sábado.,Afirmación,Tr28,28,,,,,,,,,0,35,35,35,,,,,,,4,1.06677685995,,,2018_may._04_1624,60.006935481,Experimento Piloto1,001,107,
2.5,Stim\\03_078.jpg,Tr78_3,Tristeza,3,Andrea diseña la portada del libro.,Afirmación,Tr78,78,,,,,,,,,0,36,36,36,,,,,,,4,0.650401109189,,,2018_may._04_1624,60.006935481,Experimento Piloto1,001,107,
0.25,Stim\\05_078.jpg,En78_4,Enojo,4,Jorge sustituye a Gustavo cada sábado.,Afirmación,En78,78,,,,,,,,,0,37,37,37,,,,,,,2,1.53321305487,,,2018_may._04_1624,60.006935481,Experimento Piloto1,001,107,
2.5,Stim\\03_019.jpg,Tr19_7,Tristeza,7,Roberto contesta los cuestionarios solicitados.,Afirmación,Tr19,19,,,,,,,,,0,38,38,38,,,,,,,3,0.900133472504,,,2018_may._04_1624,60.006935481,Experimento Piloto1,001,107,
0.25,Stim\\02_078.jpg,Al78_2,Alegría,2,Jonathan pasea al perro.,Afirmación,Al78,78,,,,,,,,,0,39,39,39,,,,,,,3,0.600325938871,,,2018_may._04_1624,60.006935481,Experimento Piloto1,001,107,
0.25,Stim\\02_078.jpg,Al78_5,Alegría,5,Emilio revisa el formato del archivo.,Afirmación,Al78,78,,,,,,,,,0,40,40,40,,,,,,,3,0.700393277555,,,2018_may._04_1624,60.006935481,Experimento Piloto1,001,107,
2.5,Stim\\05_019.jpg,En19_11,Enojo,11,María asiste a la cena.,Afirmación,En19,19,,,,,,,,,0,41,41,41,,,,,,,2,0.750260050489,,,2018_may._04_1624,60.006935481,Experimento Piloto1,001,107,
2.5,Stim\\02_028.jpg,Al28_15,Alegría,15,Ángel envía una carta a la abuela.,Afirmación,Al28,28,,,,,,,,,0,42,42,42,,,,,,,3,1.00022981725,,,2018_may._04_1624,60.006935481,Experimento Piloto1,001,107,
0.25,Stim\\03_019.jpg,Tr19_4,Tristeza,4,Jorge sustituye a Gustavo cada sábado.,Afirmación,Tr19,19,,,,,,,,,0,43,43,43,,,,,,,3,1.31683587612,,,2018_may._04_1624,60.006935481,Experimento Piloto1,001,107,
2.5,Stim\\02_075.jpg,Al75_12,Alegría,12,Ana compra el libro.,Afirmación,Al75,75,,,,,,,,,0,44,44,44,,,,,,,3,0.600312105209,,,2018_may._04_1624,60.006935481,Experimento Piloto1,001,107,
2.5,Stim\\05_028.jpg,En28_12,Enojo,12,Ana compra el libro.,Afirmación,En28,28,,,,,,,,,0,45,45,45,,,,,,,2,0.583676906401,,,2018_may._04_1624,60.006935481,Experimento Piloto1,001,107,
0.25,Stim\\02_028.jpg,Al28_14,Alegría,14,Elizabeth elige la ropa un día antes.,Afirmación,Al28,28,,,,,,,,,0,46,46,46,,,,,,,3,0.55018427773,,,2018_may._04_1624,60.006935481,Experimento Piloto1,001,107,
2.5,Stim\\03_075.jpg,Tr75_6,Tristeza,6,Eduardo camina hacia la biblioteca.,Afirmación,Tr75,75,,,,,,,,,0,47,47,47,,,,,,,3,1.56661464913,,,2018_may._04_1624,60.006935481,Experimento Piloto1,001,107,
0.25,Stim\\05_028.jpg,En28_8,Enojo,8,Estefanía despierta a las 7 a.m.,Afirmación,En28,28,,,,,,,,,0,48,48,48,,,,,,,3,0.433764660887,,,2018_may._04_1624,60.006935481,Experimento Piloto1,001,107,
2.5,Stim\\05_019.jpg,En19_7,Enojo,7,Roberto contesta los cuestionarios solicitados.,Afirmación,En19,19,,,,,,,,,0,49,49,49,,,,,,,2,0.700032263663,,,2018_may._04_1624,60.006935481,Experimento Piloto1,001,107,
2.5,Stim\\02_019.jpg,Al19_10,Alegría,10,Laura finaliza la obra.,Afirmación,Al19,19,,,,,,,,,0,50,50,50,,,,,,,3,0.450022334666,,,2018_may._04_1624,60.006935481,Experimento Piloto1,001,107,
0.25,Stim\\05_028.jpg,En28_14,Enojo,14,Elizabeth elige la ropa un día antes.,Afirmación,En28,28,,,,,,,,,0,51,51,51,,,,,,,2,0.650292224902,,,2018_may._04_1624,60.006935481,Experimento Piloto1,001,107,
2.5,Stim\\03_028.jpg,Tr28_8,Tristeza,8,Estefanía despierta a las 7 a.m.,Afirmación,Tr28,28,,,,,,,,,0,52,52,52,,,,,,,4,0.433620969328,,,2018_may._04_1624,60.006935481,Experimento Piloto1,001,107,
0.25,Stim\\02_075.jpg,Al75_3,Alegría,3,Andrea diseña la portada del libro.,Afirmación,Al75,75,,,,,,,,,0,53,53,53,,,,,,,3,0.450228054571,,,2018_may._04_1624,60.006935481,Experimento Piloto1,001,107,
0.25,Stim\\02_028.jpg,Al28_1,Alegría,1,Juan colecciona monedas antiguas.,Afirmación,Al28,28,,,,,,,,,0,54,54,54,,,,,,,3,0.500388458087,,,2018_may._04_1624,60.006935481,Experimento Piloto1,001,107,
0.25,Stim\\03_028.jpg,Tr28_3,Tristeza,3,Andrea diseña la portada del libro.,Afirmación,Tr28,28,,,,,,,,,0,55,55,55,,,,,,,4,0.650244030217,,,2018_may._04_1624,60.006935481,Experimento Piloto1,001,107,
2.5,Stim\\02_078.jpg,Al78_11,Alegría,11,María asiste a la cena.,Afirmación,Al78,78,,,,,,,,,0,56,56,56,,,,,,,3,0.550244074842,,,2018_may._04_1624,60.006935481,Experimento Piloto1,001,107,
0.25,Stim\\03_019.jpg,Tr19_12,Tristeza,12,Ana compra el libro.,Afirmación,Tr19,19,,,,,,,,,0,57,57,57,,,,,,,3,0.650206099217,,,2018_may._04_1624,60.006935481,Experimento Piloto1,001,107,
2.5,Stim\\02_078.jpg,Al78_14,Alegría,14,Elizabeth elige la ropa un día antes.,Afirmación,Al78,78,,,,,,,,,0,58,58,58,,,,,,,3,0.800219642817,,,2018_may._04_1624,60.006935481,Experimento Piloto1,001,107,
0.25,Stim\\03_019.jpg,Tr19_2,Tristeza,2,Jonathan pasea al perro.,Afirmación,Tr19,19,,,,,,,,,0,59,59,59,,,,,,,3,1.01695872795,,,2018_may._04_1624,60.006935481,Experimento Piloto1,001,107,
2.5,Stim\\03_078.jpg,Tr78_1,Tristeza,1,Juan colecciona monedas antiguas.,Afirmación,Tr78,78,,,,,,,,,0,60,60,60,,,,,,,4,0.800190636754,,,2018_may._04_1624,60.006935481,Experimento Piloto1,001,107,
0.25,Stim\\03_078.jpg,Tr78_4,Tristeza,4,Jorge sustituye a Gustavo cada sábado.,Afirmación,Tr78,78,,,,,,,,,0,61,61,61,,,,,,,4,0.483770662915,,,2018_may._04_1624,60.006935481,Experimento Piloto1,001,107,
0.25,Stim\\05_019.jpg,En19_14,Enojo,14,Elizabeth elige la ropa un día antes.,Afirmación,En19,19,,,,,,,,,0,62,62,62,,,,,,,2,0.550249429805,,,2018_may._04_1624,60.006935481,Experimento Piloto1,001,107,
0.25,Stim\\02_075.jpg,Al75_15,Alegría,15,Ángel envía una carta a la abuela.,Afirmación,Al75,75,,,,,,,,,0,63,63,63,,,,,,,3,0.500209513008,,,2018_may._04_1624,60.006935481,Experimento Piloto1,001,107,
2.5,Stim\\03_028.jpg,Tr28_2,Tristeza,2,Jonathan pasea al perro.,Afirmación,Tr28,28,,,,,,,,,0,64,64,64,,,,,,,4,0.600255431829,,,2018_may._04_1624,60.006935481,Experimento Piloto1,001,107,
0.25,Stim\\05_028.jpg,En28_3,Enojo,3,Andrea diseña la portada del libro.,Afirmación,En28,28,,,,,,,,,0,65,65,65,,,,,,,2,0.383778293741,,,2018_may._04_1624,60.006935481,Experimento Piloto1,001,107,
0.25,Stim\\05_078.jpg,En78_3,Enojo,3,Andrea diseña la portada del libro.,Afirmación,En78,78,,,,,,,,,0,66,66,66,,,,,,,2,0.500249675246,,,2018_may._04_1624,60.006935481,Experimento Piloto1,001,107,
0.25,Stim\\05_075.jpg,En75_9,Enojo,9,Marco colabora en la organización del evento.,Afirmación,En75,75,,,,,,,,,0,67,67,67,,,,,,,2,0.800153151999,,,2018_may._04_1624,60.006935481,Experimento Piloto1,001,107,
2.5,Stim\\05_075.jpg,En75_7,Enojo,7,Roberto contesta los cuestionarios solicitados.,Afirmación,En75,75,,,,,,,,,0,68,68,68,,,,,,,2,0.91656562889,,,2018_may._04_1624,60.006935481,Experimento Piloto1,001,107,
0.25,Stim\\03_078.jpg,Tr78_14,Tristeza,14,Elizabeth elige la ropa un día antes.,Afirmación,Tr78,78,,,,,,,,,0,69,69,69,,,,,,,4,0.900340977398,,,2018_may._04_1624,60.006935481,Experimento Piloto1,001,107,
2.5,Stim\\03_019.jpg,Tr19_5,Tristeza,5,Emilio revisa el formato del archivo.,Afirmación,Tr19,19,,,,,,,,,0,70,70,70,,,,,,,3,3.26610606133,,,2018_may._04_1624,60.006935481,Experimento Piloto1,001,107,
2.5,Stim\\05_028.jpg,En28_13,Enojo,13,Rocío consume alimentos nutritivos.,Afirmación,En28,28,,,,,,,,,0,71,71,71,,,,,,,2,0.766862227014,,,2018_may._04_1624,60.006935481,Experimento Piloto1,001,107,
0.25,Stim\\05_075.jpg,En75_15,Enojo,15,Ángel envía una carta a la abuela.,Afirmación,En75,75,,,,,,,,,0,72,72,72,,,,,,,2,0.500258153937,,,2018_may._04_1624,60.006935481,Experimento Piloto1,001,107,
2.5,Stim\\05_019.jpg,En19_6,Enojo,6,Eduardo camina hacia la biblioteca.,Afirmación,En19,19,,,,,,,,,0,73,73,73,,,,,,,2,0.500341602143,,,2018_may._04_1624,60.006935481,Experimento Piloto1,001,107,
2.5,Stim\\05_078.jpg,En78_10,Enojo,10,Laura finaliza la obra.,Afirmación,En78,78,,,,,,,,,0,74,74,74,,,,,,,2,1.83295365144,,,2018_may._04_1624,60.006935481,Experimento Piloto1,001,107,
2.5,Stim\\05_019.jpg,En19_9,Enojo,9,Marco colabora en la organización del evento.,Afirmación,En19,19,,,,,,,,,0,75,75,75,,,,,,,2,0.650310521032,,,2018_may._04_1624,60.006935481,Experimento Piloto1,001,107,
2.5,Stim\\02_078.jpg,Al78_6,Alegría,6,Eduardo camina hacia la biblioteca.,Afirmación,Al78,78,,,,,,,,,0,76,76,76,,,,,,,4,1.01679004655,,,2018_may._04_1624,60.006935481,Experimento Piloto1,001,107,
2.5,Stim\\05_078.jpg,En78_13,Enojo,13,Rocío consume alimentos nutritivos.,Afirmación,En78,78,,,,,,,,,0,77,77,77,,,,,,,2,0.400425987467,,,2018_may._04_1624,60.006935481,Experimento Piloto1,001,107,
0.25,Stim\\05_028.jpg,En28_2,Enojo,2,Jonathan pasea al perro.,Afirmación,En28,28,,,,,,,,,0,78,78,78,,,,,,,2,0.533529444052,,,2018_may._04_1624,60.006935481,Experimento Piloto1,001,107,
0.25,Stim\\05_019.jpg,En19_6,Enojo,6,Eduardo camina hacia la biblioteca.,Afirmación,En19,19,,,,,,,,,0,79,79,79,,,,,,,2,0.900191484623,,,2018_may._04_1624,60.006935481,Experimento Piloto1,001,107,
2.5,Stim\\03_019.jpg,Tr19_11,Tristeza,11,María asiste a la cena.,Afirmación,Tr19,19,,,,,,,,,0,80,80,80,,,,,,,3,0.600197865959,,,2018_may._04_1624,60.006935481,Experimento Piloto1,001,107,
2.5,Stim\\05_028.jpg,En28_11,Enojo,11,María asiste a la cena.,Afirmación,En28,28,,,,,,,,,0,81,81,81,,,,,,,2,1.31669129207,,,2018_may._04_1624,60.006935481,Experimento Piloto1,001,107,
0.25,Stim\\02_078.jpg,Al78_9,Alegría,9,Marco colabora en la organización del evento.,Afirmación,Al78,78,,,,,,,,,0,82,82,82,,,,,,,3,0.900359273528,,,2018_may._04_1624,60.006935481,Experimento Piloto1,001,107,
0.25,Stim\\05_019.jpg,En19_13,Enojo,13,Rocío consume alimentos nutritivos.,Afirmación,En19,19,,,,,,,,,0,83,83,83,,,,,,,2,0.583628711713,,,2018_may._04_1624,60.006935481,Experimento Piloto1,001,107,
0.25,Stim\\03_078.jpg,Tr78_11,Tristeza,11,María asiste a la cena.,Afirmación,Tr78,78,,,,,,,,,0,84,84,84,,,,,,,4,0.650300257348,,,2018_may._04_1624,60.006935481,Experimento Piloto1,001,107,
2.5,Stim\\05_028.jpg,En28_5,Enojo,5,Emilio revisa el formato del archivo.,Afirmación,En28,28,,,,,,,,,0,85,85,85,,,,,,,2,1.36677092486,,,2018_may._04_1624,60.006935481,Experimento Piloto1,001,107,
0.25,Stim\\03_028.jpg,Tr28_10,Tristeza,10,Laura finaliza la obra.,Afirmación,Tr28,28,,,,,,,,,0,86,86,86,,,,,,,4,1.01690160832,,,2018_may._04_1624,60.006935481,Experimento Piloto1,001,107,
0.25,Stim\\05_019.jpg,En19_11,Enojo,11,María asiste a la cena.,Afirmación,En19,19,,,,,,,,,0,87,87,87,,,,,,,2,0.700210316252,,,2018_may._04_1624,60.006935481,Experimento Piloto1,001,107,
2.5,Stim\\03_028.jpg,Tr28_9,Tristeza,9,Marco colabora en la organización del evento.,Afirmación,Tr28,28,,,,,,,,,0,88,88,88,,,,,,,4,0.500461642609,,,2018_may._04_1624,60.006935481,Experimento Piloto1,001,107,
2.5,Stim\\05_019.jpg,En19_8,Enojo,8,Estefanía despierta a las 7 a.m.,Afirmación,En19,19,,,,,,,,,0,89,89,89,,,,,,,2,0.750198468388,,,2018_may._04_1624,60.006935481,Experimento Piloto1,001,107,
0.25,Stim\\03_075.jpg,Tr75_9,Tristeza,9,Marco colabora en la organización del evento.,Afirmación,Tr75,75,,,,,,,,,0,90,90,90,,,,,,,3,0.550203912604,,,2018_may._04_1624,60.006935481,Experimento Piloto1,001,107,
2.5,Stim\\02_075.jpg,Al75_3,Alegría,3,Andrea diseña la portada del libro.,Afirmación,Al75,75,,,,,,,,,0,91,91,91,,,,,,,4,1.81660806699,,,2018_may._04_1624,60.006935481,Experimento Piloto1,001,107,
0.25,Stim\\05_028.jpg,En28_12,Enojo,12,Ana compra el libro.,Afirmación,En28,28,,,,,,,,,0,92,92,92,,,,,,,2,0.750248001819,,,2018_may._04_1624,60.006935481,Experimento Piloto1,001,107,
0.25,Stim\\03_028.jpg,Tr28_7,Tristeza,7,Roberto contesta los cuestionarios solicitados.,Afirmación,Tr28,28,,,,,,,,,0,93,93,93,,,,,,,4,0.550493080718,,,2018_may._04_1624,60.006935481,Experimento Piloto1,001,107,
0.25,Stim\\03_019.jpg,Tr19_8,Tristeza,8,Estefanía despierta a las 7 a.m.,Afirmación,Tr19,19,,,,,,,,,0,94,94,94,,,,,,,3,0.500323752258,,,2018_may._04_1624,60.006935481,Experimento Piloto1,001,107,
0.25,Stim\\02_019.jpg,Al19_4,Alegría,4,Jorge sustituye a Gustavo cada sábado.,Afirmación,Al19,19,,,,,,,,,0,95,95,95,,,,,,,3,1.78328054974,,,2018_may._04_1624,60.006935481,Experimento Piloto1,001,107,
2.5,Stim\\05_019.jpg,En19_15,Enojo,15,Ángel envía una carta a la abuela.,Afirmación,En19,19,,,,,,,,,0,96,96,96,,,,,,,2,0.500433529043,,,2018_may._04_1624,60.006935481,Experimento Piloto1,001,107,
0.25,Stim\\05_075.jpg,En75_13,Enojo,13,Rocío consume alimentos nutritivos.,Afirmación,En75,75,,,,,,,,,0,97,97,97,,,,,,,2,0.550390890134,,,2018_may._04_1624,60.006935481,Experimento Piloto1,001,107,
0.25,Stim\\02_078.jpg,Al78_7,Alegría,7,Roberto contesta los cuestionarios solicitados.,Afirmación,Al78,78,,,,,,,,,0,98,98,98,,,,,,,3,0.450551137463,,,2018_may._04_1624,60.006935481,Experimento Piloto1,001,107,
2.5,Stim\\03_028.jpg,Tr28_3,Tristeza,3,Andrea diseña la portada del libro.,Afirmación,Tr28,28,,,,,,,,,0,99,99,99,,,,,,,4,0.083739604117,,,2018_may._04_1624,60.006935481,Experimento Piloto1,001,107,
2.5,Stim\\05_075.jpg,En75_15,Enojo,15,Ángel envía una carta a la abuela.,Afirmación,En75,75,,,,,,,,,0,100,100,100,,,,,,,2,1.26656614208,,,2018_may._04_1624,60.006935481,Experimento Piloto1,001,107,
0.25,Stim\\02_028.jpg,Al28_13,Alegría,13,Rocío consume alimentos nutritivos.,Afirmación,Al28,28,,,,,,,,,0,101,101,101,,,,,,,3,0.800254896338,,,2018_may._04_1624,60.006935481,Experimento Piloto1,001,107,
0.25,Stim\\03_028.jpg,Tr28_15,Tristeza,15,Ángel envía una carta a la abuela.,Afirmación,Tr28,28,,,,,,,,,0,102,102,102,,,,,,,4,0.750148488718,,,2018_may._04_1624,60.006935481,Experimento Piloto1,001,107,
0.25,Stim\\05_019.jpg,En19_2,Enojo,2,Jonathan pasea al perro.,Afirmación,En19,19,,,,,,,,,0,103,103,103,,,,,,,2,0.650270358794,,,2018_may._04_1624,60.006935481,Experimento Piloto1,001,107,
0.25,Stim\\03_078.jpg,Tr78_13,Tristeza,13,Rocío consume alimentos nutritivos.,Afirmación,Tr78,78,,,,,,,,,0,104,104,104,,,,,,,4,1.21669847664,,,2018_may._04_1624,60.006935481,Experimento Piloto1,001,107,
2.5,Stim\\03_075.jpg,Tr75_2,Tristeza,2,Jonathan pasea al perro.,Afirmación,Tr75,75,,,,,,,,,0,105,105,105,,,,,,,4,0.700818997273,,,2018_may._04_1624,60.006935481,Experimento Piloto1,001,107,
2.5,Stim\\05_075.jpg,En75_10,Enojo,10,Laura finaliza la obra.,Afirmación,En75,75,,,,,,,,,0,106,106,106,,,,,,,2,0.500165780792,,,2018_may._04_1624,60.006935481,Experimento Piloto1,001,107,
2.5,Stim\\05_028.jpg,En28_3,Enojo,3,Andrea diseña la portada del libro.,Afirmación,En28,28,,,,,,,,,0,107,107,107,,,,,,,2,0.600552186141,,,2018_may._04_1624,60.006935481,Experimento Piloto1,001,107,
2.5,Stim\\02_078.jpg,Al78_8,Alegría,8,Estefanía despierta a las 7 a.m.,Afirmación,Al78,78,,,,,,,,,0,108,108,108,,,,,,,3,0.499939533518,,,2018_may._04_1624,60.006935481,Experimento Piloto1,001,107,
2.5,Stim\\05_075.jpg,En75_2,Enojo,2,Jonathan pasea al perro.,Afirmación,En75,75,,,,,,,,,0,109,109,109,,,,,,,2,0.550235596151,,,2018_may._04_1624,60.006935481,Experimento Piloto1,001,107,
0.25,Stim\\05_078.jpg,En78_2,Enojo,2,Jonathan pasea al perro.,Afirmación,En78,78,,,,,,,,,0,110,110,110,,,,,,,2,0.550300748226,,,2018_may._04_1624,60.006935481,Experimento Piloto1,001,107,
2.5,Stim\\05_078.jpg,En78_14,Enojo,14,Elizabeth elige la ropa un día antes.,Afirmación,En78,78,,,,,,,,,0,111,111,111,,,,,,,2,0.483931758114,,,2018_may._04_1624,60.006935481,Experimento Piloto1,001,107,
2.5,Stim\\05_028.jpg,En28_1,Enojo,1,Juan colecciona monedas antiguas.,Afirmación,En28,28,,,,,,,,,0,112,112,112,,,,,,,2,0.600201882182,,,2018_may._04_1624,60.006935481,Experimento Piloto1,001,107,
0.25,Stim\\05_019.jpg,En19_12,Enojo,12,Ana compra el libro.,Afirmación,En19,19,,,,,,,,,0,113,113,113,,,,,,,2,0.500378640649,,,2018_may._04_1624,60.006935481,Experimento Piloto1,001,107,
0.25,Stim\\02_075.jpg,Al75_13,Alegría,13,Rocío consume alimentos nutritivos.,Afirmación,Al75,75,,,,,,,,,0,114,114,114,,,,,,,3,0.483753259279,,,2018_may._04_1624,60.006935481,Experimento Piloto1,001,107,
2.5,Stim\\03_019.jpg,Tr19_6,Tristeza,6,Eduardo camina hacia la biblioteca.,Afirmación,Tr19,19,,,,,,,,,0,115,115,115,,,,,,,3,0.55023827363,,,2018_may._04_1624,60.006935481,Experimento Piloto1,001,107,
2.5,Stim\\05_028.jpg,En28_14,Enojo,14,Elizabeth elige la ropa un día antes.,Afirmación,En28,28,,,,,,,,,0,116,116,116,,,,,,,2,0.650282407467,,,2018_may._04_1624,60.006935481,Experimento Piloto1,001,107,
2.5,Stim\\02_028.jpg,Al28_5,Alegría,5,Emilio revisa el formato del archivo.,Afirmación,Al28,28,,,,,,,,,0,117,117,117,,,,,,,3,0.55243916425,,,2018_may._04_1624,60.006935481,Experimento Piloto1,001,107,
2.5,Stim\\02_078.jpg,Al78_9,Alegría,9,Marco colabora en la organización del evento.,Afirmación,Al78,78,,,,,,,,,0,118,118,118,,,,,,,3,0.500231825361,,,2018_may._04_1624,60.006935481,Experimento Piloto1,001,107,
0.25,Stim\\03_019.jpg,Tr19_3,Tristeza,3,Andrea diseña la portada del libro.,Afirmación,Tr19,19,,,,,,,,,0,119,119,119,,,,,,,3,0.400396088913,,,2018_may._04_1624,60.006935481,Experimento Piloto1,001,107,
0.25,Stim\\02_075.jpg,Al75_11,Alegría,11,María asiste a la cena.,Afirmación,Al75,75,,,,,,,,,,,,,0,0,0,0,,,,,3,0.650205652972,2018_may._04_1624,60.006935481,Experimento Piloto1,001,107,
2.5,Stim\\03_019.jpg,Tr19_9,Tristeza,9,Marco colabora en la organización del evento.,Afirmación,Tr19,19,,,,,,,,,,,,,0,1,1,1,,,,,3,0.750449705502,2018_may._04_1624,60.006935481,Experimento Piloto1,001,107,
2.5,Stim\\02_075.jpg,Al75_8,Alegría,8,Estefanía despierta a las 7 a.m.,Afirmación,Al75,75,,,,,,,,,,,,,0,2,2,2,,,,,3,1.31686755966,2018_may._04_1624,60.006935481,Experimento Piloto1,001,107,
2.5,Stim\\03_075.jpg,Tr75_13,Tristeza,13,Rocío consume alimentos nutritivos.,Afirmación,Tr75,75,,,,,,,,,,,,,0,3,3,3,,,,,4,1.16646354987,2018_may._04_1624,60.006935481,Experimento Piloto1,001,107,
0.25,Stim\\03_019.jpg,Tr19_15,Tristeza,15,Ángel envía una carta a la abuela.,Afirmación,Tr19,19,,,,,,,,,,,,,0,4,4,4,,,,,3,0.433742348538,2018_may._04_1624,60.006935481,Experimento Piloto1,001,107,
2.5,Stim\\05_075.jpg,En75_11,Enojo,11,María asiste a la cena.,Afirmación,En75,75,,,,,,,,,,,,,0,5,5,5,,,,,2,0.850087308241,2018_may._04_1624,60.006935481,Experimento Piloto1,001,107,
0.25,Stim\\05_028.jpg,En28_4,Enojo,4,Jorge sustituye a Gustavo cada sábado.,Afirmación,En28,28,,,,,,,,,,,,,0,6,6,6,,,,,2,0.866282061179,2018_may._04_1624,60.006935481,Experimento Piloto1,001,107,
2.5,Stim\\05_028.jpg,En28_9,Enojo,9,Marco colabora en la organización del evento.,Afirmación,En28,28,,,,,,,,,,,,,0,7,7,7,,,,,2,0.700360701518,2018_may._04_1624,60.006935481,Experimento Piloto1,001,107,
2.5,Stim\\03_075.jpg,Tr75_9,Tristeza,9,Marco colabora en la organización del evento.,Afirmación,Tr75,75,,,,,,,,,,,,,0,8,8,8,,,,,4,0.766817602307,2018_may._04_1624,60.006935481,Experimento Piloto1,001,107,
2.5,Stim\\05_028.jpg,En28_15,Enojo,15,Ángel envía una carta a la abuela.,Afirmación,En28,28,,,,,,,,,,,,,0,9,9,9,,,,,2,0.700283054524,2018_may._04_1624,60.006935481,Experimento Piloto1,001,107,
0.25,Stim\\03_078.jpg,Tr78_8,Tristeza,8,Estefanía despierta a las 7 a.m.,Afirmación,Tr78,78,,,,,,,,,,,,,0,10,10,10,,,,,4,0.650267681314,2018_may._04_1624,60.006935481,Experimento Piloto1,001,107,
0.25,Stim\\02_075.jpg,Al75_1,Alegría,1,Juan colecciona monedas antiguas.,Afirmación,Al75,75,,,,,,,,,,,,,0,11,11,11,,,,,3,0.60011174027,2018_may._04_1624,60.006935481,Experimento Piloto1,001,107,
0.25,Stim\\05_078.jpg,En78_11,Enojo,11,María asiste a la cena.,Afirmación,En78,78,,,,,,,,,,,,,0,12,12,12,,,,,2,1.16661661262,2018_may._04_1624,60.006935481,Experimento Piloto1,001,107,
2.5,Stim\\03_028.jpg,Tr28_15,Tristeza,15,Ángel envía una carta a la abuela.,Afirmación,Tr28,28,,,,,,,,,,,,,0,13,13,13,,,,,4,0.700321431774,2018_may._04_1624,60.006935481,Experimento Piloto1,001,107,
2.5,Stim\\02_019.jpg,Al19_3,Alegría,3,Andrea diseña la portada del libro.,Afirmación,Al19,19,,,,,,,,,,,,,0,14,14,14,,,,,3,0.966846519117,2018_may._04_1624,60.006935481,Experimento Piloto1,001,107,
2.5,Stim\\05_019.jpg,En19_5,Enojo,5,Emilio revisa el formato del archivo.,Afirmación,En19,19,,,,,,,,,,,,,0,15,15,15,,,,,2,0.816787458316,2018_may._04_1624,60.006935481,Experimento Piloto1,001,107,
0.25,Stim\\02_028.jpg,Al28_11,Alegría,11,María asiste a la cena.,Afirmación,Al28,28,,,,,,,,,,,,,0,16,16,16,,,,,3,0.550216407526,2018_may._04_1624,60.006935481,Experimento Piloto1,001,107,
0.25,Stim\\03_019.jpg,Tr19_11,Tristeza,11,María asiste a la cena.,Afirmación,Tr19,19,,,,,,,,,,,,,0,17,17,17,,,,,3,0.55043596109,2018_may._04_1624,60.006935481,Experimento Piloto1,001,107,
2.5,Stim\\03_078.jpg,Tr78_14,Tristeza,14,Elizabeth elige la ropa un día antes.,Afirmación,Tr78,78,,,,,,,,,,,,,0,18,18,18,,,,,4,0.650190034321,2018_may._04_1624,60.006935481,Experimento Piloto1,001,107,
0.25,Stim\\02_019.jpg,Al19_9,Alegría,9,Marco colabora en la organización del evento.,Afirmación,Al19,19,,,,,,,,,,,,,0,19,19,19,,,,,4,1.11679267941,2018_may._04_1624,60.006935481,Experimento Piloto1,001,107,
2.5,Stim\\02_075.jpg,Al75_11,Alegría,11,María asiste a la cena.,Afirmación,Al75,75,,,,,,,,,,,,,0,20,20,20,,,,,3,0.550177584028,2018_may._04_1624,60.006935481,Experimento Piloto1,001,107,
0.25,Stim\\02_028.jpg,Al28_4,Alegría,4,Jorge sustituye a Gustavo cada sábado.,Afirmación,Al28,28,,,,,,,,,,,,,0,21,21,21,,,,,3,0.550394013866,2018_may._04_1624,60.006935481,Experimento Piloto1,001,107,
2.5,Stim\\02_075.jpg,Al75_10,Alegría,10,Laura finaliza la obra.,Afirmación,Al75,75,,,,,,,,,,,,,0,22,22,22,,,,,3,0.500281358789,2018_may._04_1624,60.006935481,Experimento Piloto1,001,107,
0.25,Stim\\05_075.jpg,En75_4,Enojo,4,Jorge sustituye a Gustavo cada sábado.,Afirmación,En75,75,,,,,,,,,,,,,0,23,23,23,,,,,4,1.06618067384,2018_may._04_1624,60.006935481,Experimento Piloto1,001,107,
2.5,Stim\\02_028.jpg,Al28_11,Alegría,11,María asiste a la cena.,Afirmación,Al28,28,,,,,,,,,,,,,0,24,24,24,,,,,3,0.550298516988,2018_may._04_1624,60.006935481,Experimento Piloto1,001,107,
0.25,Stim\\02_078.jpg,Al78_1,Alegría,1,Juan colecciona monedas antiguas.,Afirmación,Al78,78,,,,,,,,,,,,,0,25,25,25,,,,,3,0.600209468383,2018_may._04_1624,60.006935481,Experimento Piloto1,001,107,
2.5,Stim\\02_019.jpg,Al19_7,Alegría,7,Roberto contesta los cuestionarios solicitados.,Afirmación,Al19,19,,,,,,,,,,,,,0,26,26,26,,,,,3,1.11638704081,2018_may._04_1624,60.006935481,Experimento Piloto1,001,107,
0.25,Stim\\05_028.jpg,En28_15,Enojo,15,Ángel envía una carta a la abuela.,Afirmación,En28,28,,,,,,,,,,,,,0,27,27,27,,,,,2,0.500292068715,2018_may._04_1624,60.006935481,Experimento Piloto1,001,107,
0.25,Stim\\03_075.jpg,Tr75_2,Tristeza,2,Jonathan pasea al perro.,Afirmación,Tr75,75,,,,,,,,,,,,,0,28,28,28,,,,,4,0.600270157986,2018_may._04_1624,60.006935481,Experimento Piloto1,001,107,
0.25,Stim\\05_075.jpg,En75_3,Enojo,3,Andrea diseña la portada del libro.,Afirmación,En75,75,,,,,,,,,,,,,0,29,29,29,,,,,2,0.650289547419,2018_may._04_1624,60.006935481,Experimento Piloto1,001,107,
2.5,Stim\\05_028.jpg,En28_10,Enojo,10,Laura finaliza la obra.,Afirmación,En28,28,,,,,,,,,,,,,0,30,30,30,,,,,2,0.550281113348,2018_may._04_1624,60.006935481,Experimento Piloto1,001,107,
0.25,Stim\\05_019.jpg,En19_4,Enojo,4,Jorge sustituye a Gustavo cada sábado.,Afirmación,En19,19,,,,,,,,,,,,,0,31,31,31,,,,,2,0.550298070739,2018_may._04_1624,60.006935481,Experimento Piloto1,001,107,
2.5,Stim\\02_078.jpg,Al78_1,Alegría,1,Juan colecciona monedas antiguas.,Afirmación,Al78,78,,,,,,,,,,,,,0,32,32,32,,,,,3,0.80027229997,2018_may._04_1624,60.006935481,Experimento Piloto1,001,107,
0.25,Stim\\05_075.jpg,En75_6,Enojo,6,Eduardo camina hacia la biblioteca.,Afirmación,En75,75,,,,,,,,,,,,,0,33,33,33,,,,,2,1.21690776653,2018_may._04_1624,60.006935481,Experimento Piloto1,001,107,
2.5,Stim\\02_019.jpg,Al19_12,Alegría,12,Ana compra el libro.,Afirmación,Al19,19,,,,,,,,,,,,,0,34,34,34,,,,,3,1.7333463935,2018_may._04_1624,60.006935481,Experimento Piloto1,001,107,
0.25,Stim\\05_075.jpg,En75_8,Enojo,8,Estefanía despierta a las 7 a.m.,Afirmación,En75,75,,,,,,,,,,,,,0,35,35,35,,,,,2,0.7501739248,2018_may._04_1624,60.006935481,Experimento Piloto1,001,107,
2.5,Stim\\03_028.jpg,Tr28_4,Tristeza,4,Jorge sustituye a Gustavo cada sábado.,Afirmación,Tr28,28,,,,,,,,,,,,,0,36,36,36,,,,,4,0.50025324522,2018_may._04_1624,60.006935481,Experimento Piloto1,001,107,
0.25,Stim\\03_078.jpg,Tr78_12,Tristeza,12,Ana compra el libro.,Afirmación,Tr78,78,,,,,,,,,,,,,0,37,37,37,,,,,4,0.750148488718,2018_may._04_1624,60.006935481,Experimento Piloto1,001,107,
2.5,Stim\\03_019.jpg,Tr19_3,Tristeza,3,Andrea diseña la portada del libro.,Afirmación,Tr19,19,,,,,,,,,,,,,0,38,38,38,,,,,3,0.483684983472,2018_may._04_1624,60.006935481,Experimento Piloto1,001,107,
2.5,Stim\\05_075.jpg,En75_4,Enojo,4,Jorge sustituye a Gustavo cada sábado.,Afirmación,En75,75,,,,,,,,,,,,,0,39,39,39,,,,,2,0.449898724222,2018_may._04_1624,60.006935481,Experimento Piloto1,001,107,
0.25,Stim\\05_078.jpg,En78_6,Enojo,6,Eduardo camina hacia la biblioteca.,Afirmación,En78,78,,,,,,,,,,,,,0,40,40,40,,,,,2,0.450335600122,2018_may._04_1624,60.006935481,Experimento Piloto1,001,107,
0.25,Stim\\03_078.jpg,Tr78_3,Tristeza,3,Andrea diseña la portada del libro.,Afirmación,Tr78,78,,,,,,,,,,,,,0,41,41,41,,,,,4,0.65025607889,2018_may._04_1624,60.006935481,Experimento Piloto1,001,107,
0.25,Stim\\05_078.jpg,En78_15,Enojo,15,Ángel envía una carta a la abuela.,Afirmación,En78,78,,,,,,,,,,,,,0,42,42,42,,,,,2,0.533408064846,2018_may._04_1624,60.006935481,Experimento Piloto1,001,107,
2.5,Stim\\05_078.jpg,En78_2,Enojo,2,Jonathan pasea al perro.,Afirmación,En78,78,,,,,,,,,,,,,0,43,43,43,,,,,2,1.43306762294,2018_may._04_1624,60.006935481,Experimento Piloto1,001,107,
2.5,Stim\\02_078.jpg,Al78_4,Alegría,4,Jorge sustituye a Gustavo cada sábado.,Afirmación,Al78,78,,,,,,,,,,,,,0,44,44,44,,,,,3,0.750297088998,2018_may._04_1624,60.006935481,Experimento Piloto1,001,107,
2.5,Stim\\05_078.jpg,En78_4,Enojo,4,Jorge sustituye a Gustavo cada sábado.,Afirmación,En78,78,,,,,,,,,,,,,0,45,45,45,,,,,2,0.50036525324,2018_may._04_1624,60.006935481,Experimento Piloto1,001,107,
0.25,Stim\\05_019.jpg,En19_9,Enojo,9,Marco colabora en la organización del evento.,Afirmación,En19,19,,,,,,,,,,,,,0,46,46,46,,,,,2,0.433703971288,2018_may._04_1624,60.006935481,Experimento Piloto1,001,107,
0.25,Stim\\05_019.jpg,En19_15,Enojo,15,Ángel envía una carta a la abuela.,Afirmación,En19,19,,,,,,,,,,,,,0,47,47,47,,,,,2,0.600379488522,2018_may._04_1624,60.006935481,Experimento Piloto1,001,107,
2.5,Stim\\02_028.jpg,Al28_2,Alegría,2,Jonathan pasea al perro.,Afirmación,Al28,28,,,,,,,,,,,,,0,48,48,48,,,,,3,0.483766200439,2018_may._04_1624,60.006935481,Experimento Piloto1,001,107,
0.25,Stim\\03_075.jpg,Tr75_1,Tristeza,1,Juan colecciona monedas antiguas.,Afirmación,Tr75,75,,,,,,,,,,,,,0,49,49,49,,,,,4,0.450402090937,2018_may._04_1624,60.006935481,Experimento Piloto1,001,107,
2.5,Stim\\02_028.jpg,Al28_12,Alegría,12,Ana compra el libro.,Afirmación,Al28,28,,,,,,,,,,,,,0,50,50,50,,,,,3,0.550235596151,2018_may._04_1624,60.006935481,Experimento Piloto1,001,107,
0.25,Stim\\05_019.jpg,En19_5,Enojo,5,Emilio revisa el formato del archivo.,Afirmación,En19,19,,,,,,,,,,,,,0,51,51,51,,,,,2,0.550280667107,2018_may._04_1624,60.006935481,Experimento Piloto1,001,107,
0.25,Stim\\02_075.jpg,Al75_9,Alegría,9,Marco colabora en la organización del evento.,Afirmación,Al75,75,,,,,,,,,,,,,0,52,52,52,,,,,3,0.600334863811,2018_may._04_1624,60.006935481,Experimento Piloto1,001,107,
2.5,Stim\\03_019.jpg,Tr19_12,Tristeza,12,Ana compra el libro.,Afirmación,Tr19,19,,,,,,,,,,,,,0,53,53,53,,,,,3,0.400342093017,2018_may._04_1624,60.006935481,Experimento Piloto1,001,107,
2.5,Stim\\02_019.jpg,Al19_4,Alegría,4,Jorge sustituye a Gustavo cada sábado.,Afirmación,Al19,19,,,,,,,,,,,,,0,54,54,54,,,,,3,0.50025056774,2018_may._04_1624,60.006935481,Experimento Piloto1,001,107,
0.25,Stim\\02_019.jpg,Al19_12,Alegría,12,Ana compra el libro.,Afirmación,Al19,19,,,,,,,,,,,,,0,55,55,55,,,,,3,0.550558679039,2018_may._04_1624,60.006935481,Experimento Piloto1,001,107,
2.5,Stim\\02_078.jpg,Al78_7,Alegría,7,Roberto contesta los cuestionarios solicitados.,Afirmación,Al78,78,,,,,,,,,,,,,0,56,56,56,,,,,3,0.500498234869,2018_may._04_1624,60.006935481,Experimento Piloto1,001,107,
2.5,Stim\\03_078.jpg,Tr78_13,Tristeza,13,Rocío consume alimentos nutritivos.,Afirmación,Tr78,78,,,,,,,,,,,,,0,57,57,57,,,,,4,0.600343342507,2018_may._04_1624,60.006935481,Experimento Piloto1,001,107,
2.5,Stim\\02_075.jpg,Al75_9,Alegría,9,Marco colabora en la organización del evento.,Afirmación,Al75,75,,,,,,,,,,,,,0,58,58,58,,,,,3,0.433819549282,2018_may._04_1624,60.006935481,Experimento Piloto1,001,107,
0.25,Stim\\02_028.jpg,Al28_5,Alegría,5,Emilio revisa el formato del archivo.,Afirmación,Al28,28,,,,,,,,,,,,,0,59,59,59,,,,,3,0.600460705489,2018_may._04_1624,60.006935481,Experimento Piloto1,001,107,
2.5,Stim\\03_028.jpg,Tr28_7,Tristeza,7,Roberto contesta los cuestionarios solicitados.,Afirmación,Tr28,28,,,,,,,,,,,,,0,60,60,60,,,,,4,0.60005506689,2018_may._04_1624,60.006935481,Experimento Piloto1,001,107,
0.25,Stim\\05_078.jpg,En78_7,Enojo,7,Roberto contesta los cuestionarios solicitados.,Afirmación,En78,78,,,,,,,,,,,,,0,61,61,61,,,,,2,0.500390689322,2018_may._04_1624,60.006935481,Experimento Piloto1,001,107,
2.5,Stim\\03_028.jpg,Tr28_5,Tristeza,5,Emilio revisa el formato del archivo.,Afirmación,Tr28,28,,,,,,,,,,,,,0,62,62,62,,,,,4,0.549933486873,2018_may._04_1624,60.006935481,Experimento Piloto1,001,107,
0.25,Stim\\02_019.jpg,Al19_13,Alegría,13,Rocío consume alimentos nutritivos.,Afirmación,Al19,19,,,,,,,,,,,,,0,63,63,63,,,,,3,1.00020259618,2018_may._04_1624,60.006935481,Experimento Piloto1,001,107,
2.5,Stim\\05_019.jpg,En19_13,Enojo,13,Rocío consume alimentos nutritivos.,Afirmación,En19,19,,,,,,,,,,,,,0,64,64,64,,,,,2,0.433659792827,2018_may._04_1624,60.006935481,Experimento Piloto1,001,107,
2.5,Stim\\03_078.jpg,Tr78_4,Tristeza,4,Jorge sustituye a Gustavo cada sábado.,Afirmación,Tr78,78,,,,,,,,,,,,,0,65,65,65,,,,,4,0.383884054299,2018_may._04_1624,60.006935481,Experimento Piloto1,001,107,
0.25,Stim\\05_028.jpg,En28_13,Enojo,13,Rocío consume alimentos nutritivos.,Afirmación,En28,28,,,,,,,,,,,,,0,66,66,66,,,,,2,1.4668141662,2018_may._04_1624,60.006935481,Experimento Piloto1,001,107,
0.25,Stim\\02_075.jpg,Al75_4,Alegría,4,Jorge sustituye a Gustavo cada sábado.,Afirmación,Al75,75,,,,,,,,,,,,,0,67,67,67,,,,,3,0.550478800807,2018_may._04_1624,60.006935481,Experimento Piloto1,001,107,
0.25,Stim\\03_019.jpg,Tr19_14,Tristeza,14,Elizabeth elige la ropa un día antes.,Afirmación,Tr19,19,,,,,,,,,,,,,0,68,68,68,,,,,3,0.450361036204,2018_may._04_1624,60.006935481,Experimento Piloto1,001,107,
2.5,Stim\\02_075.jpg,Al75_4,Alegría,4,Jorge sustituye a Gustavo cada sábado.,Afirmación,Al75,75,,,,,,,,,,,,,0,69,69,69,,,,,3,0.450433774477,2018_may._04_1624,60.006935481,Experimento Piloto1,001,107,
2.5,Stim\\05_078.jpg,En78_7,Enojo,7,Roberto contesta los cuestionarios solicitados.,Afirmación,En78,78,,,,,,,,,,,,,0,70,70,70,,,,,2,0.500299654919,2018_may._04_1624,60.006935481,Experimento Piloto1,001,107,
2.5,Stim\\05_028.jpg,En28_6,Enojo,6,Eduardo camina hacia la biblioteca.,Afirmación,En28,28,,,,,,,,,,,,,0,71,71,71,,,,,2,1.00027131823,2018_may._04_1624,60.006935481,Experimento Piloto1,001,107,
2.5,Stim\\05_028.jpg,En28_7,Enojo,7,Roberto contesta los cuestionarios solicitados.,Afirmación,En28,28,,,,,,,,,,,,,0,72,72,72,,,,,2,0.349898768851,2018_may._04_1624,60.006935481,Experimento Piloto1,001,107,
2.5,Stim\\03_028.jpg,Tr28_14,Tristeza,14,Elizabeth elige la ropa un día antes.,Afirmación,Tr28,28,,,,,,,,,,,,,0,73,73,73,,,,,4,0.55040695503,2018_may._04_1624,60.006935481,Experimento Piloto1,001,107,
2.5,Stim\\02_019.jpg,Al19_11,Alegría,11,María asiste a la cena.,Afirmación,Al19,19,,,,,,,,,,,,,0,74,74,74,,,,,3,0.550342695449,2018_may._04_1624,60.006935481,Experimento Piloto1,001,107,
0.25,Stim\\05_028.jpg,En28_7,Enojo,7,Roberto contesta los cuestionarios solicitados.,Afirmación,En28,28,,,,,,,,,,,,,0,75,75,75,,,,,2,0.750071287974,2018_may._04_1624,60.006935481,Experimento Piloto1,001,107,
0.25,Stim\\05_078.jpg,En78_13,Enojo,13,Rocío consume alimentos nutritivos.,Afirmación,En78,78,,,,,,,,,,,,,0,76,76,76,,,,,2,0.650208776697,2018_may._04_1624,60.006935481,Experimento Piloto1,001,107,
0.25,Stim\\03_028.jpg,Tr28_14,Tristeza,14,Elizabeth elige la ropa un día antes.,Afirmación,Tr28,28,,,,,,,,,,,,,0,77,77,77,,,,,4,0.650099892409,2018_may._04_1624,60.006935481,Experimento Piloto1,001,107,
2.5,Stim\\03_075.jpg,Tr75_14,Tristeza,14,Elizabeth elige la ropa un día antes.,Afirmación,Tr75,75,,,,,,,,,,,,,0,78,78,78,,,,,4,1.16683661243,2018_may._04_1624,60.006935481,Experimento Piloto1,001,107,
0.25,Stim\\05_019.jpg,En19_10,Enojo,10,Laura finaliza la obra.,Afirmación,En19,19,,,,,,,,,,,,,0,79,79,79,,,,,2,0.549969632888,2018_may._04_1624,60.006935481,Experimento Piloto1,001,107,
0.25,Stim\\05_078.jpg,En78_9,Enojo,9,Marco colabora en la organización del evento.,Afirmación,En78,78,,,,,,,,,,,,,0,80,80,80,,,,,2,0.433665594035,2018_may._04_1624,60.006935481,Experimento Piloto1,001,107,
0.25,Stim\\02_028.jpg,Al28_6,Alegría,6,Eduardo camina hacia la biblioteca.,Afirmación,Al28,28,,,,,,,,,,,,,0,81,81,81,,,,,3,0.900156677351,2018_may._04_1624,60.006935481,Experimento Piloto1,001,107,
0.25,Stim\\05_078.jpg,En78_12,Enojo,12,Ana compra el libro.,Afirmación,En78,78,,,,,,,,,,,,,0,82,82,82,,,,,2,0.500272880094,2018_may._04_1624,60.006935481,Experimento Piloto1,001,107,
2.5,Stim\\05_075.jpg,En75_1,Enojo,1,Juan colecciona monedas antiguas.,Afirmación,En75,75,,,,,,,,,,,,,0,83,83,83,,,,,2,0.600328170109,2018_may._04_1624,60.006935481,Experimento Piloto1,001,107,
0.25,Stim\\03_019.jpg,Tr19_13,Tristeza,13,Rocío consume alimentos nutritivos.,Afirmación,Tr19,19,,,,,,,,,,,,,0,84,84,84,,,,,3,0.383842107069,2018_may._04_1624,60.006935481,Experimento Piloto1,001,107,
2.5,Stim\\03_078.jpg,Tr78_11,Tristeza,11,María asiste a la cena.,Afirmación,Tr78,78,,,,,,,,,,,,,0,85,85,85,,,,,4,0.550306103185,2018_may._04_1624,60.006935481,Experimento Piloto1,001,107,
2.5,Stim\\05_019.jpg,En19_1,Enojo,1,Juan colecciona monedas antiguas.,Afirmación,En19,19,,,,,,,,,,,,,0,86,86,86,,,,,2,1.83351012155,2018_may._04_1624,60.006935481,Experimento Piloto1,001,107,
0.25,Stim\\02_075.jpg,Al75_10,Alegría,10,Laura finaliza la obra.,Afirmación,Al75,75,,,,,,,,,,,,,0,87,87,87,,,,,3,0.500086348809,2018_may._04_1624,60.006935481,Experimento Piloto1,001,107,
2.5,Stim\\02_019.jpg,Al19_14,Alegría,14,Elizabeth elige la ropa un día antes.,Afirmación,Al19,19,,,,,,,,,,,,,0,88,88,88,,,,,3,0.600343788752,2018_may._04_1624,60.006935481,Experimento Piloto1,001,107,
0.25,Stim\\03_028.jpg,Tr28_6,Tristeza,6,Eduardo camina hacia la biblioteca.,Afirmación,Tr28,28,,,,,,,,,,,,,0,89,89,89,,,,,4,0.0338862185963,2018_may._04_1624,60.006935481,Experimento Piloto1,001,107,
0.25,Stim\\02_075.jpg,Al75_8,Alegría,8,Estefanía despierta a las 7 a.m.,Afirmación,Al75,75,,,,,,,,,,,,,0,90,90,90,,,,,3,0.900074121641,2018_may._04_1624,60.006935481,Experimento Piloto1,001,107,
2.5,Stim\\02_019.jpg,Al19_6,Alegría,6,Eduardo camina hacia la biblioteca.,Afirmación,Al19,19,,,,,,,,,,,,,0,91,91,91,,,,,3,0.500277788811,2018_may._04_1624,60.006935481,Experimento Piloto1,001,107,
2.5,Stim\\03_078.jpg,Tr78_7,Tristeza,7,Roberto contesta los cuestionarios solicitados.,Afirmación,Tr78,78,,,,,,,,,,,,,0,92,92,92,,,,,4,1.16692363061,2018_may._04_1624,60.006935481,Experimento Piloto1,001,107,
2.5,Stim\\02_028.jpg,Al28_8,Alegría,8,Estefanía despierta a las 7 a.m.,Afirmación,Al28,28,,,,,,,,,,,,,0,93,93,93,,,,,3,0.550372147758,2018_may._04_1624,60.006935481,Experimento Piloto1,001,107,
0.25,Stim\\03_075.jpg,Tr75_13,Tristeza,13,Rocío consume alimentos nutritivos.,Afirmación,Tr75,75,,,,,,,,,,,,,0,94,94,94,,,,,4,0.65018378686,2018_may._04_1624,60.006935481,Experimento Piloto1,001,107,
2.5,Stim\\02_075.jpg,Al75_6,Alegría,6,Eduardo camina hacia la biblioteca.,Afirmación,Al75,75,,,,,,,,,,,,,0,95,95,95,,,,,3,0.5001952331,2018_may._04_1624,60.006935481,Experimento Piloto1,001,107,
0.25,Stim\\02_028.jpg,Al28_9,Alegría,9,Marco colabora en la organización del evento.,Afirmación,Al28,28,,,,,,,,,,,,,0,96,96,96,,,,,3,0.650586747979,2018_may._04_1624,60.006935481,Experimento Piloto1,001,107,
0.25,Stim\\02_019.jpg,Al19_8,Alegría,8,Estefanía despierta a las 7 a.m.,Afirmación,Al19,19,,,,,,,,,,,,,0,97,97,97,,,,,3,0.650190926815,2018_may._04_1624,60.006935481,Experimento Piloto1,001,107,
2.5,Stim\\02_019.jpg,Al19_1,Alegría,1,Juan colecciona monedas antiguas.,Afirmación,Al19,19,,,,,,,,,,,,,0,98,98,98,,,,,3,0.767183078668,2018_may._04_1624,60.006935481,Experimento Piloto1,001,107,
0.25,Stim\\02_019.jpg,Al19_5,Alegría,5,Emilio revisa el formato del archivo.,Afirmación,Al19,19,,,,,,,,,,,,,0,99,99,99,,,,,3,0.850284103206,2018_may._04_1624,60.006935481,Experimento Piloto1,001,107,
2.5,Stim\\02_078.jpg,Al78_13,Alegría,13,Rocío consume alimentos nutritivos.,Afirmación,Al78,78,,,,,,,,,,,,,0,100,100,100,,,,,3,0.550252107289,2018_may._04_1624,60.006935481,Experimento Piloto1,001,107,
2.5,Stim\\05_078.jpg,En78_12,Enojo,12,Ana compra el libro.,Afirmación,En78,78,,,,,,,,,,,,,0,101,101,101,,,,,2,0.800609662769,2018_may._04_1624,60.006935481,Experimento Piloto1,001,107,
2.5,Stim\\03_075.jpg,Tr75_11,Tristeza,11,María asiste a la cena.,Afirmación,Tr75,75,,,,,,,,,,,,,0,102,102,102,,,,,4,0.549914744497,2018_may._04_1624,60.006935481,Experimento Piloto1,001,107,
0.25,Stim\\02_078.jpg,Al78_13,Alegría,13,Rocío consume alimentos nutritivos.,Afirmación,Al78,78,,,,,,,,,,,,,0,103,103,103,,,,,2,0.65020074425,2018_may._04_1624,60.006935481,Experimento Piloto1,001,107,
0.25,Stim\\03_075.jpg,Tr75_11,Tristeza,11,María asiste a la cena.,Afirmación,Tr75,75,,,,,,,,,,,,,0,104,104,104,,,,,3,0.28366856158,2018_may._04_1624,60.006935481,Experimento Piloto1,001,107,
2.5,Stim\\05_075.jpg,En75_8,Enojo,8,Estefanía despierta a las 7 a.m.,Afirmación,En75,75,,,,,,,,,,,,,0,105,105,105,,,,,2,0.716604987883,2018_may._04_1624,60.006935481,Experimento Piloto1,001,107,
2.5,Stim\\03_078.jpg,Tr78_2,Tristeza,2,Jonathan pasea al perro.,Afirmación,Tr78,78,,,,,,,,,,,,,0,106,106,106,,,,,4,0.550225332463,2018_may._04_1624,60.006935481,Experimento Piloto1,001,107,
2.5,Stim\\03_078.jpg,Tr78_12,Tristeza,12,Ana compra el libro.,Afirmación,Tr78,78,,,,,,,,,,,,,0,107,107,107,,,,,4,0.450377101097,2018_may._04_1624,60.006935481,Experimento Piloto1,001,107,
2.5,Stim\\05_019.jpg,En19_10,Enojo,10,Laura finaliza la obra.,Afirmación,En19,19,,,,,,,,,,,,,0,108,108,108,,,,,2,0.450356573732,2018_may._04_1624,60.006935481,Experimento Piloto1,001,107,
2.5,Stim\\05_078.jpg,En78_15,Enojo,15,Ángel envía una carta a la abuela.,Afirmación,En78,78,,,,,,,,,,,,,0,109,109,109,,,,,2,0.600251861855,2018_may._04_1624,60.006935481,Experimento Piloto1,001,107,
0.25,Stim\\02_028.jpg,Al28_15,Alegría,15,Ángel envía una carta a la abuela.,Afirmación,Al28,28,,,,,,,,,,,,,0,110,110,110,,,,,3,0.500209513008,2018_may._04_1624,60.006935481,Experimento Piloto1,001,107,
2.5,Stim\\02_075.jpg,Al75_13,Alegría,13,Rocío consume alimentos nutritivos.,Afirmación,Al75,75,,,,,,,,,,,,,0,111,111,111,,,,,3,0.483602427765,2018_may._04_1624,60.006935481,Experimento Piloto1,001,107,
2.5,Stim\\02_078.jpg,Al78_5,Alegría,5,Emilio revisa el formato del archivo.,Afirmación,Al78,78,,,,,,,,,,,,,0,112,112,112,,,,,3,0.650227519076,2018_may._04_1624,60.006935481,Experimento Piloto1,001,107,
2.5,Stim\\05_019.jpg,En19_12,Enojo,12,Ana compra el libro.,Afirmación,En19,19,,,,,,,,,,,,,0,113,113,113,,,,,2,0.450292314155,2018_may._04_1624,60.006935481,Experimento Piloto1,001,107,
2.5,Stim\\03_028.jpg,Tr28_13,Tristeza,13,Rocío consume alimentos nutritivos.,Afirmación,Tr28,28,,,,,,,,,,,,,0,114,114,114,,,,,4,0.850189945071,2018_may._04_1624,60.006935481,Experimento Piloto1,001,107,
2.5,Stim\\02_075.jpg,Al75_1,Alegría,1,Juan colecciona monedas antiguas.,Afirmación,Al75,75,,,,,,,,,,,,,0,115,115,115,,,,,3,0.700441918489,2018_may._04_1624,60.006935481,Experimento Piloto1,001,107,
2.5,Stim\\02_028.jpg,Al28_3,Alegría,3,Andrea diseña la portada del libro.,Afirmación,Al28,28,,,,,,,,,,,,,0,116,116,116,,,,,3,0.750629096827,2018_may._04_1624,60.006935481,Experimento Piloto1,001,107,
0.25,Stim\\05_028.jpg,En28_10,Enojo,10,Laura finaliza la obra.,Afirmación,En28,28,,,,,,,,,,,,,0,117,117,117,,,,,2,0.550311011906,2018_may._04_1624,60.006935481,Experimento Piloto1,001,107,
0.25,Stim\\02_078.jpg,Al78_3,Alegría,3,Andrea diseña la portada del libro.,Afirmación,Al78,78,,,,,,,,,,,,,0,118,118,118,,,,,3,0.500403630489,2018_may._04_1624,60.006935481,Experimento Piloto1,001,107,
2.5,Stim\\03_075.jpg,Tr75_15,Tristeza,15,Ángel envía una carta a la abuela.,Afirmación,Tr75,75,,,,,,,,,,,,,0,119,119,119,,,,,4,0.500153732119,2018_may._04_1624,60.006935481,Experimento Piloto1,001,107,
