Tiempo,ImagenesE,ClaveEn,Emocion,NumEn,Enunciado,ActoHabla,Clave,Cara,trials.thisRepN,trials.thisTrialN,trials.thisN,trials.thisIndex,Bloque2.thisRepN,Bloque2.thisTrialN,Bloque2.thisN,Bloque2.thisIndex,Bloque3.thisRepN,Bloque3.thisTrialN,Bloque3.thisN,Bloque3.thisIndex,Bloque1.thisRepN,Bloque1.thisTrialN,Bloque1.thisN,Bloque1.thisIndex,Resp_Bloque2.keys,Resp_Bloque2.rt,Resp_Bloque3.keys,Resp_Bloque3.rt,Resp_Bloque1.keys,Resp_Bloque1.rt,date,frameRate,expName,session,participant,
2.5,Stim\\03_028.jpg,Tr28_1,Tristeza,1,Juan colecciona monedas antiguas.,Afirmación,Tr28,28,,,,,0,0,0,0,,,,,,,,,4,2.64964873661,,,,,2018_may._04_1847,60.0029185971,Experimento Piloto1,001,108,
0.25,Stim\\03_019.jpg,Tr19_1,Tristeza,1,Juan colecciona monedas antiguas.,Afirmación,Tr19,19,,,,,0,1,1,1,,,,,,,,,3,2.39971422337,,,,,2018_may._04_1847,60.0029185971,Experimento Piloto1,001,108,
2.5,Stim\\03_078.jpg,Tr78_10,Tristeza,10,Laura finaliza la obra.,Afirmación,Tr78,78,,,,,0,2,2,2,,,,,,,,,3,0.800268283747,,,,,2018_may._04_1847,60.0029185971,Experimento Piloto1,001,108,
0.25,Stim\\02_075.jpg,Al75_5,Alegría,5,Emilio revisa el formato del archivo.,Afirmación,Al75,75,,,,,0,3,3,3,,,,,,,,,3,1.68324355586,,,,,2018_may._04_1847,60.0029185971,Experimento Piloto1,001,108,
0.25,Stim\\02_019.jpg,Al19_15,Alegría,15,Ángel envía una carta a la abuela.,Afirmación,Al19,19,,,,,0,4,4,4,,,,,,,,,3,1.3164177426,,,,,2018_may._04_1847,60.0029185971,Experimento Piloto1,001,108,
2.5,Stim\\02_075.jpg,Al75_7,Alegría,7,Roberto contesta los cuestionarios solicitados.,Afirmación,Al75,75,,,,,0,5,5,5,,,,,,,,,2,0.850434488471,,,,,2018_may._04_1847,60.0029185971,Experimento Piloto1,001,108,
0.25,Stim\\03_075.jpg,Tr75_8,Tristeza,8,Estefanía despierta a las 7 a.m.,Afirmación,Tr75,75,,,,,0,6,6,6,,,,,,,,,3,0.866568105561,,,,,2018_may._04_1847,60.0029185971,Experimento Piloto1,001,108,
0.25,Stim\\02_019.jpg,Al19_11,Alegría,11,María asiste a la cena.,Afirmación,Al19,19,,,,,0,7,7,7,,,,,,,,,2,2.50008858004,,,,,2018_may._04_1847,60.0029185971,Experimento Piloto1,001,108,
2.5,Stim\\02_019.jpg,Al19_2,Alegría,2,Jonathan pasea al perro.,Afirmación,Al19,19,,,,,0,8,8,8,,,,,,,,,4,1.78323190881,,,,,2018_may._04_1847,60.0029185971,Experimento Piloto1,001,108,
2.5,Stim\\05_075.jpg,En75_5,Enojo,5,Emilio revisa el formato del archivo.,Afirmación,En75,75,,,,,0,9,9,9,,,,,,,,,3,4.94893192991,,,,,2018_may._04_1847,60.0029185971,Experimento Piloto1,001,108,
0.25,Stim\\03_078.jpg,Tr78_10,Tristeza,10,Laura finaliza la obra.,Afirmación,Tr78,78,,,,,0,10,10,10,,,,,,,,,3,1.68334708518,,,,,2018_may._04_1847,60.0029185971,Experimento Piloto1,001,108,
0.25,Stim\\02_019.jpg,Al19_6,Alegría,6,Eduardo camina hacia la biblioteca.,Afirmación,Al19,19,,,,,0,11,11,11,,,,,,,,,3,0.917010090987,,,,,2018_may._04_1847,60.0029185971,Experimento Piloto1,001,108,
2.5,Stim\\05_019.jpg,En19_3,Enojo,3,Andrea diseña la portada del libro.,Afirmación,En19,19,,,,,0,12,12,12,,,,,,,,,2,0.700218348698,,,,,2018_may._04_1847,60.0029185971,Experimento Piloto1,001,108,
0.25,Stim\\05_019.jpg,En19_3,Enojo,3,Andrea diseña la portada del libro.,Afirmación,En19,19,,,,,0,13,13,13,,,,,,,,,2,1.31664354363,,,,,2018_may._04_1847,60.0029185971,Experimento Piloto1,001,108,
2.5,Stim\\02_028.jpg,Al28_1,Alegría,1,Juan colecciona monedas antiguas.,Afirmación,Al28,28,,,,,0,14,14,14,,,,,,,,,3,1.21671007907,,,,,2018_may._04_1847,60.0029185971,Experimento Piloto1,001,108,
0.25,Stim\\02_019.jpg,Al19_2,Alegría,2,Jonathan pasea al perro.,Afirmación,Al19,19,,,,,0,15,15,15,,,,,,,,,3,5.09898652825,,,,,2018_may._04_1847,60.0029185971,Experimento Piloto1,001,108,
0.25,Stim\\05_028.jpg,En28_11,Enojo,11,María asiste a la cena.,Afirmación,En28,28,,,,,0,16,16,16,,,,,,,,,3,4.24920891548,,,,,2018_may._04_1847,60.0029185971,Experimento Piloto1,001,108,
0.25,Stim\\03_028.jpg,Tr28_1,Tristeza,1,Juan colecciona monedas antiguas.,Afirmación,Tr28,28,,,,,0,17,17,17,,,,,,,,,3,5.01560570679,,,,,2018_may._04_1847,60.0029185971,Experimento Piloto1,001,108,
0.25,Stim\\03_078.jpg,Tr78_1,Tristeza,1,Juan colecciona monedas antiguas.,Afirmación,Tr78,78,,,,,0,18,18,18,,,,,,,,,3,2.24972254587,,,,,2018_may._04_1847,60.0029185971,Experimento Piloto1,001,108,
0.25,Stim\\02_019.jpg,Al19_1,Alegría,1,Juan colecciona monedas antiguas.,Afirmación,Al19,19,,,,,0,19,19,19,,,,,,,,,3,0.900295460197,,,,,2018_may._04_1847,60.0029185971,Experimento Piloto1,001,108,
0.25,Stim\\02_019.jpg,Al19_10,Alegría,10,Laura finaliza la obra.,Afirmación,Al19,19,,,,,0,20,20,20,,,,,,,,,2,5.2654755142,,,,,2018_may._04_1847,60.0029185971,Experimento Piloto1,001,108,
2.5,Stim\\03_019.jpg,Tr19_13,Tristeza,13,Rocío consume alimentos nutritivos.,Afirmación,Tr19,19,,,,,0,21,21,21,,,,,,,,,2,1.26689770366,,,,,2018_may._04_1847,60.0029185971,Experimento Piloto1,001,108,
2.5,Stim\\05_075.jpg,En75_6,Enojo,6,Eduardo camina hacia la biblioteca.,Afirmación,En75,75,,,,,0,22,22,22,,,,,,,,,2,1.25029954336,,,,,2018_may._04_1847,60.0029185971,Experimento Piloto1,001,108,
0.25,Stim\\05_078.jpg,En78_10,Enojo,10,Laura finaliza la obra.,Afirmación,En78,78,,,,,0,23,23,23,,,,,,,,,3,0.850291689407,,,,,2018_may._04_1847,60.0029185971,Experimento Piloto1,001,108,
2.5,Stim\\05_075.jpg,En75_14,Enojo,14,Elizabeth elige la ropa un día antes.,Afirmación,En75,75,,,,,0,24,24,24,,,,,,,,,2,2.79956499834,,,,,2018_may._04_1847,60.0029185971,Experimento Piloto1,001,108,
0.25,Stim\\05_019.jpg,En19_7,Enojo,7,Roberto contesta los cuestionarios solicitados.,Afirmación,En19,19,,,,,0,25,25,25,,,,,,,,,2,2.81632470009,,,,,2018_may._04_1847,60.0029185971,Experimento Piloto1,001,108,
0.25,Stim\\02_078.jpg,Al78_14,Alegría,14,Elizabeth elige la ropa un día antes.,Afirmación,Al78,78,,,,,0,26,26,26,,,,,,,,,3,0.800241508925,,,,,2018_may._04_1847,60.0029185971,Experimento Piloto1,001,108,
0.25,Stim\\03_028.jpg,Tr28_13,Tristeza,13,Rocío consume alimentos nutritivos.,Afirmación,Tr28,28,,,,,0,27,27,27,,,,,,,,,4,3.01625722753,,,,,2018_may._04_1847,60.0029185971,Experimento Piloto1,001,108,
2.5,Stim\\03_019.jpg,Tr19_8,Tristeza,8,Estefanía despierta a las 7 a.m.,Afirmación,Tr19,19,,,,,0,28,28,28,,,,,,,,,3,1.11690959614,,,,,2018_may._04_1847,60.0029185971,Experimento Piloto1,001,108,
2.5,Stim\\02_019.jpg,Al19_8,Alegría,8,Estefanía despierta a las 7 a.m.,Afirmación,Al19,19,,,,,0,29,29,29,,,,,,,,,3,1.56670211356,,,,,2018_may._04_1847,60.0029185971,Experimento Piloto1,001,108,
2.5,Stim\\02_028.jpg,Al28_9,Alegría,9,Marco colabora en la organización del evento.,Afirmación,Al28,28,,,,,0,30,30,30,,,,,,,,,3,1.31666808722,,,,,2018_may._04_1847,60.0029185971,Experimento Piloto1,001,108,
2.5,Stim\\03_075.jpg,Tr75_1,Tristeza,1,Juan colecciona monedas antiguas.,Afirmación,Tr75,75,,,,,0,31,31,31,,,,,,,,,4,2.49958030462,,,,,2018_may._04_1847,60.0029185971,Experimento Piloto1,001,108,
2.5,Stim\\05_078.jpg,En78_8,Enojo,8,Estefanía despierta a las 7 a.m.,Afirmación,En78,78,,,,,0,32,32,32,,,,,,,,,3,0.749598266062,,,,,2018_may._04_1847,60.0029185971,Experimento Piloto1,001,108,
0.25,Stim\\02_028.jpg,Al28_12,Alegría,12,Ana compra el libro.,Afirmación,Al28,28,,,,,0,33,33,33,,,,,,,,,3,1.15015366518,,,,,2018_may._04_1847,60.0029185971,Experimento Piloto1,001,108,
0.25,Stim\\05_075.jpg,En75_1,Enojo,1,Juan colecciona monedas antiguas.,Afirmación,En75,75,,,,,0,34,34,34,,,,,,,,,3,2.24977341804,,,,,2018_may._04_1847,60.0029185971,Experimento Piloto1,001,108,
0.25,Stim\\03_028.jpg,Tr28_4,Tristeza,4,Jorge sustituye a Gustavo cada sábado.,Afirmación,Tr28,28,,,,,0,35,35,35,,,,,,,,,3,2.28316653361,,,,,2018_may._04_1847,60.0029185971,Experimento Piloto1,001,108,
2.5,Stim\\03_078.jpg,Tr78_3,Tristeza,3,Andrea diseña la portada del libro.,Afirmación,Tr78,78,,,,,0,36,36,36,,,,,,,,,4,2.28313618881,,,,,2018_may._04_1847,60.0029185971,Experimento Piloto1,001,108,
0.25,Stim\\05_078.jpg,En78_4,Enojo,4,Jorge sustituye a Gustavo cada sábado.,Afirmación,En78,78,,,,,0,37,37,37,,,,,,,,,2,1.7166326552,,,,,2018_may._04_1847,60.0029185971,Experimento Piloto1,001,108,
2.5,Stim\\03_019.jpg,Tr19_7,Tristeza,7,Roberto contesta los cuestionarios solicitados.,Afirmación,Tr19,19,,,,,0,38,38,38,,,,,,,,,2,1.71679732038,,,,,2018_may._04_1847,60.0029185971,Experimento Piloto1,001,108,
0.25,Stim\\02_078.jpg,Al78_2,Alegría,2,Jonathan pasea al perro.,Afirmación,Al78,78,,,,,0,39,39,39,,,,,,,,,3,0.700126868047,,,,,2018_may._04_1847,60.0029185971,Experimento Piloto1,001,108,
0.25,Stim\\02_078.jpg,Al78_5,Alegría,5,Emilio revisa el formato del archivo.,Afirmación,Al78,78,,,,,0,40,40,40,,,,,,,,,3,0.650243583972,,,,,2018_may._04_1847,60.0029185971,Experimento Piloto1,001,108,
2.5,Stim\\05_019.jpg,En19_11,Enojo,11,María asiste a la cena.,Afirmación,En19,19,,,,,0,41,41,41,,,,,,,,,2,0.850234569778,,,,,2018_may._04_1847,60.0029185971,Experimento Piloto1,001,108,
2.5,Stim\\02_028.jpg,Al28_15,Alegría,15,Ángel envía una carta a la abuela.,Afirmación,Al28,28,,,,,0,42,42,42,,,,,,,,,3,0.600246953138,,,,,2018_may._04_1847,60.0029185971,Experimento Piloto1,001,108,
0.25,Stim\\03_019.jpg,Tr19_4,Tristeza,4,Jorge sustituye a Gustavo cada sábado.,Afirmación,Tr19,19,,,,,0,43,43,43,,,,,,,,,2,2.4334879877,,,,,2018_may._04_1847,60.0029185971,Experimento Piloto1,001,108,
2.5,Stim\\02_075.jpg,Al75_12,Alegría,12,Ana compra el libro.,Afirmación,Al75,75,,,,,0,44,44,44,,,,,,,,,3,0.700511979278,,,,,2018_may._04_1847,60.0029185971,Experimento Piloto1,001,108,
2.5,Stim\\05_028.jpg,En28_12,Enojo,12,Ana compra el libro.,Afirmación,En28,28,,,,,0,45,45,45,,,,,,,,,2,2.99953947301,,,,,2018_may._04_1847,60.0029185971,Experimento Piloto1,001,108,
0.25,Stim\\02_028.jpg,Al28_14,Alegría,14,Elizabeth elige la ropa un día antes.,Afirmación,Al28,28,,,,,0,46,46,46,,,,,,,,,3,1.26676025955,,,,,2018_may._04_1847,60.0029185971,Experimento Piloto1,001,108,
2.5,Stim\\03_075.jpg,Tr75_6,Tristeza,6,Eduardo camina hacia la biblioteca.,Afirmación,Tr75,75,,,,,0,47,47,47,,,,,,,,,4,1.21685287814,,,,,2018_may._04_1847,60.0029185971,Experimento Piloto1,001,108,
0.25,Stim\\05_028.jpg,En28_8,Enojo,8,Estefanía despierta a las 7 a.m.,Afirmación,En28,28,,,,,0,48,48,48,,,,,,,,,2,1.93328472215,,,,,2018_may._04_1847,60.0029185971,Experimento Piloto1,001,108,
2.5,Stim\\05_019.jpg,En19_7,Enojo,7,Roberto contesta los cuestionarios solicitados.,Afirmación,En19,19,,,,,0,49,49,49,,,,,,,,,2,1.2001150425,,,,,2018_may._04_1847,60.0029185971,Experimento Piloto1,001,108,
2.5,Stim\\02_019.jpg,Al19_10,Alegría,10,Laura finaliza la obra.,Afirmación,Al19,19,,,,,0,50,50,50,,,,,,,,,3,0.916560273927,,,,,2018_may._04_1847,60.0029185971,Experimento Piloto1,001,108,
0.25,Stim\\05_028.jpg,En28_14,Enojo,14,Elizabeth elige la ropa un día antes.,Afirmación,En28,28,,,,,0,51,51,51,,,,,,,,,3,1.0668902067,,,,,2018_may._04_1847,60.0029185971,Experimento Piloto1,001,108,
2.5,Stim\\03_028.jpg,Tr28_8,Tristeza,8,Estefanía despierta a las 7 a.m.,Afirmación,Tr28,28,,,,,0,52,52,52,,,,,,,,,4,1.7832943834,,,,,2018_may._04_1847,60.0029185971,Experimento Piloto1,001,108,
0.25,Stim\\02_075.jpg,Al75_3,Alegría,3,Andrea diseña la portada del libro.,Afirmación,Al75,75,,,,,0,53,53,53,,,,,,,,,3,3.56611306741,,,,,2018_may._04_1847,60.0029185971,Experimento Piloto1,001,108,
0.25,Stim\\02_028.jpg,Al28_1,Alegría,1,Juan colecciona monedas antiguas.,Afirmación,Al28,28,,,,,0,54,54,54,,,,,,,,,3,0.650270358794,,,,,2018_may._04_1847,60.0029185971,Experimento Piloto1,001,108,
0.25,Stim\\03_028.jpg,Tr28_3,Tristeza,3,Andrea diseña la portada del libro.,Afirmación,Tr28,28,,,,,0,55,55,55,,,,,,,,,4,4.69948471849,,,,,2018_may._04_1847,60.0029185971,Experimento Piloto1,001,108,
2.5,Stim\\02_078.jpg,Al78_11,Alegría,11,María asiste a la cena.,Afirmación,Al78,78,,,,,0,56,56,56,,,,,,,,,3,1.16698922893,,,,,2018_may._04_1847,60.0029185971,Experimento Piloto1,001,108,
0.25,Stim\\03_019.jpg,Tr19_12,Tristeza,12,Ana compra el libro.,Afirmación,Tr19,19,,,,,0,57,57,57,,,,,,,,,2,0.750288610303,,,,,2018_may._04_1847,60.0029185971,Experimento Piloto1,001,108,
2.5,Stim\\02_078.jpg,Al78_14,Alegría,14,Elizabeth elige la ropa un día antes.,Afirmación,Al78,78,,,,,0,58,58,58,,,,,,,,,3,0.86681309521,,,,,2018_may._04_1847,60.0029185971,Experimento Piloto1,001,108,
0.25,Stim\\03_019.jpg,Tr19_2,Tristeza,2,Jonathan pasea al perro.,Afirmación,Tr19,19,,,,,0,59,59,59,,,,,,,,,2,1.98321173844,,,,,2018_may._04_1847,60.0029185971,Experimento Piloto1,001,108,
2.5,Stim\\03_078.jpg,Tr78_1,Tristeza,1,Juan colecciona monedas antiguas.,Afirmación,Tr78,78,,,,,0,60,60,60,,,,,,,,,2,3.21604963339,,,,,2018_may._04_1847,60.0029185971,Experimento Piloto1,001,108,
0.25,Stim\\03_078.jpg,Tr78_4,Tristeza,4,Jorge sustituye a Gustavo cada sábado.,Afirmación,Tr78,78,,,,,0,61,61,61,,,,,,,,,4,2.64964472038,,,,,2018_may._04_1847,60.0029185971,Experimento Piloto1,001,108,
0.25,Stim\\05_019.jpg,En19_14,Enojo,14,Elizabeth elige la ropa un día antes.,Afirmación,En19,19,,,,,0,62,62,62,,,,,,,,,2,1.0168284238,,,,,2018_may._04_1847,60.0029185971,Experimento Piloto1,001,108,
0.25,Stim\\02_075.jpg,Al75_15,Alegría,15,Ángel envía una carta a la abuela.,Afirmación,Al75,75,,,,,0,63,63,63,,,,,,,,,3,0.650163259495,,,,,2018_may._04_1847,60.0029185971,Experimento Piloto1,001,108,
2.5,Stim\\03_028.jpg,Tr28_2,Tristeza,2,Jonathan pasea al perro.,Afirmación,Tr28,28,,,,,0,64,64,64,,,,,,,,,4,1.61684868341,,,,,2018_may._04_1847,60.0029185971,Experimento Piloto1,001,108,
0.25,Stim\\05_028.jpg,En28_3,Enojo,3,Andrea diseña la portada del libro.,Afirmación,En28,28,,,,,0,65,65,65,,,,,,,,,3,1.05018717834,,,,,2018_may._04_1847,60.0029185971,Experimento Piloto1,001,108,
0.25,Stim\\05_078.jpg,En78_3,Enojo,3,Andrea diseña la portada del libro.,Afirmación,En78,78,,,,,0,66,66,66,,,,,,,,,2,0.916848995788,,,,,2018_may._04_1847,60.0029185971,Experimento Piloto1,001,108,
0.25,Stim\\05_075.jpg,En75_9,Enojo,9,Marco colabora en la organización del evento.,Afirmación,En75,75,,,,,0,67,67,67,,,,,,,,,2,1.00022669352,,,,,2018_may._04_1847,60.0029185971,Experimento Piloto1,001,108,
2.5,Stim\\05_075.jpg,En75_7,Enojo,7,Roberto contesta los cuestionarios solicitados.,Afirmación,En75,75,,,,,0,68,68,68,,,,,,,,,2,0.900109375161,,,,,2018_may._04_1847,60.0029185971,Experimento Piloto1,001,108,
0.25,Stim\\03_078.jpg,Tr78_14,Tristeza,14,Elizabeth elige la ropa un día antes.,Afirmación,Tr78,78,,,,,0,69,69,69,,,,,,,,,4,0.916977961195,,,,,2018_may._04_1847,60.0029185971,Experimento Piloto1,001,108,
2.5,Stim\\03_019.jpg,Tr19_5,Tristeza,5,Emilio revisa el formato del archivo.,Afirmación,Tr19,19,,,,,0,70,70,70,,,,,,,,,2,0.700279930796,,,,,2018_may._04_1847,60.0029185971,Experimento Piloto1,001,108,
2.5,Stim\\05_028.jpg,En28_13,Enojo,13,Rocío consume alimentos nutritivos.,Afirmación,En28,28,,,,,0,71,71,71,,,,,,,,,2,0.916437109732,,,,,2018_may._04_1847,60.0029185971,Experimento Piloto1,001,108,
0.25,Stim\\05_075.jpg,En75_15,Enojo,15,Ángel envía una carta a la abuela.,Afirmación,En75,75,,,,,0,72,72,72,,,,,,,,,2,0.85018146638,,,,,2018_may._04_1847,60.0029185971,Experimento Piloto1,001,108,
2.5,Stim\\05_019.jpg,En19_6,Enojo,6,Eduardo camina hacia la biblioteca.,Afirmación,En19,19,,,,,0,73,73,73,,,,,,,,,2,0.750140902517,,,,,2018_may._04_1847,60.0029185971,Experimento Piloto1,001,108,
2.5,Stim\\05_078.jpg,En78_10,Enojo,10,Laura finaliza la obra.,Afirmación,En78,78,,,,,0,74,74,74,,,,,,,,,2,0.700138024222,,,,,2018_may._04_1847,60.0029185971,Experimento Piloto1,001,108,
2.5,Stim\\05_019.jpg,En19_9,Enojo,9,Marco colabora en la organización del evento.,Afirmación,En19,19,,,,,0,75,75,75,,,,,,,,,2,0.650292671147,,,,,2018_may._04_1847,60.0029185971,Experimento Piloto1,001,108,
2.5,Stim\\02_078.jpg,Al78_6,Alegría,6,Eduardo camina hacia la biblioteca.,Afirmación,Al78,78,,,,,0,76,76,76,,,,,,,,,3,0.650318553478,,,,,2018_may._04_1847,60.0029185971,Experimento Piloto1,001,108,
2.5,Stim\\05_078.jpg,En78_13,Enojo,13,Rocío consume alimentos nutritivos.,Afirmación,En78,78,,,,,0,77,77,77,,,,,,,,,2,0.600286669127,,,,,2018_may._04_1847,60.0029185971,Experimento Piloto1,001,108,
0.25,Stim\\05_028.jpg,En28_2,Enojo,2,Jonathan pasea al perro.,Afirmación,En28,28,,,,,0,78,78,78,,,,,,,,,2,0.750283255336,,,,,2018_may._04_1847,60.0029185971,Experimento Piloto1,001,108,
0.25,Stim\\05_019.jpg,En19_6,Enojo,6,Eduardo camina hacia la biblioteca.,Afirmación,En19,19,,,,,0,79,79,79,,,,,,,,,2,0.650345774553,,,,,2018_may._04_1847,60.0029185971,Experimento Piloto1,001,108,
2.5,Stim\\03_019.jpg,Tr19_11,Tristeza,11,María asiste a la cena.,Afirmación,Tr19,19,,,,,0,80,80,80,,,,,,,,,4,1.83319462487,,,,,2018_may._04_1847,60.0029185971,Experimento Piloto1,001,108,
2.5,Stim\\05_028.jpg,En28_11,Enojo,11,María asiste a la cena.,Afirmación,En28,28,,,,,0,81,81,81,,,,,,,,,2,0.700317861796,,,,,2018_may._04_1847,60.0029185971,Experimento Piloto1,001,108,
0.25,Stim\\02_078.jpg,Al78_9,Alegría,9,Marco colabora en la organización del evento.,Afirmación,Al78,78,,,,,0,82,82,82,,,,,,,,,3,0.650271251292,,,,,2018_may._04_1847,60.0029185971,Experimento Piloto1,001,108,
0.25,Stim\\05_019.jpg,En19_13,Enojo,13,Rocío consume alimentos nutritivos.,Afirmación,En19,19,,,,,0,83,83,83,,,,,,,,,2,0.750187758458,,,,,2018_may._04_1847,60.0029185971,Experimento Piloto1,001,108,
0.25,Stim\\03_078.jpg,Tr78_11,Tristeza,11,María asiste a la cena.,Afirmación,Tr78,78,,,,,0,84,84,84,,,,,,,,,4,1.51664166939,,,,,2018_may._04_1847,60.0029185971,Experimento Piloto1,001,108,
2.5,Stim\\05_028.jpg,En28_5,Enojo,5,Emilio revisa el formato del archivo.,Afirmación,En28,28,,,,,0,85,85,85,,,,,,,,,2,0.850205563722,,,,,2018_may._04_1847,60.0029185971,Experimento Piloto1,001,108,
0.25,Stim\\03_028.jpg,Tr28_10,Tristeza,10,Laura finaliza la obra.,Afirmación,Tr28,28,,,,,0,86,86,86,,,,,,,,,4,0.850397449965,,,,,2018_may._04_1847,60.0029185971,Experimento Piloto1,001,108,
0.25,Stim\\05_019.jpg,En19_11,Enojo,11,María asiste a la cena.,Afirmación,En19,19,,,,,0,87,87,87,,,,,,,,,2,0.950366614292,,,,,2018_may._04_1847,60.0029185971,Experimento Piloto1,001,108,
2.5,Stim\\03_028.jpg,Tr28_9,Tristeza,9,Marco colabora en la organización del evento.,Afirmación,Tr28,28,,,,,0,88,88,88,,,,,,,,,3,3.11621389694,,,,,2018_may._04_1847,60.0029185971,Experimento Piloto1,001,108,
2.5,Stim\\05_019.jpg,En19_8,Enojo,8,Estefanía despierta a las 7 a.m.,Afirmación,En19,19,,,,,0,89,89,89,,,,,,,,,2,0.866834961318,,,,,2018_may._04_1847,60.0029185971,Experimento Piloto1,001,108,
0.25,Stim\\03_075.jpg,Tr75_9,Tristeza,9,Marco colabora en la organización del evento.,Afirmación,Tr75,75,,,,,0,90,90,90,,,,,,,,,3,2.79952751359,,,,,2018_may._04_1847,60.0029185971,Experimento Piloto1,001,108,
2.5,Stim\\02_075.jpg,Al75_3,Alegría,3,Andrea diseña la portada del libro.,Afirmación,Al75,75,,,,,0,91,91,91,,,,,,,,,3,0.550303871954,,,,,2018_may._04_1847,60.0029185971,Experimento Piloto1,001,108,
0.25,Stim\\05_028.jpg,En28_12,Enojo,12,Ana compra el libro.,Afirmación,En28,28,,,,,0,92,92,92,,,,,,,,,2,0.500170689509,,,,,2018_may._04_1847,60.0029185971,Experimento Piloto1,001,108,
0.25,Stim\\03_028.jpg,Tr28_7,Tristeza,7,Roberto contesta los cuestionarios solicitados.,Afirmación,Tr28,28,,,,,0,93,93,93,,,,,,,,,4,1.46680524126,,,,,2018_may._04_1847,60.0029185971,Experimento Piloto1,001,108,
0.25,Stim\\03_019.jpg,Tr19_8,Tristeza,8,Estefanía despierta a las 7 a.m.,Afirmación,Tr19,19,,,,,0,94,94,94,,,,,,,,,3,0.600241598171,,,,,2018_may._04_1847,60.0029185971,Experimento Piloto1,001,108,
0.25,Stim\\02_019.jpg,Al19_4,Alegría,4,Jorge sustituye a Gustavo cada sábado.,Afirmación,Al19,19,,,,,0,95,95,95,,,,,,,,,3,1.46668877077,,,,,2018_may._04_1847,60.0029185971,Experimento Piloto1,001,108,
2.5,Stim\\05_019.jpg,En19_15,Enojo,15,Ángel envía una carta a la abuela.,Afirmación,En19,19,,,,,0,96,96,96,,,,,,,,,2,0.766495858155,,,,,2018_may._04_1847,60.0029185971,Experimento Piloto1,001,108,
0.25,Stim\\05_075.jpg,En75_13,Enojo,13,Rocío consume alimentos nutritivos.,Afirmación,En75,75,,,,,0,97,97,97,,,,,,,,,2,0.650422082806,,,,,2018_may._04_1847,60.0029185971,Experimento Piloto1,001,108,
0.25,Stim\\02_078.jpg,Al78_7,Alegría,7,Roberto contesta los cuestionarios solicitados.,Afirmación,Al78,78,,,,,0,98,98,98,,,,,,,,,4,4.39900156677,,,,,2018_may._04_1847,60.0029185971,Experimento Piloto1,001,108,
2.5,Stim\\03_028.jpg,Tr28_3,Tristeza,3,Andrea diseña la portada del libro.,Afirmación,Tr28,28,,,,,0,99,99,99,,,,,,,,,4,4.1493160594,,,,,2018_may._04_1847,60.0029185971,Experimento Piloto1,001,108,
2.5,Stim\\05_075.jpg,En75_15,Enojo,15,Ángel envía una carta a la abuela.,Afirmación,En75,75,,,,,0,100,100,100,,,,,,,,,2,0.650204760474,,,,,2018_may._04_1847,60.0029185971,Experimento Piloto1,001,108,
0.25,Stim\\02_028.jpg,Al28_13,Alegría,13,Rocío consume alimentos nutritivos.,Afirmación,Al28,28,,,,,0,101,101,101,,,,,,,,,3,0.600312105209,,,,,2018_may._04_1847,60.0029185971,Experimento Piloto1,001,108,
0.25,Stim\\03_028.jpg,Tr28_15,Tristeza,15,Ángel envía una carta a la abuela.,Afirmación,Tr28,28,,,,,0,102,102,102,,,,,,,,,4,1.10020790651,,,,,2018_may._04_1847,60.0029185971,Experimento Piloto1,001,108,
0.25,Stim\\05_019.jpg,En19_2,Enojo,2,Jonathan pasea al perro.,Afirmación,En19,19,,,,,0,103,103,103,,,,,,,,,3,1.16627121737,,,,,2018_may._04_1847,60.0029185971,Experimento Piloto1,001,108,
0.25,Stim\\03_078.jpg,Tr78_13,Tristeza,13,Rocío consume alimentos nutritivos.,Afirmación,Tr78,78,,,,,0,104,104,104,,,,,,,,,3,0.800152259504,,,,,2018_may._04_1847,60.0029185971,Experimento Piloto1,001,108,
2.5,Stim\\03_075.jpg,Tr75_2,Tristeza,2,Jonathan pasea al perro.,Afirmación,Tr75,75,,,,,0,105,105,105,,,,,,,,,3,1.36669461661,,,,,2018_may._04_1847,60.0029185971,Experimento Piloto1,001,108,
2.5,Stim\\05_075.jpg,En75_10,Enojo,10,Laura finaliza la obra.,Afirmación,En75,75,,,,,0,106,106,106,,,,,,,,,2,0.649739324766,,,,,2018_may._04_1847,60.0029185971,Experimento Piloto1,001,108,
2.5,Stim\\05_028.jpg,En28_3,Enojo,3,Andrea diseña la portada del libro.,Afirmación,En28,28,,,,,0,107,107,107,,,,,,,,,3,0.800208040393,,,,,2018_may._04_1847,60.0029185971,Experimento Piloto1,001,108,
2.5,Stim\\02_078.jpg,Al78_8,Alegría,8,Estefanía despierta a las 7 a.m.,Afirmación,Al78,78,,,,,0,108,108,108,,,,,,,,,3,0.800233922721,,,,,2018_may._04_1847,60.0029185971,Experimento Piloto1,001,108,
2.5,Stim\\05_075.jpg,En75_2,Enojo,2,Jonathan pasea al perro.,Afirmación,En75,75,,,,,0,109,109,109,,,,,,,,,2,2.08321392505,,,,,2018_may._04_1847,60.0029185971,Experimento Piloto1,001,108,
0.25,Stim\\05_078.jpg,En78_2,Enojo,2,Jonathan pasea al perro.,Afirmación,En78,78,,,,,0,110,110,110,,,,,,,,,2,0.650218594132,,,,,2018_may._04_1847,60.0029185971,Experimento Piloto1,001,108,
2.5,Stim\\05_078.jpg,En78_14,Enojo,14,Elizabeth elige la ropa un día antes.,Afirmación,En78,78,,,,,0,111,111,111,,,,,,,,,2,0.750542971138,,,,,2018_may._04_1847,60.0029185971,Experimento Piloto1,001,108,
2.5,Stim\\05_028.jpg,En28_1,Enojo,1,Juan colecciona monedas antiguas.,Afirmación,En28,28,,,,,0,112,112,112,,,,,,,,,2,2.24964713012,,,,,2018_may._04_1847,60.0029185971,Experimento Piloto1,001,108,
0.25,Stim\\05_019.jpg,En19_12,Enojo,12,Ana compra el libro.,Afirmación,En19,19,,,,,0,113,113,113,,,,,,,,,2,0.450321766461,,,,,2018_may._04_1847,60.0029185971,Experimento Piloto1,001,108,
0.25,Stim\\02_075.jpg,Al75_13,Alegría,13,Rocío consume alimentos nutritivos.,Afirmación,Al75,75,,,,,0,114,114,114,,,,,,,,,3,0.483598857787,,,,,2018_may._04_1847,60.0029185971,Experimento Piloto1,001,108,
2.5,Stim\\03_019.jpg,Tr19_6,Tristeza,6,Eduardo camina hacia la biblioteca.,Afirmación,Tr19,19,,,,,0,115,115,115,,,,,,,,,4,1.98294265145,,,,,2018_may._04_1847,60.0029185971,Experimento Piloto1,001,108,
2.5,Stim\\05_028.jpg,En28_14,Enojo,14,Elizabeth elige la ropa un día antes.,Afirmación,En28,28,,,,,0,116,116,116,,,,,,,,,2,0.50035722079,,,,,2018_may._04_1847,60.0029185971,Experimento Piloto1,001,108,
2.5,Stim\\02_028.jpg,Al28_5,Alegría,5,Emilio revisa el formato del archivo.,Afirmación,Al28,28,,,,,0,117,117,117,,,,,,,,,3,4.54899145928,,,,,2018_may._04_1847,60.0029185971,Experimento Piloto1,001,108,
2.5,Stim\\02_078.jpg,Al78_9,Alegría,9,Marco colabora en la organización del evento.,Afirmación,Al78,78,,,,,0,118,118,118,,,,,,,,,3,0.550326184308,,,,,2018_may._04_1847,60.0029185971,Experimento Piloto1,001,108,
0.25,Stim\\03_019.jpg,Tr19_3,Tristeza,3,Andrea diseña la portada del libro.,Afirmación,Tr19,19,,,,,0,119,119,119,,,,,,,,,3,1.53330899799,,,,,2018_may._04_1847,60.0029185971,Experimento Piloto1,001,108,
0.25,Stim\\02_075.jpg,Al75_11,Alegría,11,María asiste a la cena.,Afirmación,Al75,75,,,,,,,,,0,0,0,0,,,,,,,3,0.700258510937,,,2018_may._04_1847,60.0029185971,Experimento Piloto1,001,108,
2.5,Stim\\03_019.jpg,Tr19_9,Tristeza,9,Marco colabora en la organización del evento.,Afirmación,Tr19,19,,,,,,,,,0,1,1,1,,,,,,,3,2.94989582362,,,2018_may._04_1847,60.0029185971,Experimento Piloto1,001,108,
2.5,Stim\\02_075.jpg,Al75_8,Alegría,8,Estefanía despierta a las 7 a.m.,Afirmación,Al75,75,,,,,,,,,0,2,2,2,,,,,,,3,0.433713342474,,,2018_may._04_1847,60.0029185971,Experimento Piloto1,001,108,
2.5,Stim\\03_075.jpg,Tr75_13,Tristeza,13,Rocío consume alimentos nutritivos.,Afirmación,Tr75,75,,,,,,,,,0,3,3,3,,,,,,,4,1.46679497758,,,2018_may._04_1847,60.0029185971,Experimento Piloto1,001,108,
0.25,Stim\\03_019.jpg,Tr19_15,Tristeza,15,Ángel envía una carta a la abuela.,Afirmación,Tr19,19,,,,,,,,,0,4,4,4,,,,,,,3,1.11690245619,,,2018_may._04_1847,60.0029185971,Experimento Piloto1,001,108,
2.5,Stim\\05_075.jpg,En75_11,Enojo,11,María asiste a la cena.,Afirmación,En75,75,,,,,,,,,0,5,5,5,,,,,,,2,0.549926793166,,,2018_may._04_1847,60.0029185971,Experimento Piloto1,001,108,
0.25,Stim\\05_028.jpg,En28_4,Enojo,4,Jorge sustituye a Gustavo cada sábado.,Afirmación,En28,28,,,,,,,,,0,6,6,6,,,,,,,2,0.599838190807,,,2018_may._04_1847,60.0029185971,Experimento Piloto1,001,108,
2.5,Stim\\05_028.jpg,En28_9,Enojo,9,Marco colabora en la organización del evento.,Afirmación,En28,28,,,,,,,,,0,7,7,7,,,,,,,2,0.550302086962,,,2018_may._04_1847,60.0029185971,Experimento Piloto1,001,108,
2.5,Stim\\03_075.jpg,Tr75_9,Tristeza,9,Marco colabora en la organización del evento.,Afirmación,Tr75,75,,,,,,,,,0,8,8,8,,,,,,,4,0.966789399488,,,2018_may._04_1847,60.0029185971,Experimento Piloto1,001,108,
2.5,Stim\\05_028.jpg,En28_15,Enojo,15,Ángel envía una carta a la abuela.,Afirmación,En28,28,,,,,,,,,0,9,9,9,,,,,,,2,1.20029443382,,,2018_may._04_1847,60.0029185971,Experimento Piloto1,001,108,
0.25,Stim\\03_078.jpg,Tr78_8,Tristeza,8,Estefanía despierta a las 7 a.m.,Afirmación,Tr78,78,,,,,,,,,0,10,10,10,,,,,,,3,0.550592147567,,,2018_may._04_1847,60.0029185971,Experimento Piloto1,001,108,
0.25,Stim\\02_075.jpg,Al75_1,Alegría,1,Juan colecciona monedas antiguas.,Afirmación,Al75,75,,,,,,,,,0,11,11,11,,,,,,,3,0.550366792791,,,2018_may._04_1847,60.0029185971,Experimento Piloto1,001,108,
0.25,Stim\\05_078.jpg,En78_11,Enojo,11,María asiste a la cena.,Afirmación,En78,78,,,,,,,,,0,12,12,12,,,,,,,2,0.500307687365,,,2018_may._04_1847,60.0029185971,Experimento Piloto1,001,108,
2.5,Stim\\03_028.jpg,Tr28_15,Tristeza,15,Ángel envía una carta a la abuela.,Afirmación,Tr28,28,,,,,,,,,0,13,13,13,,,,,,,4,0.700262973409,,,2018_may._04_1847,60.0029185971,Experimento Piloto1,001,108,
2.5,Stim\\02_019.jpg,Al19_3,Alegría,3,Andrea diseña la portada del libro.,Afirmación,Al19,19,,,,,,,,,0,14,14,14,,,,,,,3,0.500394705548,,,2018_may._04_1847,60.0029185971,Experimento Piloto1,001,108,
2.5,Stim\\05_019.jpg,En19_5,Enojo,5,Emilio revisa el formato del archivo.,Afirmación,En19,19,,,,,,,,,0,15,15,15,,,,,,,2,0.500384441864,,,2018_may._04_1847,60.0029185971,Experimento Piloto1,001,108,
0.25,Stim\\02_028.jpg,Al28_11,Alegría,11,María asiste a la cena.,Afirmación,Al28,28,,,,,,,,,0,16,16,16,,,,,,,3,0.800340575774,,,2018_may._04_1847,60.0029185971,Experimento Piloto1,001,108,
0.25,Stim\\03_019.jpg,Tr19_11,Tristeza,11,María asiste a la cena.,Afirmación,Tr19,19,,,,,,,,,0,17,17,17,,,,,,,3,0.600268372997,,,2018_may._04_1847,60.0029185971,Experimento Piloto1,001,108,
2.5,Stim\\03_078.jpg,Tr78_14,Tristeza,14,Elizabeth elige la ropa un día antes.,Afirmación,Tr78,78,,,,,,,,,0,18,18,18,,,,,,,4,0.916837393364,,,2018_may._04_1847,60.0029185971,Experimento Piloto1,001,108,
0.25,Stim\\02_019.jpg,Al19_9,Alegría,9,Marco colabora en la organización del evento.,Afirmación,Al19,19,,,,,,,,,0,19,19,19,,,,,,,3,0.433636587975,,,2018_may._04_1847,60.0029185971,Experimento Piloto1,001,108,
2.5,Stim\\02_075.jpg,Al75_11,Alegría,11,María asiste a la cena.,Afirmación,Al75,75,,,,,,,,,0,20,20,20,,,,,,,4,2.23306057224,,,2018_may._04_1847,60.0029185971,Experimento Piloto1,001,108,
0.25,Stim\\02_028.jpg,Al28_4,Alegría,4,Jorge sustituye a Gustavo cada sábado.,Afirmación,Al28,28,,,,,,,,,0,21,21,21,,,,,,,3,0.483681413498,,,2018_may._04_1847,60.0029185971,Experimento Piloto1,001,108,
2.5,Stim\\02_075.jpg,Al75_10,Alegría,10,Laura finaliza la obra.,Afirmación,Al75,75,,,,,,,,,0,22,22,22,,,,,,,3,0.750404188297,,,2018_may._04_1847,60.0029185971,Experimento Piloto1,001,108,
0.25,Stim\\05_075.jpg,En75_4,Enojo,4,Jorge sustituye a Gustavo cada sábado.,Afirmación,En75,75,,,,,,,,,0,23,23,23,,,,,,,3,0.50014926965,,,2018_may._04_1847,60.0029185971,Experimento Piloto1,001,108,
2.5,Stim\\02_028.jpg,Al28_11,Alegría,11,María asiste a la cena.,Afirmación,Al28,28,,,,,,,,,0,24,24,24,,,,,,,3,0.650388168029,,,2018_may._04_1847,60.0029185971,Experimento Piloto1,001,108,
0.25,Stim\\02_078.jpg,Al78_1,Alegría,1,Juan colecciona monedas antiguas.,Afirmación,Al78,78,,,,,,,,,0,25,25,25,,,,,,,3,0.450369961145,,,2018_may._04_1847,60.0029185971,Experimento Piloto1,001,108,
2.5,Stim\\02_019.jpg,Al19_7,Alegría,7,Roberto contesta los cuestionarios solicitados.,Afirmación,Al19,19,,,,,,,,,0,26,26,26,,,,,,,3,0.400349232968,,,2018_may._04_1847,60.0029185971,Experimento Piloto1,001,108,
0.25,Stim\\05_028.jpg,En28_15,Enojo,15,Ángel envía una carta a la abuela.,Afirmación,En28,28,,,,,,,,,0,27,27,27,,,,,,,2,0.700221026178,,,2018_may._04_1847,60.0029185971,Experimento Piloto1,001,108,
0.25,Stim\\03_075.jpg,Tr75_2,Tristeza,2,Jonathan pasea al perro.,Afirmación,Tr75,75,,,,,,,,,0,28,28,28,,,,,,,4,1.05015683354,,,2018_may._04_1847,60.0029185971,Experimento Piloto1,001,108,
0.25,Stim\\05_075.jpg,En75_3,Enojo,3,Andrea diseña la portada del libro.,Afirmación,En75,75,,,,,,,,,0,29,29,29,,,,,,,2,0.65026678882,,,2018_may._04_1847,60.0029185971,Experimento Piloto1,001,108,
2.5,Stim\\05_028.jpg,En28_10,Enojo,10,Laura finaliza la obra.,Afirmación,En28,28,,,,,,,,,0,30,30,30,,,,,,,2,0.800229906497,,,2018_may._04_1847,60.0029185971,Experimento Piloto1,001,108,
0.25,Stim\\05_019.jpg,En19_4,Enojo,4,Jorge sustituye a Gustavo cada sábado.,Afirmación,En19,19,,,,,,,,,0,31,31,31,,,,,,,2,0.700257618442,,,2018_may._04_1847,60.0029185971,Experimento Piloto1,001,108,
2.5,Stim\\02_078.jpg,Al78_1,Alegría,1,Juan colecciona monedas antiguas.,Afirmación,Al78,78,,,,,,,,,0,32,32,32,,,,,,,3,0.800191083003,,,2018_may._04_1847,60.0029185971,Experimento Piloto1,001,108,
0.25,Stim\\05_075.jpg,En75_6,Enojo,6,Eduardo camina hacia la biblioteca.,Afirmación,En75,75,,,,,,,,,0,33,33,33,,,,,,,3,0.866315083465,,,2018_may._04_1847,60.0029185971,Experimento Piloto1,001,108,
2.5,Stim\\02_019.jpg,Al19_12,Alegría,12,Ana compra el libro.,Afirmación,Al19,19,,,,,,,,,0,34,34,34,,,,,,,3,1.1001110709,,,2018_may._04_1847,60.0029185971,Experimento Piloto1,001,108,
0.25,Stim\\05_075.jpg,En75_8,Enojo,8,Estefanía despierta a las 7 a.m.,Afirmación,En75,75,,,,,,,,,0,35,35,35,,,,,,,2,0.800136194612,,,2018_may._04_1847,60.0029185971,Experimento Piloto1,001,108,
2.5,Stim\\03_028.jpg,Tr28_4,Tristeza,4,Jorge sustituye a Gustavo cada sábado.,Afirmación,Tr28,28,,,,,,,,,0,36,36,36,,,,,,,4,0.650767924297,,,2018_may._04_1847,60.0029185971,Experimento Piloto1,001,108,
0.25,Stim\\03_078.jpg,Tr78_12,Tristeza,12,Ana compra el libro.,Afirmación,Tr78,78,,,,,,,,,0,37,37,37,,,,,,,3,0.600279082926,,,2018_may._04_1847,60.0029185971,Experimento Piloto1,001,108,
2.5,Stim\\03_019.jpg,Tr19_3,Tristeza,3,Andrea diseña la portada del libro.,Afirmación,Tr19,19,,,,,,,,,0,38,38,38,,,,,,,3,0.550329754282,,,2018_may._04_1847,60.0029185971,Experimento Piloto1,001,108,
2.5,Stim\\05_075.jpg,En75_4,Enojo,4,Jorge sustituye a Gustavo cada sábado.,Afirmación,En75,75,,,,,,,,,0,39,39,39,,,,,,,2,1.06680898974,,,2018_may._04_1847,60.0029185971,Experimento Piloto1,001,108,
0.25,Stim\\05_078.jpg,En78_6,Enojo,6,Eduardo camina hacia la biblioteca.,Afirmación,En78,78,,,,,,,,,0,40,40,40,,,,,,,2,0.650319892226,,,2018_may._04_1847,60.0029185971,Experimento Piloto1,001,108,
0.25,Stim\\03_078.jpg,Tr78_3,Tristeza,3,Andrea diseña la portada del libro.,Afirmación,Tr78,78,,,,,,,,,0,41,41,41,,,,,,,4,0.650244030217,,,2018_may._04_1847,60.0029185971,Experimento Piloto1,001,108,
0.25,Stim\\05_078.jpg,En78_15,Enojo,15,Ángel envía una carta a la abuela.,Afirmación,En78,78,,,,,,,,,0,42,42,42,,,,,,,2,0.950114930936,,,2018_may._04_1847,60.0029185971,Experimento Piloto1,001,108,
2.5,Stim\\05_078.jpg,En78_2,Enojo,2,Jonathan pasea al perro.,Afirmación,En78,78,,,,,,,,,0,43,43,43,,,,,,,2,0.650326139683,,,2018_may._04_1847,60.0029185971,Experimento Piloto1,001,108,
2.5,Stim\\02_078.jpg,Al78_4,Alegría,4,Jorge sustituye a Gustavo cada sábado.,Afirmación,Al78,78,,,,,,,,,0,44,44,44,,,,,,,3,0.500256368952,,,2018_may._04_1847,60.0029185971,Experimento Piloto1,001,108,
2.5,Stim\\05_078.jpg,En78_4,Enojo,4,Jorge sustituye a Gustavo cada sábado.,Afirmación,En78,78,,,,,,,,,0,45,45,45,,,,,,,2,0.450328906412,,,2018_may._04_1847,60.0029185971,Experimento Piloto1,001,108,
0.25,Stim\\05_019.jpg,En19_9,Enojo,9,Marco colabora en la organización del evento.,Afirmación,En19,19,,,,,,,,,0,46,46,46,,,,,,,2,0.750274776641,,,2018_may._04_1847,60.0029185971,Experimento Piloto1,001,108,
0.25,Stim\\05_019.jpg,En19_15,Enojo,15,Ángel envía una carta a la abuela.,Afirmación,En19,19,,,,,,,,,0,47,47,47,,,,,,,2,0.650414050357,,,2018_may._04_1847,60.0029185971,Experimento Piloto1,001,108,
2.5,Stim\\02_028.jpg,Al28_2,Alegría,2,Jonathan pasea al perro.,Afirmación,Al28,28,,,,,,,,,0,48,48,48,,,,,,,3,0.649949953389,,,2018_may._04_1847,60.0029185971,Experimento Piloto1,001,108,
0.25,Stim\\03_075.jpg,Tr75_1,Tristeza,1,Juan colecciona monedas antiguas.,Afirmación,Tr75,75,,,,,,,,,0,49,49,49,,,,,,,4,0.5998314971,,,2018_may._04_1847,60.0029185971,Experimento Piloto1,001,108,
2.5,Stim\\02_028.jpg,Al28_12,Alegría,12,Ana compra el libro.,Afirmación,Al28,28,,,,,,,,,0,50,50,50,,,,,,,3,0.549976326594,,,2018_may._04_1847,60.0029185971,Experimento Piloto1,001,108,
0.25,Stim\\05_019.jpg,En19_5,Enojo,5,Emilio revisa el formato del archivo.,Afirmación,En19,19,,,,,,,,,0,51,51,51,,,,,,,2,0.533906522836,,,2018_may._04_1847,60.0029185971,Experimento Piloto1,001,108,
0.25,Stim\\02_075.jpg,Al75_9,Alegría,9,Marco colabora en la organización del evento.,Afirmación,Al75,75,,,,,,,,,0,52,52,52,,,,,,,3,0.550406062535,,,2018_may._04_1847,60.0029185971,Experimento Piloto1,001,108,
2.5,Stim\\03_019.jpg,Tr19_12,Tristeza,12,Ana compra el libro.,Afirmación,Tr19,19,,,,,,,,,0,53,53,53,,,,,,,3,0.600319245164,,,2018_may._04_1847,60.0029185971,Experimento Piloto1,001,108,
2.5,Stim\\02_019.jpg,Al19_4,Alegría,4,Jorge sustituye a Gustavo cada sábado.,Afirmación,Al19,19,,,,,,,,,0,54,54,54,,,,,,,3,0.500296084942,,,2018_may._04_1847,60.0029185971,Experimento Piloto1,001,108,
0.25,Stim\\02_019.jpg,Al19_12,Alegría,12,Ana compra el libro.,Afirmación,Al19,19,,,,,,,,,0,55,55,55,,,,,,,3,0.450400752194,,,2018_may._04_1847,60.0029185971,Experimento Piloto1,001,108,
2.5,Stim\\02_078.jpg,Al78_7,Alegría,7,Roberto contesta los cuestionarios solicitados.,Afirmación,Al78,78,,,,,,,,,0,56,56,56,,,,,,,3,0.650266342571,,,2018_may._04_1847,60.0029185971,Experimento Piloto1,001,108,
2.5,Stim\\03_078.jpg,Tr78_13,Tristeza,13,Rocío consume alimentos nutritivos.,Afirmación,Tr78,78,,,,,,,,,0,57,57,57,,,,,,,4,1.16678172404,,,2018_may._04_1847,60.0029185971,Experimento Piloto1,001,108,
2.5,Stim\\02_075.jpg,Al75_9,Alegría,9,Marco colabora en la organización del evento.,Afirmación,Al75,75,,,,,,,,,0,58,58,58,,,,,,,3,0.600294255328,,,2018_may._04_1847,60.0029185971,Experimento Piloto1,001,108,
0.25,Stim\\02_028.jpg,Al28_5,Alegría,5,Emilio revisa el formato del archivo.,Afirmación,Al28,28,,,,,,,,,0,59,59,59,,,,,,,3,0.500313488577,,,2018_may._04_1847,60.0029185971,Experimento Piloto1,001,108,
2.5,Stim\\03_028.jpg,Tr28_7,Tristeza,7,Roberto contesta los cuestionarios solicitados.,Afirmación,Tr28,28,,,,,,,,,0,60,60,60,,,,,,,4,1.21677746238,,,2018_may._04_1847,60.0029185971,Experimento Piloto1,001,108,
0.25,Stim\\05_078.jpg,En78_7,Enojo,7,Roberto contesta los cuestionarios solicitados.,Afirmación,En78,78,,,,,,,,,0,61,61,61,,,,,,,2,0.549743385614,,,2018_may._04_1847,60.0029185971,Experimento Piloto1,001,108,
2.5,Stim\\03_028.jpg,Tr28_5,Tristeza,5,Emilio revisa el formato del archivo.,Afirmación,Tr28,28,,,,,,,,,0,62,62,62,,,,,,,4,0.583598813162,,,2018_may._04_1847,60.0029185971,Experimento Piloto1,001,108,
0.25,Stim\\02_019.jpg,Al19_13,Alegría,13,Rocío consume alimentos nutritivos.,Afirmación,Al19,19,,,,,,,,,0,63,63,63,,,,,,,3,0.450320873966,,,2018_may._04_1847,60.0029185971,Experimento Piloto1,001,108,
2.5,Stim\\05_019.jpg,En19_13,Enojo,13,Rocío consume alimentos nutritivos.,Afirmación,En19,19,,,,,,,,,0,64,64,64,,,,,,,2,0.60012378894,,,2018_may._04_1847,60.0029185971,Experimento Piloto1,001,108,
2.5,Stim\\03_078.jpg,Tr78_4,Tristeza,4,Jorge sustituye a Gustavo cada sábado.,Afirmación,Tr78,78,,,,,,,,,0,65,65,65,,,,,,,4,0.600301841529,,,2018_may._04_1847,60.0029185971,Experimento Piloto1,001,108,
0.25,Stim\\05_028.jpg,En28_13,Enojo,13,Rocío consume alimentos nutritivos.,Afirmación,En28,28,,,,,,,,,0,66,66,66,,,,,,,2,0.500042170352,,,2018_may._04_1847,60.0029185971,Experimento Piloto1,001,108,
0.25,Stim\\02_075.jpg,Al75_4,Alegría,4,Jorge sustituye a Gustavo cada sábado.,Afirmación,Al75,75,,,,,,,,,0,67,67,67,,,,,,,3,0.550238719879,,,2018_may._04_1847,60.0029185971,Experimento Piloto1,001,108,
0.25,Stim\\03_019.jpg,Tr19_14,Tristeza,14,Elizabeth elige la ropa un día antes.,Afirmación,Tr19,19,,,,,,,,,0,68,68,68,,,,,,,3,0.916836054625,,,2018_may._04_1847,60.0029185971,Experimento Piloto1,001,108,
2.5,Stim\\02_075.jpg,Al75_4,Alegría,4,Jorge sustituye a Gustavo cada sábado.,Afirmación,Al75,75,,,,,,,,,0,69,69,69,,,,,,,3,0.700227273643,,,2018_may._04_1847,60.0029185971,Experimento Piloto1,001,108,
2.5,Stim\\05_078.jpg,En78_7,Enojo,7,Roberto contesta los cuestionarios solicitados.,Afirmación,En78,78,,,,,,,,,0,70,70,70,,,,,,,2,0.499977910767,,,2018_may._04_1847,60.0029185971,Experimento Piloto1,001,108,
2.5,Stim\\05_028.jpg,En28_6,Enojo,6,Eduardo camina hacia la biblioteca.,Afirmación,En28,28,,,,,,,,,0,71,71,71,,,,,,,2,0.966874186437,,,2018_may._04_1847,60.0029185971,Experimento Piloto1,001,108,
2.5,Stim\\05_028.jpg,En28_7,Enojo,7,Roberto contesta los cuestionarios solicitados.,Afirmación,En28,28,,,,,,,,,0,72,72,72,,,,,,,2,0.650287762433,,,2018_may._04_1847,60.0029185971,Experimento Piloto1,001,108,
2.5,Stim\\03_028.jpg,Tr28_14,Tristeza,14,Elizabeth elige la ropa un día antes.,Afirmación,Tr28,28,,,,,,,,,0,73,73,73,,,,,,,4,0.450271786787,,,2018_may._04_1847,60.0029185971,Experimento Piloto1,001,108,
2.5,Stim\\02_019.jpg,Al19_11,Alegría,11,María asiste a la cena.,Afirmación,Al19,19,,,,,,,,,0,74,74,74,,,,,,,3,0.450379332335,,,2018_may._04_1847,60.0029185971,Experimento Piloto1,001,108,
0.25,Stim\\05_028.jpg,En28_7,Enojo,7,Roberto contesta los cuestionarios solicitados.,Afirmación,En28,28,,,,,,,,,0,75,75,75,,,,,,,2,0.450235640772,,,2018_may._04_1847,60.0029185971,Experimento Piloto1,001,108,
0.25,Stim\\05_078.jpg,En78_13,Enojo,13,Rocío consume alimentos nutritivos.,Afirmación,En78,78,,,,,,,,,0,76,76,76,,,,,,,2,0.450415924595,,,2018_may._04_1847,60.0029185971,Experimento Piloto1,001,108,
0.25,Stim\\03_028.jpg,Tr28_14,Tristeza,14,Elizabeth elige la ropa un día antes.,Afirmación,Tr28,28,,,,,,,,,0,77,77,77,,,,,,,4,0.600253200595,,,2018_may._04_1847,60.0029185971,Experimento Piloto1,001,108,
2.5,Stim\\03_075.jpg,Tr75_14,Tristeza,14,Elizabeth elige la ropa un día antes.,Afirmación,Tr75,75,,,,,,,,,0,78,78,78,,,,,,,4,0.500313934823,,,2018_may._04_1847,60.0029185971,Experimento Piloto1,001,108,
0.25,Stim\\05_019.jpg,En19_10,Enojo,10,Laura finaliza la obra.,Afirmación,En19,19,,,,,,,,,0,79,79,79,,,,,,,2,0.600240705677,,,2018_may._04_1847,60.0029185971,Experimento Piloto1,001,108,
0.25,Stim\\05_078.jpg,En78_9,Enojo,9,Marco colabora en la organización del evento.,Afirmación,En78,78,,,,,,,,,0,80,80,80,,,,,,,2,0.450359251216,,,2018_may._04_1847,60.0029185971,Experimento Piloto1,001,108,
0.25,Stim\\02_028.jpg,Al28_6,Alegría,6,Eduardo camina hacia la biblioteca.,Afirmación,Al28,28,,,,,,,,,0,81,81,81,,,,,,,3,0.500540182096,,,2018_may._04_1847,60.0029185971,Experimento Piloto1,001,108,
0.25,Stim\\05_078.jpg,En78_12,Enojo,12,Ana compra el libro.,Afirmación,En78,78,,,,,,,,,0,82,82,82,,,,,,,2,0.600388859708,,,2018_may._04_1847,60.0029185971,Experimento Piloto1,001,108,
2.5,Stim\\05_075.jpg,En75_1,Enojo,1,Juan colecciona monedas antiguas.,Afirmación,En75,75,,,,,,,,,0,83,83,83,,,,,,,2,0.700167476531,,,2018_may._04_1847,60.0029185971,Experimento Piloto1,001,108,
0.25,Stim\\03_019.jpg,Tr19_13,Tristeza,13,Rocío consume alimentos nutritivos.,Afirmación,Tr19,19,,,,,,,,,0,84,84,84,,,,,,,3,0.550243628593,,,2018_may._04_1847,60.0029185971,Experimento Piloto1,001,108,
2.5,Stim\\03_078.jpg,Tr78_11,Tristeza,11,María asiste a la cena.,Afirmación,Tr78,78,,,,,,,,,0,85,85,85,,,,,,,4,0.550400707572,,,2018_may._04_1847,60.0029185971,Experimento Piloto1,001,108,
2.5,Stim\\05_019.jpg,En19_1,Enojo,1,Juan colecciona monedas antiguas.,Afirmación,En19,19,,,,,,,,,0,86,86,86,,,,,,,2,0.916871308142,,,2018_may._04_1847,60.0029185971,Experimento Piloto1,001,108,
0.25,Stim\\02_075.jpg,Al75_10,Alegría,10,Laura finaliza la obra.,Afirmación,Al75,75,,,,,,,,,0,87,87,87,,,,,,,3,0.500041277857,,,2018_may._04_1847,60.0029185971,Experimento Piloto1,001,108,
2.5,Stim\\02_019.jpg,Al19_14,Alegría,14,Elizabeth elige la ropa un día antes.,Afirmación,Al19,19,,,,,,,,,0,88,88,88,,,,,,,3,0.383625230988,,,2018_may._04_1847,60.0029185971,Experimento Piloto1,001,108,
0.25,Stim\\03_028.jpg,Tr28_6,Tristeza,6,Eduardo camina hacia la biblioteca.,Afirmación,Tr28,28,,,,,,,,,0,89,89,89,,,,,,,4,0.966447127976,,,2018_may._04_1847,60.0029185971,Experimento Piloto1,001,108,
0.25,Stim\\02_075.jpg,Al75_8,Alegría,8,Estefanía despierta a las 7 a.m.,Afirmación,Al75,75,,,,,,,,,0,90,90,90,,,,,,,3,0.500278681302,,,2018_may._04_1847,60.0029185971,Experimento Piloto1,001,108,
2.5,Stim\\02_019.jpg,Al19_6,Alegría,6,Eduardo camina hacia la biblioteca.,Afirmación,Al19,19,,,,,,,,,0,91,91,91,,,,,,,3,0.600401354626,,,2018_may._04_1847,60.0029185971,Experimento Piloto1,001,108,
2.5,Stim\\03_078.jpg,Tr78_7,Tristeza,7,Roberto contesta los cuestionarios solicitados.,Afirmación,Tr78,78,,,,,,,,,0,92,92,92,,,,,,,4,0.433726729887,,,2018_may._04_1847,60.0029185971,Experimento Piloto1,001,108,
2.5,Stim\\02_028.jpg,Al28_8,Alegría,8,Estefanía despierta a las 7 a.m.,Afirmación,Al28,28,,,,,,,,,0,93,93,93,,,,,,,3,0.650329709657,,,2018_may._04_1847,60.0029185971,Experimento Piloto1,001,108,
0.25,Stim\\03_075.jpg,Tr75_13,Tristeza,13,Rocío consume alimentos nutritivos.,Afirmación,Tr75,75,,,,,,,,,0,94,94,94,,,,,,,4,0.650169953202,,,2018_may._04_1847,60.0029185971,Experimento Piloto1,001,108,
2.5,Stim\\02_075.jpg,Al75_6,Alegría,6,Eduardo camina hacia la biblioteca.,Afirmación,Al75,75,,,,,,,,,0,95,95,95,,,,,,,3,0.40043937488,,,2018_may._04_1847,60.0029185971,Experimento Piloto1,001,108,
0.25,Stim\\02_028.jpg,Al28_9,Alegría,9,Marco colabora en la organización del evento.,Afirmación,Al28,28,,,,,,,,,0,96,96,96,,,,,,,3,0.499953813429,,,2018_may._04_1847,60.0029185971,Experimento Piloto1,001,108,
0.25,Stim\\02_019.jpg,Al19_8,Alegría,8,Estefanía despierta a las 7 a.m.,Afirmación,Al19,19,,,,,,,,,0,97,97,97,,,,,,,3,0.450245904456,,,2018_may._04_1847,60.0029185971,Experimento Piloto1,001,108,
2.5,Stim\\02_019.jpg,Al19_1,Alegría,1,Juan colecciona monedas antiguas.,Afirmación,Al19,19,,,,,,,,,0,98,98,98,,,,,,,3,0.383867543154,,,2018_may._04_1847,60.0029185971,Experimento Piloto1,001,108,
0.25,Stim\\02_019.jpg,Al19_5,Alegría,5,Emilio revisa el formato del archivo.,Afirmación,Al19,19,,,,,,,,,0,99,99,99,,,,,,,3,0.716374278138,,,2018_may._04_1847,60.0029185971,Experimento Piloto1,001,108,
2.5,Stim\\02_078.jpg,Al78_13,Alegría,13,Rocío consume alimentos nutritivos.,Afirmación,Al78,78,,,,,,,,,0,100,100,100,,,,,,,3,0.500309472354,,,2018_may._04_1847,60.0029185971,Experimento Piloto1,001,108,
2.5,Stim\\05_078.jpg,En78_12,Enojo,12,Ana compra el libro.,Afirmación,En78,78,,,,,,,,,0,101,101,101,,,,,,,2,0.550307441928,,,2018_may._04_1847,60.0029185971,Experimento Piloto1,001,108,
2.5,Stim\\03_075.jpg,Tr75_11,Tristeza,11,María asiste a la cena.,Afirmación,Tr75,75,,,,,,,,,0,102,102,102,,,,,,,4,0.850429579754,,,2018_may._04_1847,60.0029185971,Experimento Piloto1,001,108,
0.25,Stim\\02_078.jpg,Al78_13,Alegría,13,Rocío consume alimentos nutritivos.,Afirmación,Al78,78,,,,,,,,,0,103,103,103,,,,,,,3,0.483849648648,,,2018_may._04_1847,60.0029185971,Experimento Piloto1,001,108,
0.25,Stim\\03_075.jpg,Tr75_11,Tristeza,11,María asiste a la cena.,Afirmación,Tr75,75,,,,,,,,,0,104,104,104,,,,,,,4,0.700280377045,,,2018_may._04_1847,60.0029185971,Experimento Piloto1,001,108,
2.5,Stim\\05_075.jpg,En75_8,Enojo,8,Estefanía despierta a las 7 a.m.,Afirmación,En75,75,,,,,,,,,0,105,105,105,,,,,,,2,0.666582028469,,,2018_may._04_1847,60.0029185971,Experimento Piloto1,001,108,
2.5,Stim\\03_078.jpg,Tr78_2,Tristeza,2,Jonathan pasea al perro.,Afirmación,Tr78,78,,,,,,,,,0,106,106,106,,,,,,,4,0.666633793135,,,2018_may._04_1847,60.0029185971,Experimento Piloto1,001,108,
2.5,Stim\\03_078.jpg,Tr78_12,Tristeza,12,Ana compra el libro.,Afirmación,Tr78,78,,,,,,,,,0,107,107,107,,,,,,,4,0.500196125595,,,2018_may._04_1847,60.0029185971,Experimento Piloto1,001,108,
2.5,Stim\\05_019.jpg,En19_10,Enojo,10,Laura finaliza la obra.,Afirmación,En19,19,,,,,,,,,0,108,108,108,,,,,,,2,0.500086795055,,,2018_may._04_1847,60.0029185971,Experimento Piloto1,001,108,
2.5,Stim\\05_078.jpg,En78_15,Enojo,15,Ángel envía una carta a la abuela.,Afirmación,En78,78,,,,,,,,,0,109,109,109,,,,,,,2,0.400288543366,,,2018_may._04_1847,60.0029185971,Experimento Piloto1,001,108,
0.25,Stim\\02_028.jpg,Al28_15,Alegría,15,Ángel envía una carta a la abuela.,Afirmación,Al28,28,,,,,,,,,0,110,110,110,,,,,,,3,0.433850340331,,,2018_may._04_1847,60.0029185971,Experimento Piloto1,001,108,
2.5,Stim\\02_075.jpg,Al75_13,Alegría,13,Rocío consume alimentos nutritivos.,Afirmación,Al75,75,,,,,,,,,0,111,111,111,,,,,,,3,0.333761581784,,,2018_may._04_1847,60.0029185971,Experimento Piloto1,001,108,
2.5,Stim\\02_078.jpg,Al78_5,Alegría,5,Emilio revisa el formato del archivo.,Afirmación,Al78,78,,,,,,,,,0,112,112,112,,,,,,,3,0.500303671142,,,2018_may._04_1847,60.0029185971,Experimento Piloto1,001,108,
2.5,Stim\\05_019.jpg,En19_12,Enojo,12,Ana compra el libro.,Afirmación,En19,19,,,,,,,,,0,113,113,113,,,,,,,2,0.450392273498,,,2018_may._04_1847,60.0029185971,Experimento Piloto1,001,108,
2.5,Stim\\03_028.jpg,Tr28_13,Tristeza,13,Rocío consume alimentos nutritivos.,Afirmación,Tr28,28,,,,,,,,,0,114,114,114,,,,,,,4,0.400287204626,,,2018_may._04_1847,60.0029185971,Experimento Piloto1,001,108,
2.5,Stim\\02_075.jpg,Al75_1,Alegría,1,Juan colecciona monedas antiguas.,Afirmación,Al75,75,,,,,,,,,0,115,115,115,,,,,,,3,0.90015846234,,,2018_may._04_1847,60.0029185971,Experimento Piloto1,001,108,
2.5,Stim\\02_028.jpg,Al28_3,Alegría,3,Andrea diseña la portada del libro.,Afirmación,Al28,28,,,,,,,,,0,116,116,116,,,,,,,3,0.600229549502,,,2018_may._04_1847,60.0029185971,Experimento Piloto1,001,108,
0.25,Stim\\05_028.jpg,En28_10,Enojo,10,Laura finaliza la obra.,Afirmación,En28,28,,,,,,,,,0,117,117,117,,,,,,,2,1.00014815403,,,2018_may._04_1847,60.0029185971,Experimento Piloto1,001,108,
0.25,Stim\\02_078.jpg,Al78_3,Alegría,3,Andrea diseña la portada del libro.,Afirmación,Al78,78,,,,,,,,,0,118,118,118,,,,,,,3,0.500271095105,,,2018_may._04_1847,60.0029185971,Experimento Piloto1,001,108,
2.5,Stim\\03_075.jpg,Tr75_15,Tristeza,15,Ángel envía una carta a la abuela.,Afirmación,Tr75,75,,,,,,,,,0,119,119,119,,,,,,,4,0.500296531187,,,2018_may._04_1847,60.0029185971,Experimento Piloto1,001,108,
0.25,Stim\\03_028.jpg,Tr28_2,Tristeza,2,Jonathan pasea al perro.,Afirmación,Tr28,28,,,,,,,,,,,,,0,0,0,0,,,,,4,0.600205005911,2018_may._04_1847,60.0029185971,Experimento Piloto1,001,108,
2.5,Stim\\05_075.jpg,En75_12,Enojo,12,Ana compra el libro.,Afirmación,En75,75,,,,,,,,,,,,,0,1,1,1,,,,,2,0.550308780668,2018_may._04_1847,60.0029185971,Experimento Piloto1,001,108,
0.25,Stim\\02_078.jpg,Al78_11,Alegría,11,María asiste a la cena.,Afirmación,Al78,78,,,,,,,,,,,,,0,2,2,2,,,,,3,0.433857926531,2018_may._04_1847,60.0029185971,Experimento Piloto1,001,108,
0.25,Stim\\02_078.jpg,Al78_8,Alegría,8,Estefanía despierta a las 7 a.m.,Afirmación,Al78,78,,,,,,,,,,,,,0,3,3,3,,,,,3,0.433739671054,2018_may._04_1847,60.0029185971,Experimento Piloto1,001,108,
0.25,Stim\\05_028.jpg,En28_6,Enojo,6,Eduardo camina hacia la biblioteca.,Afirmación,En28,28,,,,,,,,,,,,,0,4,4,4,,,,,2,0.434104701169,2018_may._04_1847,60.0029185971,Experimento Piloto1,001,108,
0.25,Stim\\02_019.jpg,Al19_14,Alegría,14,Elizabeth elige la ropa un día antes.,Afirmación,Al19,19,,,,,,,,,,,,,0,5,5,5,,,,,3,1.1666420487,2018_may._04_1847,60.0029185971,Experimento Piloto1,001,108,
2.5,Stim\\05_078.jpg,En78_1,Enojo,1,Juan colecciona monedas antiguas.,Afirmación,En78,78,,,,,,,,,,,,,0,6,6,6,,,,,2,0.600230888242,2018_may._04_1847,60.0029185971,Experimento Piloto1,001,108,
2.5,Stim\\02_078.jpg,Al78_15,Alegría,15,Ángel envía una carta a la abuela.,Afirmación,Al78,78,,,,,,,,,,,,,0,7,7,7,,,,,3,0.550377502721,2018_may._04_1847,60.0029185971,Experimento Piloto1,001,108,
0.25,Stim\\02_075.jpg,Al75_14,Alegría,14,Elizabeth elige la ropa un día antes.,Afirmación,Al75,75,,,,,,,,,,,,,0,8,8,8,,,,,3,0.450501604035,2018_may._04_1847,60.0029185971,Experimento Piloto1,001,108,
2.5,Stim\\02_075.jpg,Al75_2,Alegría,2,Jonathan pasea al perro.,Afirmación,Al75,75,,,,,,,,,,,,,0,9,9,9,,,,,3,0.650298472363,2018_may._04_1847,60.0029185971,Experimento Piloto1,001,108,
0.25,Stim\\05_075.jpg,En75_12,Enojo,12,Ana compra el libro.,Afirmación,En75,75,,,,,,,,,,,,,0,10,10,10,,,,,2,0.500081886337,2018_may._04_1847,60.0029185971,Experimento Piloto1,001,108,
2.5,Stim\\03_078.jpg,Tr78_8,Tristeza,8,Estefanía despierta a las 7 a.m.,Afirmación,Tr78,78,,,,,,,,,,,,,0,11,11,11,,,,,4,0.400401890125,2018_may._04_1847,60.0029185971,Experimento Piloto1,001,108,
0.25,Stim\\03_078.jpg,Tr78_15,Tristeza,15,Ángel envía una carta a la abuela.,Afirmación,Tr78,78,,,,,,,,,,,,,0,12,12,12,,,,,4,0.483488188511,2018_may._04_1847,60.0029185971,Experimento Piloto1,001,108,
0.25,Stim\\03_078.jpg,Tr78_5,Tristeza,5,Emilio revisa el formato del archivo.,Afirmación,Tr78,78,,,,,,,,,,,,,0,13,13,13,,,,,4,0.900232093107,2018_may._04_1847,60.0029185971,Experimento Piloto1,001,108,
2.5,Stim\\02_019.jpg,Al19_5,Alegría,5,Emilio revisa el formato del archivo.,Afirmación,Al19,19,,,,,,,,,,,,,0,14,14,14,,,,,3,1.00012405669,2018_may._04_1847,60.0029185971,Experimento Piloto1,001,108,
2.5,Stim\\03_075.jpg,Tr75_10,Tristeza,10,Laura finaliza la obra.,Afirmación,Tr75,75,,,,,,,,,,,,,0,15,15,15,,,,,4,0.950330914526,2018_may._04_1847,60.0029185971,Experimento Piloto1,001,108,
2.5,Stim\\03_075.jpg,Tr75_4,Tristeza,4,Jorge sustituye a Gustavo cada sábado.,Afirmación,Tr75,75,,,,,,,,,,,,,0,16,16,16,,,,,3,1.61677059018,2018_may._04_1847,60.0029185971,Experimento Piloto1,001,108,
0.25,Stim\\03_028.jpg,Tr28_5,Tristeza,5,Emilio revisa el formato del archivo.,Afirmación,Tr28,28,,,,,,,,,,,,,0,17,17,17,,,,,4,0.850269823299,2018_may._04_1847,60.0029185971,Experimento Piloto1,001,108,
0.25,Stim\\05_075.jpg,En75_11,Enojo,11,María asiste a la cena.,Afirmación,En75,75,,,,,,,,,,,,,0,18,18,18,,,,,3,2.5996012336,2018_may._04_1847,60.0029185971,Experimento Piloto1,001,108,
0.25,Stim\\02_075.jpg,Al75_6,Alegría,6,Eduardo camina hacia la biblioteca.,Afirmación,Al75,75,,,,,,,,,,,,,0,19,19,19,,,,,3,0.600619123205,2018_may._04_1847,60.0029185971,Experimento Piloto1,001,108,
0.25,Stim\\05_078.jpg,En78_1,Enojo,1,Juan colecciona monedas antiguas.,Afirmación,En78,78,,,,,,,,,,,,,0,20,20,20,,,,,2,2.74956702877,2018_may._04_1847,60.0029185971,Experimento Piloto1,001,108,
2.5,Stim\\03_019.jpg,Tr19_4,Tristeza,4,Jorge sustituye a Gustavo cada sábado.,Afirmación,Tr19,19,,,,,,,,,,,,,0,21,21,21,,,,,3,0.65022082537,2018_may._04_1847,60.0029185971,Experimento Piloto1,001,108,
0.25,Stim\\03_028.jpg,Tr28_11,Tristeza,11,María asiste a la cena.,Afirmación,Tr28,28,,,,,,,,,,,,,0,22,22,22,,,,,4,0.500543305825,2018_may._04_1847,60.0029185971,Experimento Piloto1,001,108,
0.25,Stim\\02_019.jpg,Al19_7,Alegría,7,Roberto contesta los cuestionarios solicitados.,Afirmación,Al19,19,,,,,,,,,,,,,0,23,23,23,,,,,3,1.05011087009,2018_may._04_1847,60.0029185971,Experimento Piloto1,001,108,
0.25,Stim\\05_028.jpg,En28_1,Enojo,1,Juan colecciona monedas antiguas.,Afirmación,En28,28,,,,,,,,,,,,,0,24,24,24,,,,,2,0.500379533147,2018_may._04_1847,60.0029185971,Experimento Piloto1,001,108,
0.25,Stim\\03_019.jpg,Tr19_6,Tristeza,6,Eduardo camina hacia la biblioteca.,Afirmación,Tr19,19,,,,,,,,,,,,,0,25,25,25,,,,,3,0.450241888233,2018_may._04_1847,60.0029185971,Experimento Piloto1,001,108,
0.25,Stim\\03_078.jpg,Tr78_7,Tristeza,7,Roberto contesta los cuestionarios solicitados.,Afirmación,Tr78,78,,,,,,,,,,,,,0,26,26,26,,,,,4,0.550379733959,2018_may._04_1847,60.0029185971,Experimento Piloto1,001,108,
2.5,Stim\\03_019.jpg,Tr19_15,Tristeza,15,Ángel envía una carta a la abuela.,Afirmación,Tr19,19,,,,,,,,,,,,,0,27,27,27,,,,,3,0.550431944866,2018_may._04_1847,60.0029185971,Experimento Piloto1,001,108,
2.5,Stim\\02_028.jpg,Al28_4,Alegría,4,Jorge sustituye a Gustavo cada sábado.,Afirmación,Al28,28,,,,,,,,,,,,,0,28,28,28,,,,,3,0.433741009794,2018_may._04_1847,60.0029185971,Experimento Piloto1,001,108,
2.5,Stim\\03_078.jpg,Tr78_5,Tristeza,5,Emilio revisa el formato del archivo.,Afirmación,Tr78,78,,,,,,,,,,,,,0,29,29,29,,,,,4,1.3666499919,2018_may._04_1847,60.0029185971,Experimento Piloto1,001,108,
2.5,Stim\\03_028.jpg,Tr28_12,Tristeza,12,Ana compra el libro.,Afirmación,Tr28,28,,,,,,,,,,,,,0,30,30,30,,,,,4,0.650278837493,2018_may._04_1847,60.0029185971,Experimento Piloto1,001,108,
0.25,Stim\\02_028.jpg,Al28_2,Alegría,2,Jonathan pasea al perro.,Afirmación,Al28,28,,,,,,,,,,,,,0,31,31,31,,,,,3,1.00023294098,2018_may._04_1847,60.0029185971,Experimento Piloto1,001,108,
0.25,Stim\\05_019.jpg,En19_8,Enojo,8,Estefanía despierta a las 7 a.m.,Afirmación,En19,19,,,,,,,,,,,,,0,32,32,32,,,,,2,0.650451981357,2018_may._04_1847,60.0029185971,Experimento Piloto1,001,108,
0.25,Stim\\03_019.jpg,Tr19_9,Tristeza,9,Marco colabora en la organización del evento.,Afirmación,Tr19,19,,,,,,,,,,,,,0,33,33,33,,,,,3,0.500313488577,2018_may._04_1847,60.0029185971,Experimento Piloto1,001,108,
2.5,Stim\\02_078.jpg,Al78_10,Alegría,10,Laura finaliza la obra.,Afirmación,Al78,78,,,,,,,,,,,,,0,34,34,34,,,,,3,0.40027247847,2018_may._04_1847,60.0029185971,Experimento Piloto1,001,108,
2.5,Stim\\02_075.jpg,Al75_15,Alegría,15,Ángel envía una carta a la abuela.,Afirmación,Al75,75,,,,,,,,,,,,,0,35,35,35,,,,,3,0.400005176467,2018_may._04_1847,60.0029185971,Experimento Piloto1,001,108,
2.5,Stim\\03_028.jpg,Tr28_6,Tristeza,6,Eduardo camina hacia la biblioteca.,Afirmación,Tr28,28,,,,,,,,,,,,,0,36,36,36,,,,,4,1.05024429797,2018_may._04_1847,60.0029185971,Experimento Piloto1,001,108,
0.25,Stim\\03_075.jpg,Tr75_14,Tristeza,14,Elizabeth elige la ropa un día antes.,Afirmación,Tr75,75,,,,,,,,,,,,,0,37,37,37,,,,,3,0.55036188407,2018_may._04_1847,60.0029185971,Experimento Piloto1,001,108,
2.5,Stim\\05_075.jpg,En75_13,Enojo,13,Rocío consume alimentos nutritivos.,Afirmación,En75,75,,,,,,,,,,,,,0,38,38,38,,,,,2,0.53362761841,2018_may._04_1847,60.0029185971,Experimento Piloto1,001,108,
2.5,Stim\\03_075.jpg,Tr75_8,Tristeza,8,Estefanía despierta a las 7 a.m.,Afirmación,Tr75,75,,,,,,,,,,,,,0,39,39,39,,,,,4,1.56669140363,2018_may._04_1847,60.0029185971,Experimento Piloto1,001,108,
0.25,Stim\\05_075.jpg,En75_7,Enojo,7,Roberto contesta los cuestionarios solicitados.,Afirmación,En75,75,,,,,,,,,,,,,0,40,40,40,,,,,2,0.816843239201,2018_may._04_1847,60.0029185971,Experimento Piloto1,001,108,
2.5,Stim\\03_019.jpg,Tr19_10,Tristeza,10,Laura finaliza la obra.,Afirmación,Tr19,19,,,,,,,,,,,,,0,41,41,41,,,,,3,2.86618522556,2018_may._04_1847,60.0029185971,Experimento Piloto1,001,108,
2.5,Stim\\03_019.jpg,Tr19_2,Tristeza,2,Jonathan pasea al perro.,Afirmación,Tr19,19,,,,,,,,,,,,,0,42,42,42,,,,,3,0.450287405434,2018_may._04_1847,60.0029185971,Experimento Piloto1,001,108,
0.25,Stim\\03_075.jpg,Tr75_15,Tristeza,15,Ángel envía una carta a la abuela.,Afirmación,Tr75,75,,,,,,,,,,,,,0,43,43,43,,,,,3,0.850353271504,2018_may._04_1847,60.0029185971,Experimento Piloto1,001,108,
0.25,Stim\\05_019.jpg,En19_1,Enojo,1,Juan colecciona monedas antiguas.,Afirmación,En19,19,,,,,,,,,,,,,0,44,44,44,,,,,2,0.700258064688,2018_may._04_1847,60.0029185971,Experimento Piloto1,001,108,
0.25,Stim\\03_078.jpg,Tr78_2,Tristeza,2,Jonathan pasea al perro.,Afirmación,Tr78,78,,,,,,,,,,,,,0,45,45,45,,,,,4,0.550011133862,2018_may._04_1847,60.0029185971,Experimento Piloto1,001,108,
2.5,Stim\\02_019.jpg,Al19_9,Alegría,9,Marco colabora en la organización del evento.,Afirmación,Al19,19,,,,,,,,,,,,,0,46,46,46,,,,,3,0.650354253248,2018_may._04_1847,60.0029185971,Experimento Piloto1,001,108,
2.5,Stim\\03_028.jpg,Tr28_11,Tristeza,11,María asiste a la cena.,Afirmación,Tr28,28,,,,,,,,,,,,,0,47,47,47,,,,,4,0.483873299741,2018_may._04_1847,60.0029185971,Experimento Piloto1,001,108,
2.5,Stim\\05_078.jpg,En78_6,Enojo,6,Eduardo camina hacia la biblioteca.,Afirmación,En78,78,,,,,,,,,,,,,0,48,48,48,,,,,2,1.11691628985,2018_may._04_1847,60.0029185971,Experimento Piloto1,001,108,
2.5,Stim\\02_028.jpg,Al28_14,Alegría,14,Elizabeth elige la ropa un día antes.,Afirmación,Al28,28,,,,,,,,,,,,,0,49,49,49,,,,,3,0.400002498984,2018_may._04_1847,60.0029185971,Experimento Piloto1,001,108,
0.25,Stim\\03_019.jpg,Tr19_10,Tristeza,10,Laura finaliza la obra.,Afirmación,Tr19,19,,,,,,,,,,,,,0,50,50,50,,,,,3,0.500369269463,2018_may._04_1847,60.0029185971,Experimento Piloto1,001,108,
2.5,Stim\\05_019.jpg,En19_2,Enojo,2,Jonathan pasea al perro.,Afirmación,En19,19,,,,,,,,,,,,,0,51,51,51,,,,,2,0.53370124918,2018_may._04_1847,60.0029185971,Experimento Piloto1,001,108,
0.25,Stim\\05_078.jpg,En78_5,Enojo,5,Emilio revisa el formato del archivo.,Afirmación,En78,78,,,,,,,,,,,,,0,52,52,52,,,,,2,1.16676208917,2018_may._04_1847,60.0029185971,Experimento Piloto1,001,108,
2.5,Stim\\02_075.jpg,Al75_5,Alegría,5,Emilio revisa el formato del archivo.,Afirmación,Al75,75,,,,,,,,,,,,,0,53,53,53,,,,,3,0.433566973432,2018_may._04_1847,60.0029185971,Experimento Piloto1,001,108,
0.25,Stim\\05_028.jpg,En28_9,Enojo,9,Marco colabora en la organización del evento.,Afirmación,En28,28,,,,,,,,,,,,,0,54,54,54,,,,,2,0.400344324247,2018_may._04_1847,60.0029185971,Experimento Piloto1,001,108,
2.5,Stim\\03_019.jpg,Tr19_1,Tristeza,1,Juan colecciona monedas antiguas.,Afirmación,Tr19,19,,,,,,,,,,,,,0,55,55,55,,,,,3,0.400344324251,2018_may._04_1847,60.0029185971,Experimento Piloto1,001,108,
0.25,Stim\\02_028.jpg,Al28_3,Alegría,3,Andrea diseña la portada del libro.,Afirmación,Al28,28,,,,,,,,,,,,,0,56,56,56,,,,,3,0.350245949081,2018_may._04_1847,60.0029185971,Experimento Piloto1,001,108,
0.25,Stim\\05_028.jpg,En28_5,Enojo,5,Emilio revisa el formato del archivo.,Afirmación,En28,28,,,,,,,,,,,,,0,57,57,57,,,,,2,0.533657516968,2018_may._04_1847,60.0029185971,Experimento Piloto1,001,108,
2.5,Stim\\03_078.jpg,Tr78_15,Tristeza,15,Ángel envía una carta a la abuela.,Afirmación,Tr78,78,,,,,,,,,,,,,0,58,58,58,,,,,4,0.650200298001,2018_may._04_1847,60.0029185971,Experimento Piloto1,001,108,
0.25,Stim\\02_078.jpg,Al78_10,Alegría,10,Laura finaliza la obra.,Afirmación,Al78,78,,,,,,,,,,,,,0,59,59,59,,,,,3,0.383520809173,2018_may._04_1847,60.0029185971,Experimento Piloto1,001,108,
0.25,Stim\\03_075.jpg,Tr75_7,Tristeza,7,Roberto contesta los cuestionarios solicitados.,Afirmación,Tr75,75,,,,,,,,,,,,,0,60,60,60,,,,,4,2.13310747281,2018_may._04_1847,60.0029185971,Experimento Piloto1,001,108,
0.25,Stim\\03_075.jpg,Tr75_5,Tristeza,5,Emilio revisa el formato del archivo.,Afirmación,Tr75,75,,,,,,,,,,,,,0,61,61,61,,,,,4,0.650534983317,2018_may._04_1847,60.0029185971,Experimento Piloto1,001,108,
0.25,Stim\\05_075.jpg,En75_14,Enojo,14,Elizabeth elige la ropa un día antes.,Afirmación,En75,75,,,,,,,,,,,,,0,62,62,62,,,,,2,0.550257908504,2018_may._04_1847,60.0029185971,Experimento Piloto1,001,108,
0.25,Stim\\05_075.jpg,En75_2,Enojo,2,Jonathan pasea al perro.,Afirmación,En75,75,,,,,,,,,,,,,0,63,63,63,,,,,2,0.483708634569,2018_may._04_1847,60.0029185971,Experimento Piloto1,001,108,
0.25,Stim\\02_078.jpg,Al78_6,Alegría,6,Eduardo camina hacia la biblioteca.,Afirmación,Al78,78,,,,,,,,,,,,,0,64,64,64,,,,,3,0.50039292056,2018_may._04_1847,60.0029185971,Experimento Piloto1,001,108,
0.25,Stim\\03_075.jpg,Tr75_4,Tristeza,4,Jorge sustituye a Gustavo cada sábado.,Afirmación,Tr75,75,,,,,,,,,,,,,0,65,65,65,,,,,4,0.450203510984,2018_may._04_1847,60.0029185971,Experimento Piloto1,001,108,
0.25,Stim\\03_075.jpg,Tr75_3,Tristeza,3,Andrea diseña la portada del libro.,Afirmación,Tr75,75,,,,,,,,,,,,,0,66,66,66,,,,,4,0.45024813569,2018_may._04_1847,60.0029185971,Experimento Piloto1,001,108,
0.25,Stim\\02_028.jpg,Al28_10,Alegría,10,Laura finaliza la obra.,Afirmación,Al28,28,,,,,,,,,,,,,0,67,67,67,,,,,3,0.50058212932,2018_may._04_1847,60.0029185971,Experimento Piloto1,001,108,
0.25,Stim\\03_028.jpg,Tr28_12,Tristeza,12,Ana compra el libro.,Afirmación,Tr28,28,,,,,,,,,,,,,0,68,68,68,,,,,4,0.38364308087,2018_may._04_1847,60.0029185971,Experimento Piloto1,001,108,
0.25,Stim\\03_075.jpg,Tr75_10,Tristeza,10,Laura finaliza la obra.,Afirmación,Tr75,75,,,,,,,,,,,,,0,69,69,69,,,,,4,0.500258600186,2018_may._04_1847,60.0029185971,Experimento Piloto1,001,108,
0.25,Stim\\02_028.jpg,Al28_8,Alegría,8,Estefanía despierta a las 7 a.m.,Afirmación,Al28,28,,,,,,,,,,,,,0,70,70,70,,,,,3,0.40031844192,2018_may._04_1847,60.0029185971,Experimento Piloto1,001,108,
0.25,Stim\\05_078.jpg,En78_14,Enojo,14,Elizabeth elige la ropa un día antes.,Afirmación,En78,78,,,,,,,,,,,,,0,71,71,71,,,,,2,0.400227853763,2018_may._04_1847,60.0029185971,Experimento Piloto1,001,108,
2.5,Stim\\03_078.jpg,Tr78_9,Tristeza,9,Marco colabora en la organización del evento.,Afirmación,Tr78,78,,,,,,,,,,,,,0,72,72,72,,,,,4,0.400252843599,2018_may._04_1847,60.0029185971,Experimento Piloto1,001,108,
0.25,Stim\\02_019.jpg,Al19_3,Alegría,3,Andrea diseña la portada del libro.,Afirmación,Al19,19,,,,,,,,,,,,,0,73,73,73,,,,,3,0.400361281641,2018_may._04_1847,60.0029185971,Experimento Piloto1,001,108,
0.25,Stim\\03_078.jpg,Tr78_6,Tristeza,6,Eduardo camina hacia la biblioteca.,Afirmación,Tr78,78,,,,,,,,,,,,,0,74,74,74,,,,,4,0.383835413366,2018_may._04_1847,60.0029185971,Experimento Piloto1,001,108,
0.25,Stim\\03_028.jpg,Tr28_8,Tristeza,8,Estefanía despierta a las 7 a.m.,Afirmación,Tr28,28,,,,,,,,,,,,,0,75,75,75,,,,,4,0.800110758526,2018_may._04_1847,60.0029185971,Experimento Piloto1,001,108,
2.5,Stim\\05_078.jpg,En78_9,Enojo,9,Marco colabora en la organización del evento.,Afirmación,En78,78,,,,,,,,,,,,,0,76,76,76,,,,,2,0.600390198451,2018_may._04_1847,60.0029185971,Experimento Piloto1,001,108,
2.5,Stim\\02_028.jpg,Al28_6,Alegría,6,Eduardo camina hacia la biblioteca.,Afirmación,Al28,28,,,,,,,,,,,,,0,77,77,77,,,,,3,0.400293452083,2018_may._04_1847,60.0029185971,Experimento Piloto1,001,108,
2.5,Stim\\03_078.jpg,Tr78_6,Tristeza,6,Eduardo camina hacia la biblioteca.,Afirmación,Tr78,78,,,,,,,,,,,,,0,78,78,78,,,,,4,0.400223837536,2018_may._04_1847,60.0029185971,Experimento Piloto1,001,108,
2.5,Stim\\02_078.jpg,Al78_2,Alegría,2,Jonathan pasea al perro.,Afirmación,Al78,78,,,,,,,,,,,,,0,79,79,79,,,,,3,0.500276450068,2018_may._04_1847,60.0029185971,Experimento Piloto1,001,108,
2.5,Stim\\02_028.jpg,Al28_10,Alegría,10,Laura finaliza la obra.,Afirmación,Al28,28,,,,,,,,,,,,,0,80,80,80,,,,,3,0.433743687277,2018_may._04_1847,60.0029185971,Experimento Piloto1,001,108,
2.5,Stim\\02_019.jpg,Al19_15,Alegría,15,Ángel envía una carta a la abuela.,Afirmación,Al19,19,,,,,,,,,,,,,0,81,81,81,,,,,3,0.400302823273,2018_may._04_1847,60.0029185971,Experimento Piloto1,001,108,
0.25,Stim\\03_019.jpg,Tr19_5,Tristeza,5,Emilio revisa el formato del archivo.,Afirmación,Tr19,19,,,,,,,,,,,,,0,82,82,82,,,,,3,0.550273080902,2018_may._04_1847,60.0029185971,Experimento Piloto1,001,108,
0.25,Stim\\02_075.jpg,Al75_12,Alegría,12,Ana compra el libro.,Afirmación,Al75,75,,,,,,,,,,,,,0,83,83,83,,,,,3,0.38379168115,2018_may._04_1847,60.0029185971,Experimento Piloto1,001,108,
2.5,Stim\\05_078.jpg,En78_3,Enojo,3,Andrea diseña la portada del libro.,Afirmación,En78,78,,,,,,,,,,,,,0,84,84,84,,,,,2,0.400683472035,2018_may._04_1847,60.0029185971,Experimento Piloto1,001,108,
2.5,Stim\\03_075.jpg,Tr75_5,Tristeza,5,Emilio revisa el formato del archivo.,Afirmación,Tr75,75,,,,,,,,,,,,,0,85,85,85,,,,,4,0.350411506748,2018_may._04_1847,60.0029185971,Experimento Piloto1,001,108,
2.5,Stim\\05_028.jpg,En28_2,Enojo,2,Jonathan pasea al perro.,Afirmación,En28,28,,,,,,,,,,,,,0,86,86,86,,,,,2,0.550472999596,2018_may._04_1847,60.0029185971,Experimento Piloto1,001,108,
0.25,Stim\\03_028.jpg,Tr28_9,Tristeza,9,Marco colabora en la organización del evento.,Afirmación,Tr28,28,,,,,,,,,,,,,0,87,87,87,,,,,4,0.400283188399,2018_may._04_1847,60.0029185971,Experimento Piloto1,001,108,
0.25,Stim\\03_078.jpg,Tr78_9,Tristeza,9,Marco colabora en la organización del evento.,Afirmación,Tr78,78,,,,,,,,,,,,,0,88,88,88,,,,,4,0.449793409913,2018_may._04_1847,60.0029185971,Experimento Piloto1,001,108,
2.5,Stim\\03_075.jpg,Tr75_12,Tristeza,12,Ana compra el libro.,Afirmación,Tr75,75,,,,,,,,,,,,,0,89,89,89,,,,,4,0.300320717783,2018_may._04_1847,60.0029185971,Experimento Piloto1,001,108,
2.5,Stim\\05_078.jpg,En78_11,Enojo,11,María asiste a la cena.,Afirmación,En78,78,,,,,,,,,,,,,0,90,90,90,,,,,2,0.350045137893,2018_may._04_1847,60.0029185971,Experimento Piloto1,001,108,
2.5,Stim\\02_075.jpg,Al75_14,Alegría,14,Elizabeth elige la ropa un día antes.,Afirmación,Al75,75,,,,,,,,,,,,,0,91,91,91,,,,,3,0.38360336488,2018_may._04_1847,60.0029185971,Experimento Piloto1,001,108,
0.25,Stim\\03_019.jpg,Tr19_7,Tristeza,7,Roberto contesta los cuestionarios solicitados.,Afirmación,Tr19,19,,,,,,,,,,,,,0,92,92,92,,,,,3,0.33371829582,2018_may._04_1847,60.0029185971,Experimento Piloto1,001,108,
0.25,Stim\\05_075.jpg,En75_5,Enojo,5,Emilio revisa el formato del archivo.,Afirmación,En75,75,,,,,,,,,,,,,0,93,93,93,,,,,2,0.400541565465,2018_may._04_1847,60.0029185971,Experimento Piloto1,001,108,
2.5,Stim\\05_019.jpg,En19_14,Enojo,14,Elizabeth elige la ropa un día antes.,Afirmación,En19,19,,,,,,,,,,,,,0,94,94,94,,,,,2,0.483642589999,2018_may._04_1847,60.0029185971,Experimento Piloto1,001,108,
0.25,Stim\\02_075.jpg,Al75_2,Alegría,2,Jonathan pasea al perro.,Afirmación,Al75,75,,,,,,,,,,,,,0,95,95,95,,,,,3,0.383695291781,2018_may._04_1847,60.0029185971,Experimento Piloto1,001,108,
2.5,Stim\\03_028.jpg,Tr28_10,Tristeza,10,Laura finaliza la obra.,Afirmación,Tr28,28,,,,,,,,,,,,,0,96,96,96,,,,,4,0.483571636716,2018_may._04_1847,60.0029185971,Experimento Piloto1,001,108,
2.5,Stim\\02_078.jpg,Al78_3,Alegría,3,Andrea diseña la portada del libro.,Afirmación,Al78,78,,,,,,,,,,,,,0,97,97,97,,,,,3,0.4002064339,2018_may._04_1847,60.0029185971,Experimento Piloto1,001,108,
2.5,Stim\\05_075.jpg,En75_3,Enojo,3,Andrea diseña la portada del libro.,Afirmación,En75,75,,,,,,,,,,,,,0,98,98,98,,,,,2,0.433865958978,2018_may._04_1847,60.0029185971,Experimento Piloto1,001,108,
2.5,Stim\\03_075.jpg,Tr75_3,Tristeza,3,Andrea diseña la portada del libro.,Afirmación,Tr75,75,,,,,,,,,,,,,0,99,99,99,,,,,4,1.31678589645,2018_may._04_1847,60.0029185971,Experimento Piloto1,001,108,
2.5,Stim\\03_075.jpg,Tr75_7,Tristeza,7,Roberto contesta los cuestionarios solicitados.,Afirmación,Tr75,75,,,,,,,,,,,,,0,100,100,100,,,,,4,0.333728559501,2018_may._04_1847,60.0029185971,Experimento Piloto1,001,108,
2.5,Stim\\03_019.jpg,Tr19_14,Tristeza,14,Elizabeth elige la ropa un día antes.,Afirmación,Tr19,19,,,,,,,,,,,,,0,101,101,101,,,,,3,0.599957785027,2018_may._04_1847,60.0029185971,Experimento Piloto1,001,108,
2.5,Stim\\05_078.jpg,En78_5,Enojo,5,Emilio revisa el formato del archivo.,Afirmación,En78,78,,,,,,,,,,,,,0,102,102,102,,,,,2,0.400263553525,2018_may._04_1847,60.0029185971,Experimento Piloto1,001,108,
2.5,Stim\\02_078.jpg,Al78_12,Alegría,12,Ana compra el libro.,Afirmación,Al78,78,,,,,,,,,,,,,0,103,103,103,,,,,3,0.450286066694,2018_may._04_1847,60.0029185971,Experimento Piloto1,001,108,
2.5,Stim\\02_028.jpg,Al28_13,Alegría,13,Rocío consume alimentos nutritivos.,Afirmación,Al28,28,,,,,,,,,,,,,0,104,104,104,,,,,3,0.450235194527,2018_may._04_1847,60.0029185971,Experimento Piloto1,001,108,
2.5,Stim\\05_028.jpg,En28_4,Enojo,4,Jorge sustituye a Gustavo cada sábado.,Afirmación,En28,28,,,,,,,,,,,,,0,105,105,105,,,,,2,0.866799261552,2018_may._04_1847,60.0029185971,Experimento Piloto1,001,108,
0.25,Stim\\02_028.jpg,Al28_7,Alegría,7,Roberto contesta los cuestionarios solicitados.,Afirmación,Al28,28,,,,,,,,,,,,,0,106,106,106,,,,,3,0.400670530868,2018_may._04_1847,60.0029185971,Experimento Piloto1,001,108,
0.25,Stim\\02_078.jpg,Al78_12,Alegría,12,Ana compra el libro.,Afirmación,Al78,78,,,,,,,,,,,,,0,107,107,107,,,,,3,0.500589715521,2018_may._04_1847,60.0029185971,Experimento Piloto1,001,108,
2.5,Stim\\02_028.jpg,Al28_7,Alegría,7,Roberto contesta los cuestionarios solicitados.,Afirmación,Al28,28,,,,,,,,,,,,,0,108,108,108,,,,,3,0.400307285745,2018_may._04_1847,60.0029185971,Experimento Piloto1,001,108,
0.25,Stim\\02_075.jpg,Al75_7,Alegría,7,Roberto contesta los cuestionarios solicitados.,Afirmación,Al75,75,,,,,,,,,,,,,0,109,109,109,,,,,3,0.533757476311,2018_may._04_1847,60.0029185971,Experimento Piloto1,001,108,
0.25,Stim\\05_075.jpg,En75_10,Enojo,10,Laura finaliza la obra.,Afirmación,En75,75,,,,,,,,,,,,,0,110,110,110,,,,,2,0.800271853721,2018_may._04_1847,60.0029185971,Experimento Piloto1,001,108,
2.5,Stim\\05_028.jpg,En28_8,Enojo,8,Estefanía despierta a las 7 a.m.,Afirmación,En28,28,,,,,,,,,,,,,0,111,111,111,,,,,2,0.650345774553,2018_may._04_1847,60.0029185971,Experimento Piloto1,001,108,
0.25,Stim\\03_075.jpg,Tr75_6,Tristeza,6,Eduardo camina hacia la biblioteca.,Afirmación,Tr75,75,,,,,,,,,,,,,0,112,112,112,,,,,4,0.450252598162,2018_may._04_1847,60.0029185971,Experimento Piloto1,001,108,
0.25,Stim\\02_078.jpg,Al78_4,Alegría,4,Jorge sustituye a Gustavo cada sábado.,Afirmación,Al78,78,,,,,,,,,,,,,0,113,113,113,,,,,3,0.400315764437,2018_may._04_1847,60.0029185971,Experimento Piloto1,001,108,
2.5,Stim\\02_019.jpg,Al19_13,Alegría,13,Rocío consume alimentos nutritivos.,Afirmación,Al19,19,,,,,,,,,,,,,0,114,114,114,,,,,3,0.433815979304,2018_may._04_1847,60.0029185971,Experimento Piloto1,001,108,
0.25,Stim\\02_078.jpg,Al78_15,Alegría,15,Ángel envía una carta a la abuela.,Afirmación,Al78,78,,,,,,,,,,,,,0,115,115,115,,,,,3,0.333642880061,2018_may._04_1847,60.0029185971,Experimento Piloto1,001,108,
2.5,Stim\\05_019.jpg,En19_4,Enojo,4,Jorge sustituye a Gustavo cada sábado.,Afirmación,En19,19,,,,,,,,,,,,,0,116,116,116,,,,,2,0.450322658951,2018_may._04_1847,60.0029185971,Experimento Piloto1,001,108,
2.5,Stim\\05_075.jpg,En75_9,Enojo,9,Marco colabora en la organización del evento.,Afirmación,En75,75,,,,,,,,,,,,,0,117,117,117,,,,,2,0.383589531222,2018_may._04_1847,60.0029185971,Experimento Piloto1,001,108,
0.25,Stim\\05_078.jpg,En78_8,Enojo,8,Estefanía despierta a las 7 a.m.,Afirmación,En78,78,,,,,,,,,,,,,0,118,118,118,,,,,2,0.450403429677,2018_may._04_1847,60.0029185971,Experimento Piloto1,001,108,
0.25,Stim\\03_075.jpg,Tr75_12,Tristeza,12,Ana compra el libro.,Afirmación,Tr75,75,,,,,,,,,,,,,0,119,119,119,,,,,4,0.350348139662,2018_may._04_1847,60.0029185971,Experimento Piloto1,001,108,
