Tiempo,ImagenesE,ClaveEn,Emocion,NumEn,Enunciado,ActoHabla,Clave,Cara,trials.thisRepN,trials.thisTrialN,trials.thisN,trials.thisIndex,Bloque3.thisRepN,Bloque3.thisTrialN,Bloque3.thisN,Bloque3.thisIndex,Bloque2.thisRepN,Bloque2.thisTrialN,Bloque2.thisN,Bloque2.thisIndex,Bloque1.thisRepN,Bloque1.thisTrialN,Bloque1.thisN,Bloque1.thisIndex,Resp_Bloque3.keys,Resp_Bloque3.rt,Resp_Bloque2.keys,Resp_Bloque2.rt,Resp_Bloque1.keys,Resp_Bloque1.rt,date,frameRate,expName,session,participant,
0.25,Stim\\02_075.jpg,Al75_11,Alegría,11,María asiste a la cena.,Afirmación,Al75,75,,,,,0,0,0,0,,,,,,,,,4,4.59889883824,,,,,2018_may._05_1417,60.0268940337,Experimento Piloto1,001,109,
2.5,Stim\\03_019.jpg,Tr19_9,Tristeza,9,Marco colabora en la organización del evento.,Afirmación,Tr19,19,,,,,0,1,1,1,,,,,,,,,2,1.66671203522,,,,,2018_may._05_1417,60.0268940337,Experimento Piloto1,001,109,
2.5,Stim\\02_075.jpg,Al75_8,Alegría,8,Estefanía despierta a las 7 a.m.,Afirmación,Al75,75,,,,,0,2,2,2,,,,,,,,,3,0.700446605078,,,,,2018_may._05_1417,60.0268940337,Experimento Piloto1,001,109,
2.5,Stim\\03_075.jpg,Tr75_13,Tristeza,13,Rocío consume alimentos nutritivos.,Afirmación,Tr75,75,,,,,0,3,3,3,,,,,,,,,4,1.00022223154,,,,,2018_may._05_1417,60.0268940337,Experimento Piloto1,001,109,
0.25,Stim\\03_019.jpg,Tr19_15,Tristeza,15,Ángel envía una carta a la abuela.,Afirmación,Tr19,19,,,,,0,4,4,4,,,,,,,,,3,1.83324780245,,,,,2018_may._05_1417,60.0268940337,Experimento Piloto1,001,109,
2.5,Stim\\05_075.jpg,En75_11,Enojo,11,María asiste a la cena.,Afirmación,En75,75,,,,,0,5,5,5,,,,,,,,,2,0.750290730624,,,,,2018_may._05_1417,60.0268940337,Experimento Piloto1,001,109,
0.25,Stim\\05_028.jpg,En28_4,Enojo,4,Jorge sustituye a Gustavo cada sábado.,Afirmación,En28,28,,,,,0,6,6,6,,,,,,,,,3,2.94954853082,,,,,2018_may._05_1417,60.0268940337,Experimento Piloto1,001,109,
2.5,Stim\\05_028.jpg,En28_9,Enojo,9,Marco colabora en la organización del evento.,Afirmación,En28,28,,,,,0,7,7,7,,,,,,,,,2,1.78332915348,,,,,2018_may._05_1417,60.0268940337,Experimento Piloto1,001,109,
2.5,Stim\\03_075.jpg,Tr75_9,Tristeza,9,Marco colabora en la organización del evento.,Afirmación,Tr75,75,,,,,0,8,8,8,,,,,,,,,4,1.38308523428,,,,,2018_may._05_1417,60.0268940337,Experimento Piloto1,001,109,
2.5,Stim\\05_028.jpg,En28_15,Enojo,15,Ángel envía una carta a la abuela.,Afirmación,En28,28,,,,,0,9,9,9,,,,,,,,,2,3.68269664145,,,,,2018_may._05_1417,60.0268940337,Experimento Piloto1,001,109,
0.25,Stim\\03_078.jpg,Tr78_8,Tristeza,8,Estefanía despierta a las 7 a.m.,Afirmación,Tr78,78,,,,,0,10,10,10,,,,,,,,,3,1.98341519011,,,,,2018_may._05_1417,60.0268940337,Experimento Piloto1,001,109,
0.25,Stim\\02_075.jpg,Al75_1,Alegría,1,Juan colecciona monedas antiguas.,Afirmación,Al75,75,,,,,0,11,11,11,,,,,,,,,3,0.533578829277,,,,,2018_may._05_1417,60.0268940337,Experimento Piloto1,001,109,
0.25,Stim\\05_078.jpg,En78_11,Enojo,11,María asiste a la cena.,Afirmación,En78,78,,,,,0,12,12,12,,,,,,,,,2,0.550447899198,,,,,2018_may._05_1417,60.0268940337,Experimento Piloto1,001,109,
2.5,Stim\\03_028.jpg,Tr28_15,Tristeza,15,Ángel envía una carta a la abuela.,Afirmación,Tr28,28,,,,,0,13,13,13,,,,,,,,,2,0.700189566184,,,,,2018_may._05_1417,60.0268940337,Experimento Piloto1,001,109,
2.5,Stim\\02_019.jpg,Al19_3,Alegría,3,Andrea diseña la portada del libro.,Afirmación,Al19,19,,,,,0,14,14,14,,,,,,,,,4,1.68321473547,,,,,2018_may._05_1417,60.0268940337,Experimento Piloto1,001,109,
2.5,Stim\\05_019.jpg,En19_5,Enojo,5,Emilio revisa el formato del archivo.,Afirmación,En19,19,,,,,0,15,15,15,,,,,,,,,2,0.500212860334,,,,,2018_may._05_1417,60.0268940337,Experimento Piloto1,001,109,
0.25,Stim\\02_028.jpg,Al28_11,Alegría,11,María asiste a la cena.,Afirmación,Al28,28,,,,,0,16,16,16,,,,,,,,,3,1.93324887345,,,,,2018_may._05_1417,60.0268940337,Experimento Piloto1,001,109,
0.25,Stim\\03_019.jpg,Tr19_11,Tristeza,11,María asiste a la cena.,Afirmación,Tr19,19,,,,,0,17,17,17,,,,,,,,,2,0.533528849492,,,,,2018_may._05_1417,60.0268940337,Experimento Piloto1,001,109,
2.5,Stim\\03_078.jpg,Tr78_14,Tristeza,14,Elizabeth elige la ropa un día antes.,Afirmación,Tr78,78,,,,,0,18,18,18,,,,,,,,,4,2.2998492574,,,,,2018_may._05_1417,60.0268940337,Experimento Piloto1,001,109,
0.25,Stim\\02_019.jpg,Al19_9,Alegría,9,Marco colabora en la organización del evento.,Afirmación,Al19,19,,,,,0,19,19,19,,,,,,,,,3,1.31676518337,,,,,2018_may._05_1417,60.0268940337,Experimento Piloto1,001,109,
2.5,Stim\\02_075.jpg,Al75_11,Alegría,11,María asiste a la cena.,Afirmación,Al75,75,,,,,0,20,20,20,,,,,,,,,3,0.866847605388,,,,,2018_may._05_1417,60.0268940337,Experimento Piloto1,001,109,
0.25,Stim\\02_028.jpg,Al28_4,Alegría,4,Jorge sustituye a Gustavo cada sábado.,Afirmación,Al28,28,,,,,0,21,21,21,,,,,,,,,3,0.750157748696,,,,,2018_may._05_1417,60.0268940337,Experimento Piloto1,001,109,
2.5,Stim\\02_075.jpg,Al75_10,Alegría,10,Laura finaliza la obra.,Afirmación,Al75,75,,,,,0,22,22,22,,,,,,,,,3,0.600640098246,,,,,2018_may._05_1417,60.0268940337,Experimento Piloto1,001,109,
0.25,Stim\\05_075.jpg,En75_4,Enojo,4,Jorge sustituye a Gustavo cada sábado.,Afirmación,En75,75,,,,,0,23,23,23,,,,,,,,,2,1.66670311026,,,,,2018_may._05_1417,60.0268940337,Experimento Piloto1,001,109,
2.5,Stim\\02_028.jpg,Al28_11,Alegría,11,María asiste a la cena.,Afirmación,Al28,28,,,,,0,24,24,24,,,,,,,,,3,8.69992003234,,,,,2018_may._05_1417,60.0268940337,Experimento Piloto1,001,109,
0.25,Stim\\02_078.jpg,Al78_1,Alegría,1,Juan colecciona monedas antiguas.,Afirmación,Al78,78,,,,,0,25,25,25,,,,,,,,,3,1.41676134563,,,,,2018_may._05_1417,60.0268940337,Experimento Piloto1,001,109,
2.5,Stim\\02_019.jpg,Al19_7,Alegría,7,Roberto contesta los cuestionarios solicitados.,Afirmación,Al19,19,,,,,0,26,26,26,,,,,,,,,3,1.7829971449,,,,,2018_may._05_1417,60.0268940337,Experimento Piloto1,001,109,
0.25,Stim\\05_028.jpg,En28_15,Enojo,15,Ángel envía una carta a la abuela.,Afirmación,En28,28,,,,,0,27,27,27,,,,,,,,,2,1.31682899684,,,,,2018_may._05_1417,60.0268940337,Experimento Piloto1,001,109,
0.25,Stim\\03_075.jpg,Tr75_2,Tristeza,2,Jonathan pasea al perro.,Afirmación,Tr75,75,,,,,0,28,28,28,,,,,,,,,3,1.98312468261,,,,,2018_may._05_1417,60.0268940337,Experimento Piloto1,001,109,
0.25,Stim\\05_075.jpg,En75_3,Enojo,3,Andrea diseña la portada del libro.,Afirmación,En75,75,,,,,0,29,29,29,,,,,,,,,2,0.650342316902,,,,,2018_may._05_1417,60.0268940337,Experimento Piloto1,001,109,
2.5,Stim\\05_028.jpg,En28_10,Enojo,10,Laura finaliza la obra.,Afirmación,En28,28,,,,,0,30,30,30,,,,,,,,,2,1.0667868264,,,,,2018_may._05_1417,60.0268940337,Experimento Piloto1,001,109,
0.25,Stim\\05_019.jpg,En19_4,Enojo,4,Jorge sustituye a Gustavo cada sábado.,Afirmación,En19,19,,,,,0,31,31,31,,,,,,,,,2,1.16680351608,,,,,2018_may._05_1417,60.0268940337,Experimento Piloto1,001,109,
2.5,Stim\\02_078.jpg,Al78_1,Alegría,1,Juan colecciona monedas antiguas.,Afirmación,Al78,78,,,,,0,32,32,32,,,,,,,,,3,1.31663354018,,,,,2018_may._05_1417,60.0268940337,Experimento Piloto1,001,109,
0.25,Stim\\05_075.jpg,En75_6,Enojo,6,Eduardo camina hacia la biblioteca.,Afirmación,En75,75,,,,,0,33,33,33,,,,,,,,,2,1.21686674943,,,,,2018_may._05_1417,60.0268940337,Experimento Piloto1,001,109,
2.5,Stim\\02_019.jpg,Al19_12,Alegría,12,Ana compra el libro.,Afirmación,Al19,19,,,,,0,34,34,34,,,,,,,,,4,2.54956120426,,,,,2018_may._05_1417,60.0268940337,Experimento Piloto1,001,109,
0.25,Stim\\05_075.jpg,En75_8,Enojo,8,Estefanía despierta a las 7 a.m.,Afirmación,En75,75,,,,,0,35,35,35,,,,,,,,,3,3.56604025336,,,,,2018_may._05_1417,60.0268940337,Experimento Piloto1,001,109,
2.5,Stim\\03_028.jpg,Tr28_4,Tristeza,4,Jorge sustituye a Gustavo cada sábado.,Afirmación,Tr28,28,,,,,0,36,36,36,,,,,,,,,4,1.05018505908,,,,,2018_may._05_1417,60.0268940337,Experimento Piloto1,001,109,
0.25,Stim\\03_078.jpg,Tr78_12,Tristeza,12,Ana compra el libro.,Afirmación,Tr78,78,,,,,0,37,37,37,,,,,,,,,4,0.750225132156,,,,,2018_may._05_1417,60.0268940337,Experimento Piloto1,001,109,
2.5,Stim\\03_019.jpg,Tr19_3,Tristeza,3,Andrea diseña la portada del libro.,Afirmación,Tr19,19,,,,,0,38,38,38,,,,,,,,,2,1.11671752407,,,,,2018_may._05_1417,60.0268940337,Experimento Piloto1,001,109,
2.5,Stim\\05_075.jpg,En75_4,Enojo,4,Jorge sustituye a Gustavo cada sábado.,Afirmación,En75,75,,,,,0,39,39,39,,,,,,,,,2,1.41676982435,,,,,2018_may._05_1417,60.0268940337,Experimento Piloto1,001,109,
0.25,Stim\\05_078.jpg,En78_6,Enojo,6,Eduardo camina hacia la biblioteca.,Afirmación,En78,78,,,,,0,40,40,40,,,,,,,,,2,0.400329152584,,,,,2018_may._05_1417,60.0268940337,Experimento Piloto1,001,109,
0.25,Stim\\03_078.jpg,Tr78_3,Tristeza,3,Andrea diseña la portada del libro.,Afirmación,Tr78,78,,,,,0,41,41,41,,,,,,,,,3,1.16672676141,,,,,2018_may._05_1417,60.0268940337,Experimento Piloto1,001,109,
0.25,Stim\\05_078.jpg,En78_15,Enojo,15,Ángel envía una carta a la abuela.,Afirmación,En78,78,,,,,0,42,42,42,,,,,,,,,3,1.53324280447,,,,,2018_may._05_1417,60.0268940337,Experimento Piloto1,001,109,
2.5,Stim\\05_078.jpg,En78_2,Enojo,2,Jonathan pasea al perro.,Afirmación,En78,78,,,,,0,43,43,43,,,,,,,,,2,0.350041902695,,,,,2018_may._05_1417,60.0268940337,Experimento Piloto1,001,109,
2.5,Stim\\02_078.jpg,Al78_4,Alegría,4,Jorge sustituye a Gustavo cada sábado.,Afirmación,Al78,78,,,,,0,44,44,44,,,,,,,,,3,1.78330728732,,,,,2018_may._05_1417,60.0268940337,Experimento Piloto1,001,109,
2.5,Stim\\05_078.jpg,En78_4,Enojo,4,Jorge sustituye a Gustavo cada sábado.,Afirmación,En78,78,,,,,0,45,45,45,,,,,,,,,2,2.34970587789,,,,,2018_may._05_1417,60.0268940337,Experimento Piloto1,001,109,
0.25,Stim\\05_019.jpg,En19_9,Enojo,9,Marco colabora en la organización del evento.,Afirmación,En19,19,,,,,0,46,46,46,,,,,,,,,2,0.383748805171,,,,,2018_may._05_1417,60.0268940337,Experimento Piloto1,001,109,
0.25,Stim\\05_019.jpg,En19_15,Enojo,15,Ángel envía una carta a la abuela.,Afirmación,En19,19,,,,,0,47,47,47,,,,,,,,,2,0.40010915228,,,,,2018_may._05_1417,60.0268940337,Experimento Piloto1,001,109,
2.5,Stim\\02_028.jpg,Al28_2,Alegría,2,Jonathan pasea al perro.,Afirmación,Al28,28,,,,,0,48,48,48,,,,,,,,,3,1.63324432172,,,,,2018_may._05_1417,60.0268940337,Experimento Piloto1,001,109,
0.25,Stim\\03_075.jpg,Tr75_1,Tristeza,1,Juan colecciona monedas antiguas.,Afirmación,Tr75,75,,,,,0,49,49,49,,,,,,,,,3,3.09968334236,,,,,2018_may._05_1417,60.0268940337,Experimento Piloto1,001,109,
2.5,Stim\\02_028.jpg,Al28_12,Alegría,12,Ana compra el libro.,Afirmación,Al28,28,,,,,0,50,50,50,,,,,,,,,3,1.10014297788,,,,,2018_may._05_1417,60.0268940337,Experimento Piloto1,001,109,
0.25,Stim\\05_019.jpg,En19_5,Enojo,5,Emilio revisa el formato del archivo.,Afirmación,En19,19,,,,,0,51,51,51,,,,,,,,,2,0.400246150441,,,,,2018_may._05_1417,60.0268940337,Experimento Piloto1,001,109,
0.25,Stim\\02_075.jpg,Al75_9,Alegría,9,Marco colabora en la organización del evento.,Afirmación,Al75,75,,,,,0,52,52,52,,,,,,,,,4,2.49970324503,,,,,2018_may._05_1417,60.0268940337,Experimento Piloto1,001,109,
2.5,Stim\\03_019.jpg,Tr19_12,Tristeza,12,Ana compra el libro.,Afirmación,Tr19,19,,,,,0,53,53,53,,,,,,,,,2,1.5666011872,,,,,2018_may._05_1417,60.0268940337,Experimento Piloto1,001,109,
2.5,Stim\\02_019.jpg,Al19_4,Alegría,4,Jorge sustituye a Gustavo cada sábado.,Afirmación,Al19,19,,,,,0,54,54,54,,,,,,,,,3,1.10028309978,,,,,2018_may._05_1417,60.0268940337,Experimento Piloto1,001,109,
0.25,Stim\\02_019.jpg,Al19_12,Alegría,12,Ana compra el libro.,Afirmación,Al19,19,,,,,0,55,55,55,,,,,,,,,3,1.68325936028,,,,,2018_may._05_1417,60.0268940337,Experimento Piloto1,001,109,
2.5,Stim\\02_078.jpg,Al78_7,Alegría,7,Roberto contesta los cuestionarios solicitados.,Afirmación,Al78,78,,,,,0,56,56,56,,,,,,,,,4,1.56650033513,,,,,2018_may._05_1417,60.0268940337,Experimento Piloto1,001,109,
2.5,Stim\\03_078.jpg,Tr78_13,Tristeza,13,Rocío consume alimentos nutritivos.,Afirmación,Tr78,78,,,,,0,57,57,57,,,,,,,,,4,1.01741438507,,,,,2018_may._05_1417,60.0268940337,Experimento Piloto1,001,109,
2.5,Stim\\02_075.jpg,Al75_9,Alegría,9,Marco colabora en la organización del evento.,Afirmación,Al75,75,,,,,0,58,58,58,,,,,,,,,3,1.2667296174,,,,,2018_may._05_1417,60.0268940337,Experimento Piloto1,001,109,
0.25,Stim\\02_028.jpg,Al28_5,Alegría,5,Emilio revisa el formato del archivo.,Afirmación,Al28,28,,,,,0,59,59,59,,,,,,,,,4,1.3167580434,,,,,2018_may._05_1417,60.0268940337,Experimento Piloto1,001,109,
2.5,Stim\\03_028.jpg,Tr28_7,Tristeza,7,Roberto contesta los cuestionarios solicitados.,Afirmación,Tr28,28,,,,,0,60,60,60,,,,,,,,,4,0.966596992467,,,,,2018_may._05_1417,60.0268940337,Experimento Piloto1,001,109,
0.25,Stim\\05_078.jpg,En78_7,Enojo,7,Roberto contesta los cuestionarios solicitados.,Afirmación,En78,78,,,,,0,61,61,61,,,,,,,,,2,0.550297959843,,,,,2018_may._05_1417,60.0268940337,Experimento Piloto1,001,109,
2.5,Stim\\03_028.jpg,Tr28_5,Tristeza,5,Emilio revisa el formato del archivo.,Afirmación,Tr28,28,,,,,0,62,62,62,,,,,,,,,4,1.66671694395,,,,,2018_may._05_1417,60.0268940337,Experimento Piloto1,001,109,
0.25,Stim\\02_019.jpg,Al19_13,Alegría,13,Rocío consume alimentos nutritivos.,Afirmación,Al19,19,,,,,0,63,63,63,,,,,,,,,3,0.450338836167,,,,,2018_may._05_1417,60.0268940337,Experimento Piloto1,001,109,
2.5,Stim\\05_019.jpg,En19_13,Enojo,13,Rocío consume alimentos nutritivos.,Afirmación,En19,19,,,,,0,64,64,64,,,,,,,,,2,0.333199161411,,,,,2018_may._05_1417,60.0268940337,Experimento Piloto1,001,109,
2.5,Stim\\03_078.jpg,Tr78_4,Tristeza,4,Jorge sustituye a Gustavo cada sábado.,Afirmación,Tr78,78,,,,,0,65,65,65,,,,,,,,,3,1.0666596457,,,,,2018_may._05_1417,60.0268940337,Experimento Piloto1,001,109,
0.25,Stim\\05_028.jpg,En28_13,Enojo,13,Rocío consume alimentos nutritivos.,Afirmación,En28,28,,,,,0,66,66,66,,,,,,,,,2,0.300349055248,,,,,2018_may._05_1417,60.0268940337,Experimento Piloto1,001,109,
0.25,Stim\\02_075.jpg,Al75_4,Alegría,4,Jorge sustituye a Gustavo cada sábado.,Afirmación,Al75,75,,,,,0,67,67,67,,,,,,,,,3,0.633709758464,,,,,2018_may._05_1417,60.0268940337,Experimento Piloto1,001,109,
0.25,Stim\\03_019.jpg,Tr19_14,Tristeza,14,Elizabeth elige la ropa un día antes.,Afirmación,Tr19,19,,,,,0,68,68,68,,,,,,,,,3,0.951063096801,,,,,2018_may._05_1417,60.0268940337,Experimento Piloto1,001,109,
2.5,Stim\\02_075.jpg,Al75_4,Alegría,4,Jorge sustituye a Gustavo cada sábado.,Afirmación,Al75,75,,,,,0,69,69,69,,,,,,,,,3,1.61675054643,,,,,2018_may._05_1417,60.0268940337,Experimento Piloto1,001,109,
2.5,Stim\\05_078.jpg,En78_7,Enojo,7,Roberto contesta los cuestionarios solicitados.,Afirmación,En78,78,,,,,0,70,70,70,,,,,,,,,2,0.33417778345,,,,,2018_may._05_1417,60.0268940337,Experimento Piloto1,001,109,
2.5,Stim\\05_028.jpg,En28_6,Enojo,6,Eduardo camina hacia la biblioteca.,Afirmación,En28,28,,,,,0,71,71,71,,,,,,,,,2,0.250427728785,,,,,2018_may._05_1417,60.0268940337,Experimento Piloto1,001,109,
2.5,Stim\\05_028.jpg,En28_7,Enojo,7,Roberto contesta los cuestionarios solicitados.,Afirmación,En28,28,,,,,0,72,72,72,,,,,,,,,2,0.43365719044,,,,,2018_may._05_1417,60.0268940337,Experimento Piloto1,001,109,
2.5,Stim\\03_028.jpg,Tr28_14,Tristeza,14,Elizabeth elige la ropa un día antes.,Afirmación,Tr28,28,,,,,0,73,73,73,,,,,,,,,4,1.58313289357,,,,,2018_may._05_1417,60.0268940337,Experimento Piloto1,001,109,
2.5,Stim\\02_019.jpg,Al19_11,Alegría,11,María asiste a la cena.,Afirmación,Al19,19,,,,,0,74,74,74,,,,,,,,,3,0.600204113872,,,,,2018_may._05_1417,60.0268940337,Experimento Piloto1,001,109,
0.25,Stim\\05_028.jpg,En28_7,Enojo,7,Roberto contesta los cuestionarios solicitados.,Afirmación,En28,28,,,,,0,75,75,75,,,,,,,,,2,0.283812440147,,,,,2018_may._05_1417,60.0268940337,Experimento Piloto1,001,109,
0.25,Stim\\05_078.jpg,En78_13,Enojo,13,Rocío consume alimentos nutritivos.,Afirmación,En78,78,,,,,0,76,76,76,,,,,,,,,2,0.350446203455,,,,,2018_may._05_1417,60.0268940337,Experimento Piloto1,001,109,
0.25,Stim\\03_028.jpg,Tr28_14,Tristeza,14,Elizabeth elige la ropa un día antes.,Afirmación,Tr28,28,,,,,0,77,77,77,,,,,,,,,4,0.90025329041,,,,,2018_may._05_1417,60.0268940337,Experimento Piloto1,001,109,
2.5,Stim\\03_075.jpg,Tr75_14,Tristeza,14,Elizabeth elige la ropa un día antes.,Afirmación,Tr75,75,,,,,0,78,78,78,,,,,,,,,4,0.433708955217,,,,,2018_may._05_1417,60.0268940337,Experimento Piloto1,001,109,
0.25,Stim\\05_019.jpg,En19_10,Enojo,10,Laura finaliza la obra.,Afirmación,En19,19,,,,,0,79,79,79,,,,,,,,,2,0.400394304804,,,,,2018_may._05_1417,60.0268940337,Experimento Piloto1,001,109,
0.25,Stim\\05_078.jpg,En78_9,Enojo,9,Marco colabora en la organización del evento.,Afirmación,En78,78,,,,,0,80,80,80,,,,,,,,,2,1.3666704449,,,,,2018_may._05_1417,60.0268940337,Experimento Piloto1,001,109,
0.25,Stim\\02_028.jpg,Al28_6,Alegría,6,Eduardo camina hacia la biblioteca.,Afirmación,Al28,28,,,,,0,81,81,81,,,,,,,,,3,0.45033124995,,,,,2018_may._05_1417,60.0268940337,Experimento Piloto1,001,109,
0.25,Stim\\05_078.jpg,En78_12,Enojo,12,Ana compra el libro.,Afirmación,En78,78,,,,,0,82,82,82,,,,,,,,,2,0.383809941158,,,,,2018_may._05_1417,60.0268940337,Experimento Piloto1,001,109,
2.5,Stim\\05_075.jpg,En75_1,Enojo,1,Juan colecciona monedas antiguas.,Afirmación,En75,75,,,,,0,83,83,83,,,,,,,,,2,0.600269266092,,,,,2018_may._05_1417,60.0268940337,Experimento Piloto1,001,109,
0.25,Stim\\03_019.jpg,Tr19_13,Tristeza,13,Rocío consume alimentos nutritivos.,Afirmación,Tr19,19,,,,,0,84,84,84,,,,,,,,,2,0.500245436444,,,,,2018_may._05_1417,60.0268940337,Experimento Piloto1,001,109,
2.5,Stim\\03_078.jpg,Tr78_11,Tristeza,11,María asiste a la cena.,Afirmación,Tr78,78,,,,,0,85,85,85,,,,,,,,,4,0.817016867285,,,,,2018_may._05_1417,60.0268940337,Experimento Piloto1,001,109,
2.5,Stim\\05_019.jpg,En19_1,Enojo,1,Juan colecciona monedas antiguas.,Afirmación,En19,19,,,,,0,86,86,86,,,,,,,,,2,0.699968227137,,,,,2018_may._05_1417,60.0268940337,Experimento Piloto1,001,109,
0.25,Stim\\02_075.jpg,Al75_10,Alegría,10,Laura finaliza la obra.,Afirmación,Al75,75,,,,,0,87,87,87,,,,,,,,,3,0.600301395953,,,,,2018_may._05_1417,60.0268940337,Experimento Piloto1,001,109,
2.5,Stim\\02_019.jpg,Al19_14,Alegría,14,Elizabeth elige la ropa un día antes.,Afirmación,Al19,19,,,,,0,88,88,88,,,,,,,,,3,1.0666948993,,,,,2018_may._05_1417,60.0268940337,Experimento Piloto1,001,109,
0.25,Stim\\03_028.jpg,Tr28_6,Tristeza,6,Eduardo camina hacia la biblioteca.,Afirmación,Tr28,28,,,,,0,89,89,89,,,,,,,,,4,1.15016471017,,,,,2018_may._05_1417,60.0268940337,Experimento Piloto1,001,109,
0.25,Stim\\02_075.jpg,Al75_8,Alegría,8,Estefanía despierta a las 7 a.m.,Afirmación,Al75,75,,,,,0,90,90,90,,,,,,,,,3,0.600566021065,,,,,2018_may._05_1417,60.0268940337,Experimento Piloto1,001,109,
2.5,Stim\\02_019.jpg,Al19_6,Alegría,6,Eduardo camina hacia la biblioteca.,Afirmación,Al19,19,,,,,0,91,91,91,,,,,,,,,3,0.383590387102,,,,,2018_may._05_1417,60.0268940337,Experimento Piloto1,001,109,
2.5,Stim\\03_078.jpg,Tr78_7,Tristeza,7,Roberto contesta los cuestionarios solicitados.,Afirmación,Tr78,78,,,,,0,92,92,92,,,,,,,,,4,1.46670230701,,,,,2018_may._05_1417,60.0268940337,Experimento Piloto1,001,109,
2.5,Stim\\02_028.jpg,Al28_8,Alegría,8,Estefanía despierta a las 7 a.m.,Afirmación,Al28,28,,,,,0,93,93,93,,,,,,,,,3,0.450365611052,,,,,2018_may._05_1417,60.0268940337,Experimento Piloto1,001,109,
0.25,Stim\\03_075.jpg,Tr75_13,Tristeza,13,Rocío consume alimentos nutritivos.,Afirmación,Tr75,75,,,,,0,94,94,94,,,,,,,,,4,0.333630683304,,,,,2018_may._05_1417,60.0268940337,Experimento Piloto1,001,109,
2.5,Stim\\02_075.jpg,Al75_6,Alegría,6,Eduardo camina hacia la biblioteca.,Afirmación,Al75,75,,,,,0,95,95,95,,,,,,,,,3,0.850237359354,,,,,2018_may._05_1417,60.0268940337,Experimento Piloto1,001,109,
0.25,Stim\\02_028.jpg,Al28_9,Alegría,9,Marco colabora en la organización del evento.,Afirmación,Al28,28,,,,,0,96,96,96,,,,,,,,,3,1.26670685874,,,,,2018_may._05_1417,60.0268940337,Experimento Piloto1,001,109,
0.25,Stim\\02_019.jpg,Al19_8,Alegría,8,Estefanía despierta a las 7 a.m.,Afirmación,Al19,19,,,,,0,97,97,97,,,,,,,,,3,0.450288410134,,,,,2018_may._05_1417,60.0268940337,Experimento Piloto1,001,109,
2.5,Stim\\02_019.jpg,Al19_1,Alegría,1,Juan colecciona monedas antiguas.,Afirmación,Al19,19,,,,,0,98,98,98,,,,,,,,,3,0.500530142719,,,,,2018_may._05_1417,60.0268940337,Experimento Piloto1,001,109,
0.25,Stim\\02_019.jpg,Al19_5,Alegría,5,Emilio revisa el formato del archivo.,Afirmación,Al19,19,,,,,0,99,99,99,,,,,,,,,3,0.650327144467,,,,,2018_may._05_1417,60.0268940337,Experimento Piloto1,001,109,
2.5,Stim\\02_078.jpg,Al78_13,Alegría,13,Rocío consume alimentos nutritivos.,Afirmación,Al78,78,,,,,0,100,100,100,,,,,,,,,3,0.450414698341,,,,,2018_may._05_1417,60.0268940337,Experimento Piloto1,001,109,
2.5,Stim\\05_078.jpg,En78_12,Enojo,12,Ana compra el libro.,Afirmación,En78,78,,,,,0,101,101,101,,,,,,,,,2,0.400363067438,,,,,2018_may._05_1417,60.0268940337,Experimento Piloto1,001,109,
2.5,Stim\\03_075.jpg,Tr75_11,Tristeza,11,María asiste a la cena.,Afirmación,Tr75,75,,,,,0,102,102,102,,,,,,,,,4,1.46668624208,,,,,2018_may._05_1417,60.0268940337,Experimento Piloto1,001,109,
0.25,Stim\\02_078.jpg,Al78_13,Alegría,13,Rocío consume alimentos nutritivos.,Afirmación,Al78,78,,,,,0,103,103,103,,,,,,,,,3,0.45020808548,,,,,2018_may._05_1417,60.0268940337,Experimento Piloto1,001,109,
0.25,Stim\\03_075.jpg,Tr75_11,Tristeza,11,María asiste a la cena.,Afirmación,Tr75,75,,,,,0,104,104,104,,,,,,,,,4,1.00037975712,,,,,2018_may._05_1417,60.0268940337,Experimento Piloto1,001,109,
2.5,Stim\\05_075.jpg,En75_8,Enojo,8,Estefanía despierta a las 7 a.m.,Afirmación,En75,75,,,,,0,105,105,105,,,,,,,,,2,2.08330960781,,,,,2018_may._05_1417,60.0268940337,Experimento Piloto1,001,109,
2.5,Stim\\03_078.jpg,Tr78_2,Tristeza,2,Jonathan pasea al perro.,Afirmación,Tr78,78,,,,,0,106,106,106,,,,,,,,,4,3.26625480944,,,,,2018_may._05_1417,60.0268940337,Experimento Piloto1,001,109,
2.5,Stim\\03_078.jpg,Tr78_12,Tristeza,12,Ana compra el libro.,Afirmación,Tr78,78,,,,,0,107,107,107,,,,,,,,,4,0.350281537914,,,,,2018_may._05_1417,60.0268940337,Experimento Piloto1,001,109,
2.5,Stim\\05_019.jpg,En19_10,Enojo,10,Laura finaliza la obra.,Afirmación,En19,19,,,,,0,108,108,108,,,,,,,,,2,0.750274665693,,,,,2018_may._05_1417,60.0268940337,Experimento Piloto1,001,109,
2.5,Stim\\05_078.jpg,En78_15,Enojo,15,Ángel envía una carta a la abuela.,Afirmación,En78,78,,,,,0,109,109,109,,,,,,,,,2,0.400273817821,,,,,2018_may._05_1417,60.0268940337,Experimento Piloto1,001,109,
0.25,Stim\\02_028.jpg,Al28_15,Alegría,15,Ángel envía una carta a la abuela.,Afirmación,Al28,28,,,,,0,110,110,110,,,,,,,,,3,0.550203801498,,,,,2018_may._05_1417,60.0268940337,Experimento Piloto1,001,109,
2.5,Stim\\02_075.jpg,Al75_13,Alegría,13,Rocío consume alimentos nutritivos.,Afirmación,Al75,75,,,,,0,111,111,111,,,,,,,,,3,0.300332544069,,,,,2018_may._05_1417,60.0268940337,Experimento Piloto1,001,109,
2.5,Stim\\02_078.jpg,Al78_5,Alegría,5,Emilio revisa el formato del archivo.,Afirmación,Al78,78,,,,,0,112,112,112,,,,,,,,,3,0.650254852279,,,,,2018_may._05_1417,60.0268940337,Experimento Piloto1,001,109,
2.5,Stim\\05_019.jpg,En19_12,Enojo,12,Ana compra el libro.,Afirmación,En19,19,,,,,0,113,113,113,,,,,,,,,2,0.550330535953,,,,,2018_may._05_1417,60.0268940337,Experimento Piloto1,001,109,
2.5,Stim\\03_028.jpg,Tr28_13,Tristeza,13,Rocío consume alimentos nutritivos.,Afirmación,Tr28,28,,,,,0,114,114,114,,,,,,,,,4,1.61669878165,,,,,2018_may._05_1417,60.0268940337,Experimento Piloto1,001,109,
2.5,Stim\\02_075.jpg,Al75_1,Alegría,1,Juan colecciona monedas antiguas.,Afirmación,Al75,75,,,,,0,115,115,115,,,,,,,,,3,0.900396536044,,,,,2018_may._05_1417,60.0268940337,Experimento Piloto1,001,109,
2.5,Stim\\02_028.jpg,Al28_3,Alegría,3,Andrea diseña la portada del libro.,Afirmación,Al28,28,,,,,0,116,116,116,,,,,,,,,3,1.01683292383,,,,,2018_may._05_1417,60.0268940337,Experimento Piloto1,001,109,
0.25,Stim\\05_028.jpg,En28_10,Enojo,10,Laura finaliza la obra.,Afirmación,En28,28,,,,,0,117,117,117,,,,,,,,,2,0.500287830012,,,,,2018_may._05_1417,60.0268940337,Experimento Piloto1,001,109,
0.25,Stim\\02_078.jpg,Al78_3,Alegría,3,Andrea diseña la portada del libro.,Afirmación,Al78,78,,,,,0,118,118,118,,,,,,,,,3,0.400275602814,,,,,2018_may._05_1417,60.0268940337,Experimento Piloto1,001,109,
2.5,Stim\\03_075.jpg,Tr75_15,Tristeza,15,Ángel envía una carta a la abuela.,Afirmación,Tr75,75,,,,,0,119,119,119,,,,,,,,,4,1.6834869468,,,,,2018_may._05_1417,60.0268940337,Experimento Piloto1,001,109,
2.5,Stim\\03_028.jpg,Tr28_1,Tristeza,1,Juan colecciona monedas antiguas.,Afirmación,Tr28,28,,,,,,,,,0,0,0,0,,,,,,,4,2.44972881504,,,2018_may._05_1417,60.0268940337,Experimento Piloto1,001,109,
0.25,Stim\\03_019.jpg,Tr19_1,Tristeza,1,Juan colecciona monedas antiguas.,Afirmación,Tr19,19,,,,,,,,,0,1,1,1,,,,,,,3,0.750548215766,,,2018_may._05_1417,60.0268940337,Experimento Piloto1,001,109,
2.5,Stim\\03_078.jpg,Tr78_10,Tristeza,10,Laura finaliza la obra.,Afirmación,Tr78,78,,,,,,,,,0,2,2,2,,,,,,,4,0.400277387806,,,2018_may._05_1417,60.0268940337,Experimento Piloto1,001,109,
0.25,Stim\\02_075.jpg,Al75_5,Alegría,5,Emilio revisa el formato del archivo.,Afirmación,Al75,75,,,,,,,,,0,3,3,3,,,,,,,3,1.68340796089,,,2018_may._05_1417,60.0268940337,Experimento Piloto1,001,109,
0.25,Stim\\02_019.jpg,Al19_15,Alegría,15,Ángel envía una carta a la abuela.,Afirmación,Al19,19,,,,,,,,,0,4,4,4,,,,,,,3,2.59963827131,,,2018_may._05_1417,60.0268940337,Experimento Piloto1,001,109,
2.5,Stim\\02_075.jpg,Al75_7,Alegría,7,Roberto contesta los cuestionarios solicitados.,Afirmación,Al75,75,,,,,,,,,0,5,5,5,,,,,,,3,1.26670552,,,2018_may._05_1417,60.0268940337,Experimento Piloto1,001,109,
0.25,Stim\\03_075.jpg,Tr75_8,Tristeza,8,Estefanía despierta a las 7 a.m.,Afirmación,Tr75,75,,,,,,,,,0,6,6,6,,,,,,,4,1.53335927522,,,2018_may._05_1417,60.0268940337,Experimento Piloto1,001,109,
0.25,Stim\\02_019.jpg,Al19_11,Alegría,11,María asiste a la cena.,Afirmación,Al19,19,,,,,,,,,0,7,7,7,,,,,,,3,0.450271898955,,,2018_may._05_1417,60.0268940337,Experimento Piloto1,001,109,
2.5,Stim\\02_019.jpg,Al19_2,Alegría,2,Jonathan pasea al perro.,Afirmación,Al19,19,,,,,,,,,0,8,8,8,,,,,,,3,0.750172921131,,,2018_may._05_1417,60.0268940337,Experimento Piloto1,001,109,
2.5,Stim\\05_075.jpg,En75_5,Enojo,5,Emilio revisa el formato del archivo.,Afirmación,En75,75,,,,,,,,,0,9,9,9,,,,,,,2,0.35028466165,,,2018_may._05_1417,60.0268940337,Experimento Piloto1,001,109,
0.25,Stim\\03_078.jpg,Tr78_10,Tristeza,10,Laura finaliza la obra.,Afirmación,Tr78,78,,,,,,,,,0,10,10,10,,,,,,,4,0.750128742571,,,2018_may._05_1417,60.0268940337,Experimento Piloto1,001,109,
0.25,Stim\\02_019.jpg,Al19_6,Alegría,6,Eduardo camina hacia la biblioteca.,Afirmación,Al19,19,,,,,,,,,0,11,11,11,,,,,,,3,0.500274888817,,,2018_may._05_1417,60.0268940337,Experimento Piloto1,001,109,
2.5,Stim\\05_019.jpg,En19_3,Enojo,3,Andrea diseña la portada del libro.,Afirmación,En19,19,,,,,,,,,0,12,12,12,,,,,,,2,0.333832387436,,,2018_may._05_1417,60.0268940337,Experimento Piloto1,001,109,
0.25,Stim\\05_019.jpg,En19_3,Enojo,3,Andrea diseña la portada del libro.,Afirmación,En19,19,,,,,,,,,0,13,13,13,,,,,,,2,0.333780622659,,,2018_may._05_1417,60.0268940337,Experimento Piloto1,001,109,
2.5,Stim\\02_028.jpg,Al28_1,Alegría,1,Juan colecciona monedas antiguas.,Afirmación,Al28,28,,,,,,,,,0,14,14,14,,,,,,,3,0.23365951093,,,2018_may._05_1417,60.0268940337,Experimento Piloto1,001,109,
0.25,Stim\\02_019.jpg,Al19_2,Alegría,2,Jonathan pasea al perro.,Afirmación,Al19,19,,,,,,,,,0,15,15,15,,,,,,,3,0.250369270286,,,2018_may._05_1417,60.0268940337,Experimento Piloto1,001,109,
0.25,Stim\\05_028.jpg,En28_11,Enojo,11,María asiste a la cena.,Afirmación,En28,28,,,,,,,,,0,16,16,16,,,,,,,3,0.850200320763,,,2018_may._05_1417,60.0268940337,Experimento Piloto1,001,109,
0.25,Stim\\03_028.jpg,Tr28_1,Tristeza,1,Juan colecciona monedas antiguas.,Afirmación,Tr28,28,,,,,,,,,0,17,17,17,,,,,,,4,0.500298093717,,,2018_may._05_1417,60.0268940337,Experimento Piloto1,001,109,
0.25,Stim\\03_078.jpg,Tr78_1,Tristeza,1,Juan colecciona monedas antiguas.,Afirmación,Tr78,78,,,,,,,,,0,18,18,18,,,,,,,4,0.60027194358,,,2018_may._05_1417,60.0268940337,Experimento Piloto1,001,109,
0.25,Stim\\02_019.jpg,Al19_1,Alegría,1,Juan colecciona monedas antiguas.,Afirmación,Al19,19,,,,,,,,,0,19,19,19,,,,,,,3,1.66664554426,,,2018_may._05_1417,60.0268940337,Experimento Piloto1,001,109,
0.25,Stim\\02_019.jpg,Al19_10,Alegría,10,Laura finaliza la obra.,Afirmación,Al19,19,,,,,,,,,0,20,20,20,,,,,,,3,0.399990004043,,,2018_may._05_1417,60.0268940337,Experimento Piloto1,001,109,
2.5,Stim\\03_019.jpg,Tr19_13,Tristeza,13,Rocío consume alimentos nutritivos.,Afirmación,Tr19,19,,,,,,,,,0,21,21,21,,,,,,,2,0.916742603215,,,2018_may._05_1417,60.0268940337,Experimento Piloto1,001,109,
2.5,Stim\\05_075.jpg,En75_6,Enojo,6,Eduardo camina hacia la biblioteca.,Afirmación,En75,75,,,,,,,,,0,22,22,22,,,,,,,2,0.850234235617,,,2018_may._05_1417,60.0268940337,Experimento Piloto1,001,109,
0.25,Stim\\05_078.jpg,En78_10,Enojo,10,Laura finaliza la obra.,Afirmación,En78,78,,,,,,,,,0,23,23,23,,,,,,,2,0.283710249337,,,2018_may._05_1417,60.0268940337,Experimento Piloto1,001,109,
2.5,Stim\\05_075.jpg,En75_14,Enojo,14,Elizabeth elige la ropa un día antes.,Afirmación,En75,75,,,,,,,,,0,24,24,24,,,,,,,2,0.383730062752,,,2018_may._05_1417,60.0268940337,Experimento Piloto1,001,109,
0.25,Stim\\05_019.jpg,En19_7,Enojo,7,Roberto contesta los cuestionarios solicitados.,Afirmación,En19,19,,,,,,,,,0,25,25,25,,,,,,,2,0.700212324837,,,2018_may._05_1417,60.0268940337,Experimento Piloto1,001,109,
0.25,Stim\\02_078.jpg,Al78_14,Alegría,14,Elizabeth elige la ropa un día antes.,Afirmación,Al78,78,,,,,,,,,0,26,26,26,,,,,,,3,0.800124592464,,,2018_may._05_1417,60.0268940337,Experimento Piloto1,001,109,
0.25,Stim\\03_028.jpg,Tr28_13,Tristeza,13,Rocío consume alimentos nutritivos.,Afirmación,Tr28,28,,,,,,,,,0,27,27,27,,,,,,,4,1.09992922505,,,2018_may._05_1417,60.0268940337,Experimento Piloto1,001,109,
2.5,Stim\\03_019.jpg,Tr19_8,Tristeza,8,Estefanía despierta a las 7 a.m.,Afirmación,Tr19,19,,,,,,,,,0,28,28,28,,,,,,,3,2.94946151244,,,2018_may._05_1417,60.0268940337,Experimento Piloto1,001,109,
2.5,Stim\\02_019.jpg,Al19_8,Alegría,8,Estefanía despierta a las 7 a.m.,Afirmación,Al19,19,,,,,,,,,0,29,29,29,,,,,,,3,1.48328711691,,,2018_may._05_1417,60.0268940337,Experimento Piloto1,001,109,
2.5,Stim\\02_028.jpg,Al28_9,Alegría,9,Marco colabora en la organización del evento.,Afirmación,Al28,28,,,,,,,,,0,30,30,30,,,,,,,3,0.966823240243,,,2018_may._05_1417,60.0268940337,Experimento Piloto1,001,109,
2.5,Stim\\03_075.jpg,Tr75_1,Tristeza,1,Juan colecciona monedas antiguas.,Afirmación,Tr75,75,,,,,,,,,0,31,31,31,,,,,,,4,1.00014860061,,,2018_may._05_1417,60.0268940337,Experimento Piloto1,001,109,
2.5,Stim\\05_078.jpg,En78_8,Enojo,8,Estefanía despierta a las 7 a.m.,Afirmación,En78,78,,,,,,,,,0,32,32,32,,,,,,,2,1.81664157265,,,2018_may._05_1417,60.0268940337,Experimento Piloto1,001,109,
0.25,Stim\\02_028.jpg,Al28_12,Alegría,12,Ana compra el libro.,Afirmación,Al28,28,,,,,,,,,0,33,33,33,,,,,,,3,0.500294077485,,,2018_may._05_1417,60.0268940337,Experimento Piloto1,001,109,
0.25,Stim\\05_075.jpg,En75_1,Enojo,1,Juan colecciona monedas antiguas.,Afirmación,En75,75,,,,,,,,,0,34,34,34,,,,,,,2,1.31672859103,,,2018_may._05_1417,60.0268940337,Experimento Piloto1,001,109,
0.25,Stim\\03_028.jpg,Tr28_4,Tristeza,4,Jorge sustituye a Gustavo cada sábado.,Afirmación,Tr28,28,,,,,,,,,0,35,35,35,,,,,,,4,0.899911464381,,,2018_may._05_1417,60.0268940337,Experimento Piloto1,001,109,
2.5,Stim\\03_078.jpg,Tr78_3,Tristeza,3,Andrea diseña la portada del libro.,Afirmación,Tr78,78,,,,,,,,,0,36,36,36,,,,,,,4,1.05023994759,,,2018_may._05_1417,60.0268940337,Experimento Piloto1,001,109,
0.25,Stim\\05_078.jpg,En78_4,Enojo,4,Jorge sustituye a Gustavo cada sábado.,Afirmación,En78,78,,,,,,,,,0,37,37,37,,,,,,,2,2.38341813534,,,2018_may._05_1417,60.0268940337,Experimento Piloto1,001,109,
2.5,Stim\\03_019.jpg,Tr19_7,Tristeza,7,Roberto contesta los cuestionarios solicitados.,Afirmación,Tr19,19,,,,,,,,,0,38,38,38,,,,,,,2,0.700175286246,,,2018_may._05_1417,60.0268940337,Experimento Piloto1,001,109,
0.25,Stim\\02_078.jpg,Al78_2,Alegría,2,Jonathan pasea al perro.,Afirmación,Al78,78,,,,,,,,,0,39,39,39,,,,,,,3,0.63372448465,,,2018_may._05_1417,60.0268940337,Experimento Piloto1,001,109,
0.25,Stim\\02_078.jpg,Al78_5,Alegría,5,Emilio revisa el formato del archivo.,Afirmación,Al78,78,,,,,,,,,0,40,40,40,,,,,,,3,1.21680248971,,,2018_may._05_1417,60.0268940337,Experimento Piloto1,001,109,
2.5,Stim\\05_019.jpg,En19_11,Enojo,11,María asiste a la cena.,Afirmación,En19,19,,,,,,,,,0,41,41,41,,,,,,,2,0.600252308664,,,2018_may._05_1417,60.0268940337,Experimento Piloto1,001,109,
2.5,Stim\\02_028.jpg,Al28_15,Alegría,15,Ángel envía una carta a la abuela.,Afirmación,Al28,28,,,,,,,,,0,42,42,42,,,,,,,3,1.63342906842,,,2018_may._05_1417,60.0268940337,Experimento Piloto1,001,109,
0.25,Stim\\03_019.jpg,Tr19_4,Tristeza,4,Jorge sustituye a Gustavo cada sábado.,Afirmación,Tr19,19,,,,,,,,,0,43,43,43,,,,,,,2,0.70034173678,,,2018_may._05_1417,60.0268940337,Experimento Piloto1,001,109,
2.5,Stim\\02_075.jpg,Al75_12,Alegría,12,Ana compra el libro.,Afirmación,Al75,75,,,,,,,,,0,44,44,44,,,,,,,3,0.383791198738,,,2018_may._05_1417,60.0268940337,Experimento Piloto1,001,109,
2.5,Stim\\05_028.jpg,En28_12,Enojo,12,Ana compra el libro.,Afirmación,En28,28,,,,,,,,,0,45,45,45,,,,,,,2,0.400455440791,,,2018_may._05_1417,60.0268940337,Experimento Piloto1,001,109,
0.25,Stim\\02_028.jpg,Al28_14,Alegría,14,Elizabeth elige la ropa un día antes.,Afirmación,Al28,28,,,,,,,,,0,46,46,46,,,,,,,3,0.700360925447,,,2018_may._05_1417,60.0268940337,Experimento Piloto1,001,109,
2.5,Stim\\03_075.jpg,Tr75_6,Tristeza,6,Eduardo camina hacia la biblioteca.,Afirmación,Tr75,75,,,,,,,,,0,47,47,47,,,,,,,4,1.31686871292,,,2018_may._05_1417,60.0268940337,Experimento Piloto1,001,109,
0.25,Stim\\05_028.jpg,En28_8,Enojo,8,Estefanía despierta a las 7 a.m.,Afirmación,En28,28,,,,,,,,,0,48,48,48,,,,,,,2,0.300394126304,,,2018_may._05_1417,60.0268940337,Experimento Piloto1,001,109,
2.5,Stim\\05_019.jpg,En19_7,Enojo,7,Roberto contesta los cuestionarios solicitados.,Afirmación,En19,19,,,,,,,,,0,49,49,49,,,,,,,2,0.40024168796,,,2018_may._05_1417,60.0268940337,Experimento Piloto1,001,109,
2.5,Stim\\02_019.jpg,Al19_10,Alegría,10,Laura finaliza la obra.,Afirmación,Al19,19,,,,,,,,,0,50,50,50,,,,,,,3,1.58334486141,,,2018_may._05_1417,60.0268940337,Experimento Piloto1,001,109,
0.25,Stim\\05_028.jpg,En28_14,Enojo,14,Elizabeth elige la ropa un día antes.,Afirmación,En28,28,,,,,,,,,0,51,51,51,,,,,,,2,0.400333168816,,,2018_may._05_1417,60.0268940337,Experimento Piloto1,001,109,
2.5,Stim\\03_028.jpg,Tr28_8,Tristeza,8,Estefanía despierta a las 7 a.m.,Afirmación,Tr28,28,,,,,,,,,0,52,52,52,,,,,,,4,0.750220669676,,,2018_may._05_1417,60.0268940337,Experimento Piloto1,001,109,
0.25,Stim\\02_075.jpg,Al75_3,Alegría,3,Andrea diseña la portada del libro.,Afirmación,Al75,75,,,,,,,,,0,53,53,53,,,,,,,3,1.01683515507,,,2018_may._05_1417,60.0268940337,Experimento Piloto1,001,109,
0.25,Stim\\02_028.jpg,Al28_1,Alegría,1,Juan colecciona monedas antiguas.,Afirmación,Al28,28,,,,,,,,,0,54,54,54,,,,,,,3,0.400451424558,,,2018_may._05_1417,60.0268940337,Experimento Piloto1,001,109,
0.25,Stim\\03_028.jpg,Tr28_3,Tristeza,3,Andrea diseña la portada del libro.,Afirmación,Tr28,28,,,,,,,,,0,55,55,55,,,,,,,2,2.96645374683,,,2018_may._05_1417,60.0268940337,Experimento Piloto1,001,109,
2.5,Stim\\02_078.jpg,Al78_11,Alegría,11,María asiste a la cena.,Afirmación,Al78,78,,,,,,,,,0,56,56,56,,,,,,,3,0.533970635091,,,2018_may._05_1417,60.0268940337,Experimento Piloto1,001,109,
0.25,Stim\\03_019.jpg,Tr19_12,Tristeza,12,Ana compra el libro.,Afirmación,Tr19,19,,,,,,,,,0,57,57,57,,,,,,,2,0.800310677913,,,2018_may._05_1417,60.0268940337,Experimento Piloto1,001,109,
2.5,Stim\\02_078.jpg,Al78_14,Alegría,14,Elizabeth elige la ropa un día antes.,Afirmación,Al78,78,,,,,,,,,0,58,58,58,,,,,,,3,1.11679383249,,,2018_may._05_1417,60.0268940337,Experimento Piloto1,001,109,
0.25,Stim\\03_019.jpg,Tr19_2,Tristeza,2,Jonathan pasea al perro.,Afirmación,Tr19,19,,,,,,,,,0,59,59,59,,,,,,,2,0.333919405812,,,2018_may._05_1417,60.0268940337,Experimento Piloto1,001,109,
2.5,Stim\\03_078.jpg,Tr78_1,Tristeza,1,Juan colecciona monedas antiguas.,Afirmación,Tr78,78,,,,,,,,,0,60,60,60,,,,,,,4,0.71642764132,,,2018_may._05_1417,60.0268940337,Experimento Piloto1,001,109,
0.25,Stim\\03_078.jpg,Tr78_4,Tristeza,4,Jorge sustituye a Gustavo cada sábado.,Afirmación,Tr78,78,,,,,,,,,0,61,61,61,,,,,,,4,0.65027314845,,,2018_may._05_1417,60.0268940337,Experimento Piloto1,001,109,
0.25,Stim\\05_019.jpg,En19_14,Enojo,14,Elizabeth elige la ropa un día antes.,Afirmación,En19,19,,,,,,,,,0,62,62,62,,,,,,,2,0.350400239903,,,2018_may._05_1417,60.0268940337,Experimento Piloto1,001,109,
0.25,Stim\\02_075.jpg,Al75_15,Alegría,15,Ángel envía una carta a la abuela.,Afirmación,Al75,75,,,,,,,,,0,63,63,63,,,,,,,3,0.650278057179,,,2018_may._05_1417,60.0268940337,Experimento Piloto1,001,109,
2.5,Stim\\03_028.jpg,Tr28_2,Tristeza,2,Jonathan pasea al perro.,Afirmación,Tr28,28,,,,,,,,,0,64,64,64,,,,,,,4,0.916771163092,,,2018_may._05_1417,60.0268940337,Experimento Piloto1,001,109,
0.25,Stim\\05_028.jpg,En28_3,Enojo,3,Andrea diseña la portada del libro.,Afirmación,En28,28,,,,,,,,,0,65,65,65,,,,,,,2,1.58326052052,,,2018_may._05_1417,60.0268940337,Experimento Piloto1,001,109,
0.25,Stim\\05_078.jpg,En78_3,Enojo,3,Andrea diseña la portada del libro.,Afirmación,En78,78,,,,,,,,,0,66,66,66,,,,,,,2,0.700200276138,,,2018_may._05_1417,60.0268940337,Experimento Piloto1,001,109,
0.25,Stim\\05_075.jpg,En75_9,Enojo,9,Marco colabora en la organización del evento.,Afirmación,En75,75,,,,,,,,,0,67,67,67,,,,,,,2,1.56660654218,,,2018_may._05_1417,60.0268940337,Experimento Piloto1,001,109,
2.5,Stim\\05_075.jpg,En75_7,Enojo,7,Roberto contesta los cuestionarios solicitados.,Afirmación,En75,75,,,,,,,,,0,68,68,68,,,,,,,2,0.400236779231,,,2018_may._05_1417,60.0268940337,Experimento Piloto1,001,109,
0.25,Stim\\03_078.jpg,Tr78_14,Tristeza,14,Elizabeth elige la ropa un día antes.,Afirmación,Tr78,78,,,,,,,,,0,69,69,69,,,,,,,4,0.600257217393,,,2018_may._05_1417,60.0268940337,Experimento Piloto1,001,109,
2.5,Stim\\03_019.jpg,Tr19_5,Tristeza,5,Emilio revisa el formato del archivo.,Afirmación,Tr19,19,,,,,,,,,0,70,70,70,,,,,,,2,0.600220178802,,,2018_may._05_1417,60.0268940337,Experimento Piloto1,001,109,
2.5,Stim\\05_028.jpg,En28_13,Enojo,13,Rocío consume alimentos nutritivos.,Afirmación,En28,28,,,,,,,,,0,71,71,71,,,,,,,2,0.70028818701,,,2018_may._05_1417,60.0268940337,Experimento Piloto1,001,109,
0.25,Stim\\05_075.jpg,En75_15,Enojo,15,Ángel envía una carta a la abuela.,Afirmación,En75,75,,,,,,,,,0,72,72,72,,,,,,,2,0.450262081497,,,2018_may._05_1417,60.0268940337,Experimento Piloto1,001,109,
2.5,Stim\\05_019.jpg,En19_6,Enojo,6,Eduardo camina hacia la biblioteca.,Afirmación,En19,19,,,,,,,,,0,73,73,73,,,,,,,2,0.34993837314,,,2018_may._05_1417,60.0268940337,Experimento Piloto1,001,109,
2.5,Stim\\05_078.jpg,En78_10,Enojo,10,Laura finaliza la obra.,Afirmación,En78,78,,,,,,,,,0,74,74,74,,,,,,,2,0.500406978249,,,2018_may._05_1417,60.0268940337,Experimento Piloto1,001,109,
2.5,Stim\\05_019.jpg,En19_9,Enojo,9,Marco colabora en la organización del evento.,Afirmación,En19,19,,,,,,,,,0,75,75,75,,,,,,,2,0.333756079015,,,2018_may._05_1417,60.0268940337,Experimento Piloto1,001,109,
2.5,Stim\\02_078.jpg,Al78_6,Alegría,6,Eduardo camina hacia la biblioteca.,Afirmación,Al78,78,,,,,,,,,0,76,76,76,,,,,,,3,1.56687161353,,,2018_may._05_1417,60.0268940337,Experimento Piloto1,001,109,
2.5,Stim\\05_078.jpg,En78_13,Enojo,13,Rocío consume alimentos nutritivos.,Afirmación,En78,78,,,,,,,,,0,77,77,77,,,,,,,2,1.51681998263,,,2018_may._05_1417,60.0268940337,Experimento Piloto1,001,109,
0.25,Stim\\05_028.jpg,En28_2,Enojo,2,Jonathan pasea al perro.,Afirmación,En28,28,,,,,,,,,0,78,78,78,,,,,,,2,0.35033107145,,,2018_may._05_1417,60.0268940337,Experimento Piloto1,001,109,
0.25,Stim\\05_019.jpg,En19_6,Enojo,6,Eduardo camina hacia la biblioteca.,Afirmación,En19,19,,,,,,,,,0,79,79,79,,,,,,,2,0.383656431818,,,2018_may._05_1417,60.0268940337,Experimento Piloto1,001,109,
2.5,Stim\\03_019.jpg,Tr19_11,Tristeza,11,María asiste a la cena.,Afirmación,Tr19,19,,,,,,,,,0,80,80,80,,,,,,,3,1.00016868177,,,2018_may._05_1417,60.0268940337,Experimento Piloto1,001,109,
2.5,Stim\\05_028.jpg,En28_11,Enojo,11,María asiste a la cena.,Afirmación,En28,28,,,,,,,,,0,81,81,81,,,,,,,2,1.11680231121,,,2018_may._05_1417,60.0268940337,Experimento Piloto1,001,109,
0.25,Stim\\02_078.jpg,Al78_9,Alegría,9,Marco colabora en la organización del evento.,Afirmación,Al78,78,,,,,,,,,0,82,82,82,,,,,,,3,0.450405327131,,,2018_may._05_1417,60.0268940337,Experimento Piloto1,001,109,
0.25,Stim\\05_019.jpg,En19_13,Enojo,13,Rocío consume alimentos nutritivos.,Afirmación,En19,19,,,,,,,,,0,83,83,83,,,,,,,2,0.333677539352,,,2018_may._05_1417,60.0268940337,Experimento Piloto1,001,109,
0.25,Stim\\03_078.jpg,Tr78_11,Tristeza,11,María asiste a la cena.,Afirmación,Tr78,78,,,,,,,,,0,84,84,84,,,,,,,4,1.58294368438,,,2018_may._05_1417,60.0268940337,Experimento Piloto1,001,109,
2.5,Stim\\05_028.jpg,En28_5,Enojo,5,Emilio revisa el formato del archivo.,Afirmación,En28,28,,,,,,,,,0,85,85,85,,,,,,,2,2.08327926294,,,2018_may._05_1417,60.0268940337,Experimento Piloto1,001,109,
0.25,Stim\\03_028.jpg,Tr28_10,Tristeza,10,Laura finaliza la obra.,Afirmación,Tr28,28,,,,,,,,,0,86,86,86,,,,,,,4,0.800303984192,,,2018_may._05_1417,60.0268940337,Experimento Piloto1,001,109,
0.25,Stim\\05_019.jpg,En19_11,Enojo,11,María asiste a la cena.,Afirmación,En19,19,,,,,,,,,0,87,87,87,,,,,,,2,0.500292292492,,,2018_may._05_1417,60.0268940337,Experimento Piloto1,001,109,
2.5,Stim\\03_028.jpg,Tr28_9,Tristeza,9,Marco colabora en la organización del evento.,Afirmación,Tr28,28,,,,,,,,,0,88,88,88,,,,,,,4,0.433791064864,,,2018_may._05_1417,60.0268940337,Experimento Piloto1,001,109,
2.5,Stim\\05_019.jpg,En19_8,Enojo,8,Estefanía despierta a las 7 a.m.,Afirmación,En19,19,,,,,,,,,0,89,89,89,,,,,,,2,0.400317996382,,,2018_may._05_1417,60.0268940337,Experimento Piloto1,001,109,
0.25,Stim\\03_075.jpg,Tr75_9,Tristeza,9,Marco colabora en la organización del evento.,Afirmación,Tr75,75,,,,,,,,,0,90,90,90,,,,,,,2,0.450272791451,,,2018_may._05_1417,60.0268940337,Experimento Piloto1,001,109,
2.5,Stim\\02_075.jpg,Al75_3,Alegría,3,Andrea diseña la portada del libro.,Afirmación,Al75,75,,,,,,,,,0,91,91,91,,,,,,,3,0.700355124222,,,2018_may._05_1417,60.0268940337,Experimento Piloto1,001,109,
0.25,Stim\\05_028.jpg,En28_12,Enojo,12,Ana compra el libro.,Afirmación,En28,28,,,,,,,,,0,92,92,92,,,,,,,2,0.700260073381,,,2018_may._05_1417,60.0268940337,Experimento Piloto1,001,109,
0.25,Stim\\03_028.jpg,Tr28_7,Tristeza,7,Roberto contesta los cuestionarios solicitados.,Afirmación,Tr28,28,,,,,,,,,0,93,93,93,,,,,,,2,1.00021018285,,,2018_may._05_1417,60.0268940337,Experimento Piloto1,001,109,
0.25,Stim\\03_019.jpg,Tr19_8,Tristeza,8,Estefanía despierta a las 7 a.m.,Afirmación,Tr19,19,,,,,,,,,0,94,94,94,,,,,,,2,1.06673506162,,,2018_may._05_1417,60.0268940337,Experimento Piloto1,001,109,
0.25,Stim\\02_019.jpg,Al19_4,Alegría,4,Jorge sustituye a Gustavo cada sábado.,Afirmación,Al19,19,,,,,,,,,0,95,95,95,,,,,,,3,0.650212012463,,,2018_may._05_1417,60.0268940337,Experimento Piloto1,001,109,
2.5,Stim\\05_019.jpg,En19_15,Enojo,15,Ángel envía una carta a la abuela.,Afirmación,En19,19,,,,,,,,,0,96,96,96,,,,,,,2,0.850263687991,,,2018_may._05_1417,60.0268940337,Experimento Piloto1,001,109,
0.25,Stim\\05_075.jpg,En75_13,Enojo,13,Rocío consume alimentos nutritivos.,Afirmación,En75,75,,,,,,,,,0,97,97,97,,,,,,,2,0.300429379903,,,2018_may._05_1417,60.0268940337,Experimento Piloto1,001,109,
0.25,Stim\\02_078.jpg,Al78_7,Alegría,7,Roberto contesta los cuestionarios solicitados.,Afirmación,Al78,78,,,,,,,,,0,98,98,98,,,,,,,3,0.850371233778,,,2018_may._05_1417,60.0268940337,Experimento Piloto1,001,109,
2.5,Stim\\03_028.jpg,Tr28_3,Tristeza,3,Andrea diseña la portada del libro.,Afirmación,Tr28,28,,,,,,,,,0,99,99,99,,,,,,,4,1.11690673326,,,2018_may._05_1417,60.0268940337,Experimento Piloto1,001,109,
2.5,Stim\\05_075.jpg,En75_15,Enojo,15,Ángel envía una carta a la abuela.,Afirmación,En75,75,,,,,,,,,0,100,100,100,,,,,,,2,0.433710293961,,,2018_may._05_1417,60.0268940337,Experimento Piloto1,001,109,
0.25,Stim\\02_028.jpg,Al28_13,Alegría,13,Rocío consume alimentos nutritivos.,Afirmación,Al28,28,,,,,,,,,0,101,101,101,,,,,,,3,0.750302779322,,,2018_may._05_1417,60.0268940337,Experimento Piloto1,001,109,
0.25,Stim\\03_028.jpg,Tr28_15,Tristeza,15,Ángel envía una carta a la abuela.,Afirmación,Tr28,28,,,,,,,,,0,102,102,102,,,,,,,2,0.400394304803,,,2018_may._05_1417,60.0268940337,Experimento Piloto1,001,109,
0.25,Stim\\05_019.jpg,En19_2,Enojo,2,Jonathan pasea al perro.,Afirmación,En19,19,,,,,,,,,0,103,103,103,,,,,,,2,1.5830338265,,,2018_may._05_1417,60.0268940337,Experimento Piloto1,001,109,
0.25,Stim\\03_078.jpg,Tr78_13,Tristeza,13,Rocío consume alimentos nutritivos.,Afirmación,Tr78,78,,,,,,,,,0,104,104,104,,,,,,,4,1.11684872101,,,2018_may._05_1417,60.0268940337,Experimento Piloto1,001,109,
2.5,Stim\\03_075.jpg,Tr75_2,Tristeza,2,Jonathan pasea al perro.,Afirmación,Tr75,75,,,,,,,,,0,105,105,105,,,,,,,4,1.06677165397,,,2018_may._05_1417,60.0268940337,Experimento Piloto1,001,109,
2.5,Stim\\05_075.jpg,En75_10,Enojo,10,Laura finaliza la obra.,Afirmación,En75,75,,,,,,,,,0,106,106,106,,,,,,,3,1.78321179023,,,2018_may._05_1417,60.0268940337,Experimento Piloto1,001,109,
2.5,Stim\\05_028.jpg,En28_3,Enojo,3,Andrea diseña la portada del libro.,Afirmación,En28,28,,,,,,,,,0,107,107,107,,,,,,,2,0.650289213381,,,2018_may._05_1417,60.0268940337,Experimento Piloto1,001,109,
2.5,Stim\\02_078.jpg,Al78_8,Alegría,8,Estefanía despierta a las 7 a.m.,Afirmación,Al78,78,,,,,,,,,0,108,108,108,,,,,,,3,1.06701842915,,,2018_may._05_1417,60.0268940337,Experimento Piloto1,001,109,
2.5,Stim\\05_075.jpg,En75_2,Enojo,2,Jonathan pasea al perro.,Afirmación,En75,75,,,,,,,,,0,109,109,109,,,,,,,2,0.85008251127,,,2018_may._05_1417,60.0268940337,Experimento Piloto1,001,109,
0.25,Stim\\05_078.jpg,En78_2,Enojo,2,Jonathan pasea al perro.,Afirmación,En78,78,,,,,,,,,0,110,110,110,,,,,,,2,0.233640768511,,,2018_may._05_1417,60.0268940337,Experimento Piloto1,001,109,
2.5,Stim\\05_078.jpg,En78_14,Enojo,14,Elizabeth elige la ropa un día antes.,Afirmación,En78,78,,,,,,,,,0,111,111,111,,,,,,,2,0.250386227713,,,2018_may._05_1417,60.0268940337,Experimento Piloto1,001,109,
2.5,Stim\\05_028.jpg,En28_1,Enojo,1,Juan colecciona monedas antiguas.,Afirmación,En28,28,,,,,,,,,0,112,112,112,,,,,,,2,0.233723324406,,,2018_may._05_1417,60.0268940337,Experimento Piloto1,001,109,
0.25,Stim\\05_019.jpg,En19_12,Enojo,12,Ana compra el libro.,Afirmación,En19,19,,,,,,,,,0,113,113,113,,,,,,,2,0.234007584432,,,2018_may._05_1417,60.0268940337,Experimento Piloto1,001,109,
0.25,Stim\\02_075.jpg,Al75_13,Alegría,13,Rocío consume alimentos nutritivos.,Afirmación,Al75,75,,,,,,,,,0,114,114,114,,,,,,,3,0.333936363239,,,2018_may._05_1417,60.0268940337,Experimento Piloto1,001,109,
2.5,Stim\\03_019.jpg,Tr19_6,Tristeza,6,Eduardo camina hacia la biblioteca.,Afirmación,Tr19,19,,,,,,,,,0,115,115,115,,,,,,,2,0.700214556077,,,2018_may._05_1417,60.0268940337,Experimento Piloto1,001,109,
2.5,Stim\\05_028.jpg,En28_14,Enojo,14,Elizabeth elige la ropa un día antes.,Afirmación,En28,28,,,,,,,,,0,116,116,116,,,,,,,2,0.25040318514,,,2018_may._05_1417,60.0268940337,Experimento Piloto1,001,109,
2.5,Stim\\02_028.jpg,Al28_5,Alegría,5,Emilio revisa el formato del archivo.,Afirmación,Al28,28,,,,,,,,,0,117,117,117,,,,,,,3,0.283667855769,,,2018_may._05_1417,60.0268940337,Experimento Piloto1,001,109,
2.5,Stim\\02_078.jpg,Al78_9,Alegría,9,Marco colabora en la organización del evento.,Afirmación,Al78,78,,,,,,,,,0,118,118,118,,,,,,,3,0.650270470961,,,2018_may._05_1417,60.0268940337,Experimento Piloto1,001,109,
0.25,Stim\\03_019.jpg,Tr19_3,Tristeza,3,Andrea diseña la portada del libro.,Afirmación,Tr19,19,,,,,,,,,0,119,119,119,,,,,,,3,0.800266945601,,,2018_may._05_1417,60.0268940337,Experimento Piloto1,001,109,
0.25,Stim\\03_028.jpg,Tr28_2,Tristeza,2,Jonathan pasea al perro.,Afirmación,Tr28,28,,,,,,,,,,,,,0,0,0,0,,,,,4,2.13291856062,2018_may._05_1417,60.0268940337,Experimento Piloto1,001,109,
2.5,Stim\\05_075.jpg,En75_12,Enojo,12,Ana compra el libro.,Afirmación,En75,75,,,,,,,,,,,,,0,1,1,1,,,,,4,0.600213038833,2018_may._05_1417,60.0268940337,Experimento Piloto1,001,109,
0.25,Stim\\02_078.jpg,Al78_11,Alegría,11,María asiste a la cena.,Afirmación,Al78,78,,,,,,,,,,,,,0,2,2,2,,,,,3,0.499941095254,2018_may._05_1417,60.0268940337,Experimento Piloto1,001,109,
0.25,Stim\\02_078.jpg,Al78_8,Alegría,8,Estefanía despierta a las 7 a.m.,Afirmación,Al78,78,,,,,,,,,,,,,0,3,3,3,,,,,3,0.23383622517,2018_may._05_1417,60.0268940337,Experimento Piloto1,001,109,
0.25,Stim\\05_028.jpg,En28_6,Enojo,6,Eduardo camina hacia la biblioteca.,Afirmación,En28,28,,,,,,,,,,,,,0,4,4,4,,,,,2,0.283913292213,2018_may._05_1417,60.0268940337,Experimento Piloto1,001,109,
0.25,Stim\\02_019.jpg,Al19_14,Alegría,14,Elizabeth elige la ropa un día antes.,Afirmación,Al19,19,,,,,,,,,,,,,0,5,5,5,,,,,3,0.750268864468,2018_may._05_1417,60.0268940337,Experimento Piloto1,001,109,
2.5,Stim\\05_078.jpg,En78_1,Enojo,1,Juan colecciona monedas antiguas.,Afirmación,En78,78,,,,,,,,,,,,,0,6,6,6,,,,,2,0.533712257453,2018_may._05_1417,60.0268940337,Experimento Piloto1,001,109,
2.5,Stim\\02_078.jpg,Al78_15,Alegría,15,Ángel envía una carta a la abuela.,Afirmación,Al78,78,,,,,,,,,,,,,0,7,7,7,,,,,3,0.500064259723,2018_may._05_1417,60.0268940337,Experimento Piloto1,001,109,
0.25,Stim\\02_075.jpg,Al75_14,Alegría,14,Elizabeth elige la ropa un día antes.,Afirmación,Al75,75,,,,,,,,,,,,,0,8,8,8,,,,,3,0.283719620546,2018_may._05_1417,60.0268940337,Experimento Piloto1,001,109,
2.5,Stim\\02_075.jpg,Al75_2,Alegría,2,Jonathan pasea al perro.,Afirmación,Al75,75,,,,,,,,,,,,,0,9,9,9,,,,,3,0.550404613135,2018_may._05_1417,60.0268940337,Experimento Piloto1,001,109,
0.25,Stim\\05_075.jpg,En75_12,Enojo,12,Ana compra el libro.,Afirmación,En75,75,,,,,,,,,,,,,0,10,10,10,,,,,2,0.300290150501,2018_may._05_1417,60.0268940337,Experimento Piloto1,001,109,
2.5,Stim\\03_078.jpg,Tr78_8,Tristeza,8,Estefanía despierta a las 7 a.m.,Afirmación,Tr78,78,,,,,,,,,,,,,0,11,11,11,,,,,3,0.650240126092,2018_may._05_1417,60.0268940337,Experimento Piloto1,001,109,
0.25,Stim\\03_078.jpg,Tr78_15,Tristeza,15,Ángel envía una carta a la abuela.,Afirmación,Tr78,78,,,,,,,,,,,,,0,12,12,12,,,,,3,1.15021736744,2018_may._05_1417,60.0268940337,Experimento Piloto1,001,109,
0.25,Stim\\03_078.jpg,Tr78_5,Tristeza,5,Emilio revisa el formato del archivo.,Afirmación,Tr78,78,,,,,,,,,,,,,0,13,13,13,,,,,3,0.600300057209,2018_may._05_1417,60.0268940337,Experimento Piloto1,001,109,
2.5,Stim\\02_019.jpg,Al19_5,Alegría,5,Emilio revisa el formato del archivo.,Afirmación,Al19,19,,,,,,,,,,,,,0,14,14,14,,,,,3,0.33372930413,2018_may._05_1417,60.0268940337,Experimento Piloto1,001,109,
2.5,Stim\\03_075.jpg,Tr75_10,Tristeza,10,Laura finaliza la obra.,Afirmación,Tr75,75,,,,,,,,,,,,,0,15,15,15,,,,,4,0.283900351019,2018_may._05_1417,60.0268940337,Experimento Piloto1,001,109,
2.5,Stim\\03_075.jpg,Tr75_4,Tristeza,4,Jorge sustituye a Gustavo cada sábado.,Afirmación,Tr75,75,,,,,,,,,,,,,0,16,16,16,,,,,4,1.36677263571,2018_may._05_1417,60.0268940337,Experimento Piloto1,001,109,
0.25,Stim\\03_028.jpg,Tr28_5,Tristeza,5,Emilio revisa el formato del archivo.,Afirmación,Tr28,28,,,,,,,,,,,,,0,17,17,17,,,,,4,0.551135121241,2018_may._05_1417,60.0268940337,Experimento Piloto1,001,109,
0.25,Stim\\05_075.jpg,En75_11,Enojo,11,María asiste a la cena.,Afirmación,En75,75,,,,,,,,,,,,,0,18,18,18,,,,,2,0.583505510718,2018_may._05_1417,60.0268940337,Experimento Piloto1,001,109,
0.25,Stim\\02_075.jpg,Al75_6,Alegría,6,Eduardo camina hacia la biblioteca.,Afirmación,Al75,75,,,,,,,,,,,,,0,19,19,19,,,,,3,0.600293363488,2018_may._05_1417,60.0268940337,Experimento Piloto1,001,109,
0.25,Stim\\05_078.jpg,En78_1,Enojo,1,Juan colecciona monedas antiguas.,Afirmación,En78,78,,,,,,,,,,,,,0,20,20,20,,,,,2,0.866188496974,2018_may._05_1417,60.0268940337,Experimento Piloto1,001,109,
2.5,Stim\\03_019.jpg,Tr19_4,Tristeza,4,Jorge sustituye a Gustavo cada sábado.,Afirmación,Tr19,19,,,,,,,,,,,,,0,21,21,21,,,,,3,0.750268864469,2018_may._05_1417,60.0268940337,Experimento Piloto1,001,109,
0.25,Stim\\03_028.jpg,Tr28_11,Tristeza,11,María asiste a la cena.,Afirmación,Tr28,28,,,,,,,,,,,,,0,22,22,22,,,,,4,0.450108572158,2018_may._05_1417,60.0268940337,Experimento Piloto1,001,109,
0.25,Stim\\02_019.jpg,Al19_7,Alegría,7,Roberto contesta los cuestionarios solicitados.,Afirmación,Al19,19,,,,,,,,,,,,,0,23,23,23,,,,,3,0.716513320951,2018_may._05_1417,60.0268940337,Experimento Piloto1,001,109,
0.25,Stim\\05_028.jpg,En28_1,Enojo,1,Juan colecciona monedas antiguas.,Afirmación,En28,28,,,,,,,,,,,,,0,24,24,24,,,,,2,0.966765227992,2018_may._05_1417,60.0268940337,Experimento Piloto1,001,109,
0.25,Stim\\03_019.jpg,Tr19_6,Tristeza,6,Eduardo camina hacia la biblioteca.,Afirmación,Tr19,19,,,,,,,,,,,,,0,25,25,25,,,,,2,0.400355481221,2018_may._05_1417,60.0268940337,Experimento Piloto1,001,109,
0.25,Stim\\03_078.jpg,Tr78_7,Tristeza,7,Roberto contesta los cuestionarios solicitados.,Afirmación,Tr78,78,,,,,,,,,,,,,0,26,26,26,,,,,4,0.600202328879,2018_may._05_1417,60.0268940337,Experimento Piloto1,001,109,
2.5,Stim\\03_019.jpg,Tr19_15,Tristeza,15,Ángel envía una carta a la abuela.,Afirmación,Tr19,19,,,,,,,,,,,,,0,27,27,27,,,,,3,0.850244499323,2018_may._05_1417,60.0268940337,Experimento Piloto1,001,109,
2.5,Stim\\02_028.jpg,Al28_4,Alegría,4,Jorge sustituye a Gustavo cada sábado.,Afirmación,Al28,28,,,,,,,,,,,,,0,28,28,28,,,,,3,0.400315765141,2018_may._05_1417,60.0268940337,Experimento Piloto1,001,109,
2.5,Stim\\03_078.jpg,Tr78_5,Tristeza,5,Emilio revisa el formato del archivo.,Afirmación,Tr78,78,,,,,,,,,,,,,0,29,29,29,,,,,4,1.53851344055,2018_may._05_1417,60.0268940337,Experimento Piloto1,001,109,
2.5,Stim\\03_028.jpg,Tr28_12,Tristeza,12,Ana compra el libro.,Afirmación,Tr28,28,,,,,,,,,,,,,0,30,30,30,,,,,4,2.08321366447,2018_may._05_1417,60.0268940337,Experimento Piloto1,001,109,
0.25,Stim\\02_028.jpg,Al28_2,Alegría,2,Jonathan pasea al perro.,Afirmación,Al28,28,,,,,,,,,,,,,0,31,31,31,,,,,3,0.283498281498,2018_may._05_1417,60.0268940337,Experimento Piloto1,001,109,
0.25,Stim\\05_019.jpg,En19_8,Enojo,8,Estefanía despierta a las 7 a.m.,Afirmación,En19,19,,,,,,,,,,,,,0,32,32,32,,,,,2,0.40046704324,2018_may._05_1417,60.0268940337,Experimento Piloto1,001,109,
0.25,Stim\\03_019.jpg,Tr19_9,Tristeza,9,Marco colabora en la organización del evento.,Afirmación,Tr19,19,,,,,,,,,,,,,0,33,33,33,,,,,3,0.766888481712,2018_may._05_1417,60.0268940337,Experimento Piloto1,001,109,
2.5,Stim\\02_078.jpg,Al78_10,Alegría,10,Laura finaliza la obra.,Afirmación,Al78,78,,,,,,,,,,,,,0,34,34,34,,,,,3,1.38339537669,2018_may._05_1417,60.0268940337,Experimento Piloto1,001,109,
2.5,Stim\\02_075.jpg,Al75_15,Alegría,15,Ángel envía una carta a la abuela.,Afirmación,Al75,75,,,,,,,,,,,,,0,35,35,35,,,,,3,0.750442454971,2018_may._05_1417,60.0268940337,Experimento Piloto1,001,109,
2.5,Stim\\03_028.jpg,Tr28_6,Tristeza,6,Eduardo camina hacia la biblioteca.,Afirmación,Tr28,28,,,,,,,,,,,,,0,36,36,36,,,,,3,1.51672448554,2018_may._05_1417,60.0268940337,Experimento Piloto1,001,109,
0.25,Stim\\03_075.jpg,Tr75_14,Tristeza,14,Elizabeth elige la ropa un día antes.,Afirmación,Tr75,75,,,,,,,,,,,,,0,37,37,37,,,,,3,0.450313400027,2018_may._05_1417,60.0268940337,Experimento Piloto1,001,109,
2.5,Stim\\05_075.jpg,En75_13,Enojo,13,Rocío consume alimentos nutritivos.,Afirmación,En75,75,,,,,,,,,,,,,0,38,38,38,,,,,2,1.38310263795,2018_may._05_1417,60.0268940337,Experimento Piloto1,001,109,
2.5,Stim\\03_075.jpg,Tr75_8,Tristeza,8,Estefanía despierta a las 7 a.m.,Afirmación,Tr75,75,,,,,,,,,,,,,0,39,39,39,,,,,4,1.00017492925,2018_may._05_1417,60.0268940337,Experimento Piloto1,001,109,
0.25,Stim\\05_075.jpg,En75_7,Enojo,7,Roberto contesta los cuestionarios solicitados.,Afirmación,En75,75,,,,,,,,,,,,,0,40,40,40,,,,,2,0.583612164009,2018_may._05_1417,60.0268940337,Experimento Piloto1,001,109,
2.5,Stim\\03_019.jpg,Tr19_10,Tristeza,10,Laura finaliza la obra.,Afirmación,Tr19,19,,,,,,,,,,,,,0,41,41,41,,,,,2,0.233620241099,2018_may._05_1417,60.0268940337,Experimento Piloto1,001,109,
2.5,Stim\\03_019.jpg,Tr19_2,Tristeza,2,Jonathan pasea al perro.,Afirmación,Tr19,19,,,,,,,,,,,,,0,42,42,42,,,,,2,0.450295996352,2018_may._05_1417,60.0268940337,Experimento Piloto1,001,109,
0.25,Stim\\03_075.jpg,Tr75_15,Tristeza,15,Ángel envía una carta a la abuela.,Afirmación,Tr75,75,,,,,,,,,,,,,0,43,43,43,,,,,4,0.333664598158,2018_may._05_1417,60.0268940337,Experimento Piloto1,001,109,
0.25,Stim\\05_019.jpg,En19_1,Enojo,1,Juan colecciona monedas antiguas.,Afirmación,En19,19,,,,,,,,,,,,,0,44,44,44,,,,,3,0.350339996412,2018_may._05_1417,60.0268940337,Experimento Piloto1,001,109,
0.25,Stim\\03_078.jpg,Tr78_2,Tristeza,2,Jonathan pasea al perro.,Afirmación,Tr78,78,,,,,,,,,,,,,0,45,45,45,,,,,4,0.283717389306,2018_may._05_1417,60.0268940337,Experimento Piloto1,001,109,
2.5,Stim\\02_019.jpg,Al19_9,Alegría,9,Marco colabora en la organización del evento.,Afirmación,Al19,19,,,,,,,,,,,,,0,46,46,46,,,,,3,1.98334869914,2018_may._05_1417,60.0268940337,Experimento Piloto1,001,109,
2.5,Stim\\03_028.jpg,Tr28_11,Tristeza,11,María asiste a la cena.,Afirmación,Tr28,28,,,,,,,,,,,,,0,47,47,47,,,,,4,0.816387657492,2018_may._05_1417,60.0268940337,Experimento Piloto1,001,109,
2.5,Stim\\05_078.jpg,En78_6,Enojo,6,Eduardo camina hacia la biblioteca.,Afirmación,En78,78,,,,,,,,,,,,,0,48,48,48,,,,,2,0.400373331144,2018_may._05_1417,60.0268940337,Experimento Piloto1,001,109,
2.5,Stim\\02_028.jpg,Al28_14,Alegría,14,Elizabeth elige la ropa un día antes.,Afirmación,Al28,28,,,,,,,,,,,,,0,49,49,49,,,,,3,0.433728590132,2018_may._05_1417,60.0268940337,Experimento Piloto1,001,109,
0.25,Stim\\03_019.jpg,Tr19_10,Tristeza,10,Laura finaliza la obra.,Afirmación,Tr19,19,,,,,,,,,,,,,0,50,50,50,,,,,3,1.16682270475,2018_may._05_1417,60.0268940337,Experimento Piloto1,001,109,
2.5,Stim\\05_019.jpg,En19_2,Enojo,2,Jonathan pasea al perro.,Afirmación,En19,19,,,,,,,,,,,,,0,51,51,51,,,,,2,1.48248342412,2018_may._05_1417,60.0268940337,Experimento Piloto1,001,109,
0.25,Stim\\05_078.jpg,En78_5,Enojo,5,Emilio revisa el formato del archivo.,Afirmación,En78,78,,,,,,,,,,,,,0,52,52,52,,,,,2,0.433631308051,2018_may._05_1417,60.0268940337,Experimento Piloto1,001,109,
2.5,Stim\\02_075.jpg,Al75_5,Alegría,5,Emilio revisa el formato del archivo.,Afirmación,Al75,75,,,,,,,,,,,,,0,53,53,53,,,,,3,0.583766119596,2018_may._05_1417,60.0268940337,Experimento Piloto1,001,109,
0.25,Stim\\05_028.jpg,En28_9,Enojo,9,Marco colabora en la organización del evento.,Afirmación,En28,28,,,,,,,,,,,,,0,54,54,54,,,,,2,0.333703867989,2018_may._05_1417,60.0268940337,Experimento Piloto1,001,109,
2.5,Stim\\03_019.jpg,Tr19_1,Tristeza,1,Juan colecciona monedas antiguas.,Afirmación,Tr19,19,,,,,,,,,,,,,0,55,55,55,,,,,3,0.816804899447,2018_may._05_1417,60.0268940337,Experimento Piloto1,001,109,
0.25,Stim\\02_028.jpg,Al28_3,Alegría,3,Andrea diseña la portada del libro.,Afirmación,Al28,28,,,,,,,,,,,,,0,56,56,56,,,,,3,1.38307229308,2018_may._05_1417,60.0268940337,Experimento Piloto1,001,109,
0.25,Stim\\05_028.jpg,En28_5,Enojo,5,Emilio revisa el formato del archivo.,Afirmación,En28,28,,,,,,,,,,,,,0,57,57,57,,,,,2,0.350328393962,2018_may._05_1417,60.0268940337,Experimento Piloto1,001,109,
2.5,Stim\\03_078.jpg,Tr78_15,Tristeza,15,Ángel envía una carta a la abuela.,Afirmación,Tr78,78,,,,,,,,,,,,,0,58,58,58,,,,,4,0.333630683304,2018_may._05_1417,60.0268940337,Experimento Piloto1,001,109,
0.25,Stim\\02_078.jpg,Al78_10,Alegría,10,Laura finaliza la obra.,Afirmación,Al78,78,,,,,,,,,,,,,0,59,59,59,,,,,4,1.00014949311,2018_may._05_1417,60.0268940337,Experimento Piloto1,001,109,
0.25,Stim\\03_075.jpg,Tr75_7,Tristeza,7,Roberto contesta los cuestionarios solicitados.,Afirmación,Tr75,75,,,,,,,,,,,,,0,60,60,60,,,,,3,0.850169083397,2018_may._05_1417,60.0268940337,Experimento Piloto1,001,109,
0.25,Stim\\03_075.jpg,Tr75_5,Tristeza,5,Emilio revisa el formato del archivo.,Afirmación,Tr75,75,,,,,,,,,,,,,0,61,61,61,,,,,2,1.1501111604,2018_may._05_1417,60.0268940337,Experimento Piloto1,001,109,
0.25,Stim\\05_075.jpg,En75_14,Enojo,14,Elizabeth elige la ropa un día antes.,Afirmación,En75,75,,,,,,,,,,,,,0,62,62,62,,,,,2,0.333588735984,2018_may._05_1417,60.0268940337,Experimento Piloto1,001,109,
0.25,Stim\\05_075.jpg,En75_2,Enojo,2,Jonathan pasea al perro.,Afirmación,En75,75,,,,,,,,,,,,,0,63,63,63,,,,,2,0.300258913136,2018_may._05_1417,60.0268940337,Experimento Piloto1,001,109,
0.25,Stim\\02_078.jpg,Al78_6,Alegría,6,Eduardo camina hacia la biblioteca.,Afirmación,Al78,78,,,,,,,,,,,,,0,64,64,64,,,,,3,0.333753401526,2018_may._05_1417,60.0268940337,Experimento Piloto1,001,109,
0.25,Stim\\03_075.jpg,Tr75_4,Tristeza,4,Jorge sustituye a Gustavo cada sábado.,Afirmación,Tr75,75,,,,,,,,,,,,,0,65,65,65,,,,,3,0.966979873319,2018_may._05_1417,60.0268940337,Experimento Piloto1,001,109,
0.25,Stim\\03_075.jpg,Tr75_3,Tristeza,3,Andrea diseña la portada del libro.,Afirmación,Tr75,75,,,,,,,,,,,,,0,66,66,66,,,,,2,0.50002097366,2018_may._05_1417,60.0268940337,Experimento Piloto1,001,109,
0.25,Stim\\02_028.jpg,Al28_10,Alegría,10,Laura finaliza la obra.,Afirmación,Al28,28,,,,,,,,,,,,,0,67,67,67,,,,,3,0.550211387716,2018_may._05_1417,60.0268940337,Experimento Piloto1,001,109,
0.25,Stim\\03_028.jpg,Tr28_12,Tristeza,12,Ana compra el libro.,Afirmación,Tr28,28,,,,,,,,,,,,,0,68,68,68,,,,,4,0.450302690072,2018_may._05_1417,60.0268940337,Experimento Piloto1,001,109,
0.25,Stim\\03_075.jpg,Tr75_10,Tristeza,10,Laura finaliza la obra.,Afirmación,Tr75,75,,,,,,,,,,,,,0,69,69,69,,,,,4,0.400389396074,2018_may._05_1417,60.0268940337,Experimento Piloto1,001,109,
0.25,Stim\\02_028.jpg,Al28_8,Alegría,8,Estefanía despierta a las 7 a.m.,Afirmación,Al28,28,,,,,,,,,,,,,0,70,70,70,,,,,3,2.13300781023,2018_may._05_1417,60.0268940337,Experimento Piloto1,001,109,
0.25,Stim\\05_078.jpg,En78_14,Enojo,14,Elizabeth elige la ropa un día antes.,Afirmación,En78,78,,,,,,,,,,,,,0,71,71,71,,,,,2,0.233778659167,2018_may._05_1417,60.0268940337,Experimento Piloto1,001,109,
2.5,Stim\\03_078.jpg,Tr78_9,Tristeza,9,Marco colabora en la organización del evento.,Afirmación,Tr78,78,,,,,,,,,,,,,0,72,72,72,,,,,4,0.333755186518,2018_may._05_1417,60.0268940337,Experimento Piloto1,001,109,
0.25,Stim\\02_019.jpg,Al19_3,Alegría,3,Andrea diseña la portada del libro.,Afirmación,Al19,19,,,,,,,,,,,,,0,73,73,73,,,,,3,0.850186040825,2018_may._05_1417,60.0268940337,Experimento Piloto1,001,109,
0.25,Stim\\03_078.jpg,Tr78_6,Tristeza,6,Eduardo camina hacia la biblioteca.,Afirmación,Tr78,78,,,,,,,,,,,,,0,74,74,74,,,,,3,0.600363424436,2018_may._05_1417,60.0268940337,Experimento Piloto1,001,109,
0.25,Stim\\03_028.jpg,Tr28_8,Tristeza,8,Estefanía despierta a las 7 a.m.,Afirmación,Tr28,28,,,,,,,,,,,,,0,75,75,75,,,,,4,0.816995001129,2018_may._05_1417,60.0268940337,Experimento Piloto1,001,109,
2.5,Stim\\05_078.jpg,En78_9,Enojo,9,Marco colabora en la organización del evento.,Afirmación,En78,78,,,,,,,,,,,,,0,76,76,76,,,,,2,0.300371367652,2018_may._05_1417,60.0268940337,Experimento Piloto1,001,109,
2.5,Stim\\02_028.jpg,Al28_6,Alegría,6,Eduardo camina hacia la biblioteca.,Afirmación,Al28,28,,,,,,,,,,,,,0,77,77,77,,,,,3,0.283675441986,2018_may._05_1417,60.0268940337,Experimento Piloto1,001,109,
2.5,Stim\\03_078.jpg,Tr78_6,Tristeza,6,Eduardo camina hacia la biblioteca.,Afirmación,Tr78,78,,,,,,,,,,,,,0,78,78,78,,,,,4,0.350400686151,2018_may._05_1417,60.0268940337,Experimento Piloto1,001,109,
2.5,Stim\\02_078.jpg,Al78_2,Alegría,2,Jonathan pasea al perro.,Afirmación,Al78,78,,,,,,,,,,,,,0,79,79,79,,,,,3,0.183781024282,2018_may._05_1417,60.0268940337,Experimento Piloto1,001,109,
2.5,Stim\\02_028.jpg,Al28_10,Alegría,10,Laura finaliza la obra.,Afirmación,Al28,28,,,,,,,,,,,,,0,80,80,80,,,,,3,0.233838902658,2018_may._05_1417,60.0268940337,Experimento Piloto1,001,109,
2.5,Stim\\02_019.jpg,Al19_15,Alegría,15,Ángel envía una carta a la abuela.,Afirmación,Al19,19,,,,,,,,,,,,,0,81,81,81,,,,,3,0.184034046943,2018_may._05_1417,60.0268940337,Experimento Piloto1,001,109,
0.25,Stim\\03_019.jpg,Tr19_5,Tristeza,5,Emilio revisa el formato del archivo.,Afirmación,Tr19,19,,,,,,,,,,,,,0,82,82,82,,,,,2,2.03311651627,2018_may._05_1417,60.0268940337,Experimento Piloto1,001,109,
0.25,Stim\\02_075.jpg,Al75_12,Alegría,12,Ana compra el libro.,Afirmación,Al75,75,,,,,,,,,,,,,0,83,83,83,,,,,2,0.600633404525,2018_may._05_1417,60.0268940337,Experimento Piloto1,001,109,
2.5,Stim\\05_078.jpg,En78_3,Enojo,3,Andrea diseña la portada del libro.,Afirmación,En78,78,,,,,,,,,,,,,0,84,84,84,,,,,2,0.750142130014,2018_may._05_1417,60.0268940337,Experimento Piloto1,001,109,
2.5,Stim\\03_075.jpg,Tr75_5,Tristeza,5,Emilio revisa el formato del archivo.,Afirmación,Tr75,75,,,,,,,,,,,,,0,85,85,85,,,,,4,0.550021732281,2018_may._05_1417,60.0268940337,Experimento Piloto1,001,109,
2.5,Stim\\05_028.jpg,En28_2,Enojo,2,Jonathan pasea al perro.,Afirmación,En28,28,,,,,,,,,,,,,0,86,86,86,,,,,2,0.350278860426,2018_may._05_1417,60.0268940337,Experimento Piloto1,001,109,
0.25,Stim\\03_028.jpg,Tr28_9,Tristeza,9,Marco colabora en la organización del evento.,Afirmación,Tr28,28,,,,,,,,,,,,,0,87,87,87,,,,,4,0.250329554207,2018_may._05_1417,60.0268940337,Experimento Piloto1,001,109,
0.25,Stim\\03_078.jpg,Tr78_9,Tristeza,9,Marco colabora en la organización del evento.,Afirmación,Tr78,78,,,,,,,,,,,,,0,88,88,88,,,,,4,0.333730642874,2018_may._05_1417,60.0268940337,Experimento Piloto1,001,109,
2.5,Stim\\03_075.jpg,Tr75_12,Tristeza,12,Ana compra el libro.,Afirmación,Tr75,75,,,,,,,,,,,,,0,89,89,89,,,,,4,0.583709892338,2018_may._05_1417,60.0268940337,Experimento Piloto1,001,109,
2.5,Stim\\05_078.jpg,En78_11,Enojo,11,María asiste a la cena.,Afirmación,En78,78,,,,,,,,,,,,,0,90,90,90,,,,,2,0.400236779231,2018_may._05_1417,60.0268940337,Experimento Piloto1,001,109,
2.5,Stim\\02_075.jpg,Al75_14,Alegría,14,Elizabeth elige la ropa un día antes.,Afirmación,Al75,75,,,,,,,,,,,,,0,91,91,91,,,,,3,0.550325627224,2018_may._05_1417,60.0268940337,Experimento Piloto1,001,109,
0.25,Stim\\03_019.jpg,Tr19_7,Tristeza,7,Roberto contesta los cuestionarios solicitados.,Afirmación,Tr19,19,,,,,,,,,,,,,0,92,92,92,,,,,3,1.26661046916,2018_may._05_1417,60.0268940337,Experimento Piloto1,001,109,
0.25,Stim\\05_075.jpg,En75_5,Enojo,5,Emilio revisa el formato del archivo.,Afirmación,En75,75,,,,,,,,,,,,,0,93,93,93,,,,,2,0.450409789612,2018_may._05_1417,60.0268940337,Experimento Piloto1,001,109,
2.5,Stim\\05_019.jpg,En19_14,Enojo,14,Elizabeth elige la ropa un día antes.,Afirmación,En19,19,,,,,,,,,,,,,0,94,94,94,,,,,2,1.31687049791,2018_may._05_1417,60.0268940337,Experimento Piloto1,001,109,
0.25,Stim\\02_075.jpg,Al75_2,Alegría,2,Jonathan pasea al perro.,Afirmación,Al75,75,,,,,,,,,,,,,0,95,95,95,,,,,3,0.750167119906,2018_may._05_1417,60.0268940337,Experimento Piloto1,001,109,
2.5,Stim\\03_028.jpg,Tr28_10,Tristeza,10,Laura finaliza la obra.,Afirmación,Tr28,28,,,,,,,,,,,,,0,96,96,96,,,,,4,0.350382836228,2018_may._05_1417,60.0268940337,Experimento Piloto1,001,109,
2.5,Stim\\02_078.jpg,Al78_3,Alegría,3,Andrea diseña la portada del libro.,Afirmación,Al78,78,,,,,,,,,,,,,0,97,97,97,,,,,3,0.30029282799,2018_may._05_1417,60.0268940337,Experimento Piloto1,001,109,
2.5,Stim\\05_075.jpg,En75_3,Enojo,3,Andrea diseña la portada del libro.,Afirmación,En75,75,,,,,,,,,,,,,0,98,98,98,,,,,2,0.300346824008,2018_may._05_1417,60.0268940337,Experimento Piloto1,001,109,
2.5,Stim\\03_075.jpg,Tr75_3,Tristeza,3,Andrea diseña la portada del libro.,Afirmación,Tr75,75,,,,,,,,,,,,,0,99,99,99,,,,,4,1.06663242456,2018_may._05_1417,60.0268940337,Experimento Piloto1,001,109,
2.5,Stim\\03_075.jpg,Tr75_7,Tristeza,7,Roberto contesta los cuestionarios solicitados.,Afirmación,Tr75,75,,,,,,,,,,,,,0,100,100,100,,,,,4,0.966833950197,2018_may._05_1417,60.0268940337,Experimento Piloto1,001,109,
2.5,Stim\\03_019.jpg,Tr19_14,Tristeza,14,Elizabeth elige la ropa un día antes.,Afirmación,Tr19,19,,,,,,,,,,,,,0,101,101,101,,,,,3,0.767154445568,2018_may._05_1417,60.0268940337,Experimento Piloto1,001,109,
2.5,Stim\\05_078.jpg,En78_5,Enojo,5,Emilio revisa el formato del archivo.,Afirmación,En78,78,,,,,,,,,,,,,0,102,102,102,,,,,2,1.53334767277,2018_may._05_1417,60.0268940337,Experimento Piloto1,001,109,
2.5,Stim\\02_078.jpg,Al78_12,Alegría,12,Ana compra el libro.,Afirmación,Al78,78,,,,,,,,,,,,,0,103,103,103,,,,,3,0.300314694146,2018_may._05_1417,60.0268940337,Experimento Piloto1,001,109,
2.5,Stim\\02_028.jpg,Al28_13,Alegría,13,Rocío consume alimentos nutritivos.,Afirmación,Al28,28,,,,,,,,,,,,,0,104,104,104,,,,,3,0.233674683365,2018_may._05_1417,60.0268940337,Experimento Piloto1,001,109,
2.5,Stim\\05_028.jpg,En28_4,Enojo,4,Jorge sustituye a Gustavo cada sábado.,Afirmación,En28,28,,,,,,,,,,,,,0,105,105,105,,,,,2,0.550054754639,2018_may._05_1417,60.0268940337,Experimento Piloto1,001,109,
0.25,Stim\\02_028.jpg,Al28_7,Alegría,7,Roberto contesta los cuestionarios solicitados.,Afirmación,Al28,28,,,,,,,,,,,,,0,106,106,106,,,,,2,2.03295185072,2018_may._05_1417,60.0268940337,Experimento Piloto1,001,109,
0.25,Stim\\02_078.jpg,Al78_12,Alegría,12,Ana compra el libro.,Afirmación,Al78,78,,,,,,,,,,,,,0,107,107,107,,,,,3,0.383848764741,2018_may._05_1417,60.0268940337,Experimento Piloto1,001,109,
2.5,Stim\\02_028.jpg,Al28_7,Alegría,7,Roberto contesta los cuestionarios solicitados.,Afirmación,Al28,28,,,,,,,,,,,,,0,108,108,108,,,,,3,0.500305233687,2018_may._05_1417,60.0268940337,Experimento Piloto1,001,109,
0.25,Stim\\02_075.jpg,Al75_7,Alegría,7,Roberto contesta los cuestionarios solicitados.,Afirmación,Al75,75,,,,,,,,,,,,,0,109,109,109,,,,,3,0.483677583977,2018_may._05_1417,60.0268940337,Experimento Piloto1,001,109,
0.25,Stim\\05_075.jpg,En75_10,Enojo,10,Laura finaliza la obra.,Afirmación,En75,75,,,,,,,,,,,,,0,110,110,110,,,,,2,0.800336560302,2018_may._05_1417,60.0268940337,Experimento Piloto1,001,109,
2.5,Stim\\05_028.jpg,En28_8,Enojo,8,Estefanía despierta a las 7 a.m.,Afirmación,En28,28,,,,,,,,,,,,,0,111,111,111,,,,,2,0.600431254144,2018_may._05_1417,60.0268940337,Experimento Piloto1,001,109,
0.25,Stim\\03_075.jpg,Tr75_6,Tristeza,6,Eduardo camina hacia la biblioteca.,Afirmación,Tr75,75,,,,,,,,,,,,,0,112,112,112,,,,,4,1.01685077375,2018_may._05_1417,60.0268940337,Experimento Piloto1,001,109,
0.25,Stim\\02_078.jpg,Al78_4,Alegría,4,Jorge sustituye a Gustavo cada sábado.,Afirmación,Al78,78,,,,,,,,,,,,,0,113,113,113,,,,,3,0.333785531388,2018_may._05_1417,60.0268940337,Experimento Piloto1,001,109,
2.5,Stim\\02_019.jpg,Al19_13,Alegría,13,Rocío consume alimentos nutritivos.,Afirmación,Al19,19,,,,,,,,,,,,,0,114,114,114,,,,,3,1.46660234744,2018_may._05_1417,60.0268940337,Experimento Piloto1,001,109,
0.25,Stim\\02_078.jpg,Al78_15,Alegría,15,Ángel envía una carta a la abuela.,Afirmación,Al78,78,,,,,,,,,,,,,0,115,115,115,,,,,3,0.533464589768,2018_may._05_1417,60.0268940337,Experimento Piloto1,001,109,
2.5,Stim\\05_019.jpg,En19_4,Enojo,4,Jorge sustituye a Gustavo cada sábado.,Afirmación,En19,19,,,,,,,,,,,,,0,116,116,116,,,,,2,0.333222812559,2018_may._05_1417,60.0268940337,Experimento Piloto1,001,109,
2.5,Stim\\05_075.jpg,En75_9,Enojo,9,Marco colabora en la organización del evento.,Afirmación,En75,75,,,,,,,,,,,,,0,117,117,117,,,,,2,0.350204336996,2018_may._05_1417,60.0268940337,Experimento Piloto1,001,109,
0.25,Stim\\05_078.jpg,En78_8,Enojo,8,Estefanía despierta a las 7 a.m.,Afirmación,En78,78,,,,,,,,,,,,,0,118,118,118,,,,,2,0.500314158648,2018_may._05_1417,60.0268940337,Experimento Piloto1,001,109,
0.25,Stim\\03_075.jpg,Tr75_12,Tristeza,12,Ana compra el libro.,Afirmación,Tr75,75,,,,,,,,,,,,,0,119,119,119,,,,,2,0.400350126244,2018_may._05_1417,60.0268940337,Experimento Piloto1,001,109,
