Tiempo,ImagenesE,ClaveEn,Emocion,NumEn,Enunciado,ActoHabla,Clave,Cara,trials.thisRepN,trials.thisTrialN,trials.thisN,trials.thisIndex,Bloque2.thisRepN,Bloque2.thisTrialN,Bloque2.thisN,Bloque2.thisIndex,Bloque1.thisRepN,Bloque1.thisTrialN,Bloque1.thisN,Bloque1.thisIndex,Bloque3.thisRepN,Bloque3.thisTrialN,Bloque3.thisN,Bloque3.thisIndex,Resp_Bloque2.keys,Resp_Bloque2.rt,Resp_Bloque1.keys,Resp_Bloque1.rt,Resp_Bloque3.keys,Resp_Bloque3.rt,date,frameRate,expName,session,participant,
2.5,Stim\\03_028.jpg,Tr28_1,Tristeza,1,Juan colecciona monedas antiguas.,Afirmación,Tr28,28,,,,,0,0,0,0,,,,,,,,,3,1.05016225566,,,,,2018_may._07_1640,59.9806747768,Experimento Piloto1,001,110,
0.25,Stim\\03_019.jpg,Tr19_1,Tristeza,1,Juan colecciona monedas antiguas.,Afirmación,Tr19,19,,,,,0,1,1,1,,,,,,,,,3,3.26617112349,,,,,2018_may._07_1640,59.9806747768,Experimento Piloto1,001,110,
2.5,Stim\\03_078.jpg,Tr78_10,Tristeza,10,Laura finaliza la obra.,Afirmación,Tr78,78,,,,,0,2,2,2,,,,,,,,,4,0.966874142089,,,,,2018_may._07_1640,59.9806747768,Experimento Piloto1,001,110,
0.25,Stim\\02_075.jpg,Al75_5,Alegría,5,Emilio revisa el formato del archivo.,Afirmación,Al75,75,,,,,0,3,3,3,,,,,,,,,3,7.36466735805,,,,,2018_may._07_1640,59.9806747768,Experimento Piloto1,001,110,
0.25,Stim\\02_019.jpg,Al19_15,Alegría,15,Ángel envía una carta a la abuela.,Afirmación,Al19,19,,,,,0,4,4,4,,,,,,,,,4,3.33249334645,,,,,2018_may._07_1640,59.9806747768,Experimento Piloto1,001,110,
2.5,Stim\\02_075.jpg,Al75_7,Alegría,7,Roberto contesta los cuestionarios solicitados.,Afirmación,Al75,75,,,,,0,5,5,5,,,,,,,,,3,0.700254985925,,,,,2018_may._07_1640,59.9806747768,Experimento Piloto1,001,110,
0.25,Stim\\03_075.jpg,Tr75_8,Tristeza,8,Estefanía despierta a las 7 a.m.,Afirmación,Tr75,75,,,,,0,6,6,6,,,,,,,,,3,1.51692126584,,,,,2018_may._07_1640,59.9806747768,Experimento Piloto1,001,110,
0.25,Stim\\02_019.jpg,Al19_11,Alegría,11,María asiste a la cena.,Afirmación,Al19,19,,,,,0,7,7,7,,,,,,,,,3,1.06650339951,,,,,2018_may._07_1640,59.9806747768,Experimento Piloto1,001,110,
2.5,Stim\\02_019.jpg,Al19_2,Alegría,2,Jonathan pasea al perro.,Afirmación,Al19,19,,,,,0,8,8,8,,,,,,,,,3,1.2667570467,,,,,2018_may._07_1640,59.9806747768,Experimento Piloto1,001,110,
2.5,Stim\\05_075.jpg,En75_5,Enojo,5,Emilio revisa el formato del archivo.,Afirmación,En75,75,,,,,0,9,9,9,,,,,,,,,2,2.64939167516,,,,,2018_may._07_1640,59.9806747768,Experimento Piloto1,001,110,
0.25,Stim\\03_078.jpg,Tr78_10,Tristeza,10,Laura finaliza la obra.,Afirmación,Tr78,78,,,,,0,10,10,10,,,,,,,,,4,0.700246507219,,,,,2018_may._07_1640,59.9806747768,Experimento Piloto1,001,110,
0.25,Stim\\02_019.jpg,Al19_6,Alegría,6,Eduardo camina hacia la biblioteca.,Afirmación,Al19,19,,,,,0,11,11,11,,,,,,,,,3,0.499965638929,,,,,2018_may._07_1640,59.9806747768,Experimento Piloto1,001,110,
2.5,Stim\\05_019.jpg,En19_3,Enojo,3,Andrea diseña la portada del libro.,Afirmación,En19,19,,,,,0,12,12,12,,,,,,,,,2,1.10014422725,,,,,2018_may._07_1640,59.9806747768,Experimento Piloto1,001,110,
0.25,Stim\\05_019.jpg,En19_3,Enojo,3,Andrea diseña la portada del libro.,Afirmación,En19,19,,,,,0,13,13,13,,,,,,,,,2,2.28324098981,,,,,2018_may._07_1640,59.9806747768,Experimento Piloto1,001,110,
2.5,Stim\\02_028.jpg,Al28_1,Alegría,1,Juan colecciona monedas antiguas.,Afirmación,Al28,28,,,,,0,14,14,14,,,,,,,,,3,0.85017903457,,,,,2018_may._07_1640,59.9806747768,Experimento Piloto1,001,110,
0.25,Stim\\02_019.jpg,Al19_2,Alegría,2,Jonathan pasea al perro.,Afirmación,Al19,19,,,,,0,15,15,15,,,,,,,,,3,1.01674722925,,,,,2018_may._07_1640,59.9806747768,Experimento Piloto1,001,110,
0.25,Stim\\05_028.jpg,En28_11,Enojo,11,María asiste a la cena.,Afirmación,En28,28,,,,,0,16,16,16,,,,,,,,,3,2.23313630011,,,,,2018_may._07_1640,59.9806747768,Experimento Piloto1,001,110,
0.25,Stim\\03_028.jpg,Tr28_1,Tristeza,1,Juan colecciona monedas antiguas.,Afirmación,Tr28,28,,,,,0,17,17,17,,,,,,,,,3,2.03354845447,,,,,2018_may._07_1640,59.9806747768,Experimento Piloto1,001,110,
0.25,Stim\\03_078.jpg,Tr78_1,Tristeza,1,Juan colecciona monedas antiguas.,Afirmación,Tr78,78,,,,,0,18,18,18,,,,,,,,,4,1.01674812174,,,,,2018_may._07_1640,59.9806747768,Experimento Piloto1,001,110,
0.25,Stim\\02_019.jpg,Al19_1,Alegría,1,Juan colecciona monedas antiguas.,Afirmación,Al19,19,,,,,0,19,19,19,,,,,,,,,3,0.483561574148,,,,,2018_may._07_1640,59.9806747768,Experimento Piloto1,001,110,
0.25,Stim\\02_019.jpg,Al19_10,Alegría,10,Laura finaliza la obra.,Afirmación,Al19,19,,,,,0,20,20,20,,,,,,,,,3,0.700329955536,,,,,2018_may._07_1640,59.9806747768,Experimento Piloto1,001,110,
2.5,Stim\\03_019.jpg,Tr19_13,Tristeza,13,Rocío consume alimentos nutritivos.,Afirmación,Tr19,19,,,,,0,21,21,21,,,,,,,,,2,1.73324920077,,,,,2018_may._07_1640,59.9806747768,Experimento Piloto1,001,110,
2.5,Stim\\05_075.jpg,En75_6,Enojo,6,Eduardo camina hacia la biblioteca.,Afirmación,En75,75,,,,,0,22,22,22,,,,,,,,,2,2.18335870995,,,,,2018_may._07_1640,59.9806747768,Experimento Piloto1,001,110,
0.25,Stim\\05_078.jpg,En78_10,Enojo,10,Laura finaliza la obra.,Afirmación,En78,78,,,,,0,23,23,23,,,,,,,,,2,2.28321867743,,,,,2018_may._07_1640,59.9806747768,Experimento Piloto1,001,110,
2.5,Stim\\05_075.jpg,En75_14,Enojo,14,Elizabeth elige la ropa un día antes.,Afirmación,En75,75,,,,,0,24,24,24,,,,,,,,,3,0.600245525475,,,,,2018_may._07_1640,59.9806747768,Experimento Piloto1,001,110,
0.25,Stim\\05_019.jpg,En19_7,Enojo,7,Roberto contesta los cuestionarios solicitados.,Afirmación,En19,19,,,,,0,25,25,25,,,,,,,,,2,0.95015011772,,,,,2018_may._07_1640,59.9806747768,Experimento Piloto1,001,110,
0.25,Stim\\02_078.jpg,Al78_14,Alegría,14,Elizabeth elige la ropa un día antes.,Afirmación,Al78,78,,,,,0,26,26,26,,,,,,,,,3,0.583633509274,,,,,2018_may._07_1640,59.9806747768,Experimento Piloto1,001,110,
0.25,Stim\\03_028.jpg,Tr28_13,Tristeza,13,Rocío consume alimentos nutritivos.,Afirmación,Tr28,28,,,,,0,27,27,27,,,,,,,,,4,1.01679096152,,,,,2018_may._07_1640,59.9806747768,Experimento Piloto1,001,110,
2.5,Stim\\03_019.jpg,Tr19_8,Tristeza,8,Estefanía despierta a las 7 a.m.,Afirmación,Tr19,19,,,,,0,28,28,28,,,,,,,,,3,0.650101208974,,,,,2018_may._07_1640,59.9806747768,Experimento Piloto1,001,110,
2.5,Stim\\02_019.jpg,Al19_8,Alegría,8,Estefanía despierta a las 7 a.m.,Afirmación,Al19,19,,,,,0,29,29,29,,,,,,,,,3,0.483455367199,,,,,2018_may._07_1640,59.9806747768,Experimento Piloto1,001,110,
2.5,Stim\\02_028.jpg,Al28_9,Alegría,9,Marco colabora en la organización del evento.,Afirmación,Al28,28,,,,,0,30,30,30,,,,,,,,,3,0.650493906934,,,,,2018_may._07_1640,59.9806747768,Experimento Piloto1,001,110,
2.5,Stim\\03_075.jpg,Tr75_1,Tristeza,1,Juan colecciona monedas antiguas.,Afirmación,Tr75,75,,,,,0,31,31,31,,,,,,,,,3,0.650372081317,,,,,2018_may._07_1640,59.9806747768,Experimento Piloto1,001,110,
2.5,Stim\\05_078.jpg,En78_8,Enojo,8,Estefanía despierta a las 7 a.m.,Afirmación,En78,78,,,,,0,32,32,32,,,,,,,,,4,0.700232673541,,,,,2018_may._07_1640,59.9806747768,Experimento Piloto1,001,110,
0.25,Stim\\02_028.jpg,Al28_12,Alegría,12,Ana compra el libro.,Afirmación,Al28,28,,,,,0,33,33,33,,,,,,,,,3,0.60019822322,,,,,2018_may._07_1640,59.9806747768,Experimento Piloto1,001,110,
0.25,Stim\\05_075.jpg,En75_1,Enojo,1,Juan colecciona monedas antiguas.,Afirmación,En75,75,,,,,0,34,34,34,,,,,,,,,2,0.699955999979,,,,,2018_may._07_1640,59.9806747768,Experimento Piloto1,001,110,
0.25,Stim\\03_028.jpg,Tr28_4,Tristeza,4,Jorge sustituye a Gustavo cada sábado.,Afirmación,Tr28,28,,,,,0,35,35,35,,,,,,,,,3,0.500209290163,,,,,2018_may._07_1640,59.9806747768,Experimento Piloto1,001,110,
2.5,Stim\\03_078.jpg,Tr78_3,Tristeza,3,Andrea diseña la portada del libro.,Afirmación,Tr78,78,,,,,0,36,36,36,,,,,,,,,3,0.700234458532,,,,,2018_may._07_1640,59.9806747768,Experimento Piloto1,001,110,
0.25,Stim\\05_078.jpg,En78_4,Enojo,4,Jorge sustituye a Gustavo cada sábado.,Afirmación,En78,78,,,,,0,37,37,37,,,,,,,,,2,1.01679587025,,,,,2018_may._07_1640,59.9806747768,Experimento Piloto1,001,110,
2.5,Stim\\03_019.jpg,Tr19_7,Tristeza,7,Roberto contesta los cuestionarios solicitados.,Afirmación,Tr19,19,,,,,0,38,38,38,,,,,,,,,2,1.66678105482,,,,,2018_may._07_1640,59.9806747768,Experimento Piloto1,001,110,
0.25,Stim\\02_078.jpg,Al78_2,Alegría,2,Jonathan pasea al perro.,Afirmación,Al78,78,,,,,0,39,39,39,,,,,,,,,3,0.600268284106,,,,,2018_may._07_1640,59.9806747768,Experimento Piloto1,001,110,
0.25,Stim\\02_078.jpg,Al78_5,Alegría,5,Emilio revisa el formato del archivo.,Afirmación,Al78,78,,,,,0,40,40,40,,,,,,,,,2,3.81604867313,,,,,2018_may._07_1640,59.9806747768,Experimento Piloto1,001,110,
2.5,Stim\\05_019.jpg,En19_11,Enojo,11,María asiste a la cena.,Afirmación,En19,19,,,,,0,41,41,41,,,,,,,,,2,3.21626992273,,,,,2018_may._07_1640,59.9806747768,Experimento Piloto1,001,110,
2.5,Stim\\02_028.jpg,Al28_15,Alegría,15,Ángel envía una carta a la abuela.,Afirmación,Al28,28,,,,,0,42,42,42,,,,,,,,,3,0.650231959545,,,,,2018_may._07_1640,59.9806747768,Experimento Piloto1,001,110,
0.25,Stim\\03_019.jpg,Tr19_4,Tristeza,4,Jorge sustituye a Gustavo cada sábado.,Afirmación,Tr19,19,,,,,0,43,43,43,,,,,,,,,3,0.700234012284,,,,,2018_may._07_1640,59.9806747768,Experimento Piloto1,001,110,
2.5,Stim\\02_075.jpg,Al75_12,Alegría,12,Ana compra el libro.,Afirmación,Al75,75,,,,,0,44,44,44,,,,,,,,,2,2.29970306679,,,,,2018_may._07_1640,59.9806747768,Experimento Piloto1,001,110,
2.5,Stim\\05_028.jpg,En28_12,Enojo,12,Ana compra el libro.,Afirmación,En28,28,,,,,0,45,45,45,,,,,,,,,2,2.59974706681,,,,,2018_may._07_1640,59.9806747768,Experimento Piloto1,001,110,
0.25,Stim\\02_028.jpg,Al28_14,Alegría,14,Elizabeth elige la ropa un día antes.,Afirmación,Al28,28,,,,,0,46,46,46,,,,,,,,,3,0.600266499115,,,,,2018_may._07_1640,59.9806747768,Experimento Piloto1,001,110,
2.5,Stim\\03_075.jpg,Tr75_6,Tristeza,6,Eduardo camina hacia la biblioteca.,Afirmación,Tr75,75,,,,,0,47,47,47,,,,,,,,,3,0.70023668977,,,,,2018_may._07_1640,59.9806747768,Experimento Piloto1,001,110,
0.25,Stim\\05_028.jpg,En28_8,Enojo,8,Estefanía despierta a las 7 a.m.,Afirmación,En28,28,,,,,0,48,48,48,,,,,,,,,2,1.16673955379,,,,,2018_may._07_1640,59.9806747768,Experimento Piloto1,001,110,
2.5,Stim\\05_019.jpg,En19_7,Enojo,7,Roberto contesta los cuestionarios solicitados.,Afirmación,En19,19,,,,,0,49,49,49,,,,,,,,,2,0.800321119832,,,,,2018_may._07_1640,59.9806747768,Experimento Piloto1,001,110,
2.5,Stim\\02_019.jpg,Al19_10,Alegría,10,Laura finaliza la obra.,Afirmación,Al19,19,,,,,0,50,50,50,,,,,,,,,3,0.750346288201,,,,,2018_may._07_1640,59.9806747768,Experimento Piloto1,001,110,
0.25,Stim\\05_028.jpg,En28_14,Enojo,14,Elizabeth elige la ropa un día antes.,Afirmación,En28,28,,,,,0,51,51,51,,,,,,,,,2,0.900284170524,,,,,2018_may._07_1640,59.9806747768,Experimento Piloto1,001,110,
2.5,Stim\\03_028.jpg,Tr28_8,Tristeza,8,Estefanía despierta a las 7 a.m.,Afirmación,Tr28,28,,,,,0,52,52,52,,,,,,,,,4,0.866882085298,,,,,2018_may._07_1640,59.9806747768,Experimento Piloto1,001,110,
0.25,Stim\\02_075.jpg,Al75_3,Alegría,3,Andrea diseña la portada del libro.,Afirmación,Al75,75,,,,,0,53,53,53,,,,,,,,,3,0.750506044871,,,,,2018_may._07_1640,59.9806747768,Experimento Piloto1,001,110,
0.25,Stim\\02_028.jpg,Al28_1,Alegría,1,Juan colecciona monedas antiguas.,Afirmación,Al28,28,,,,,0,54,54,54,,,,,,,,,3,0.650230174554,,,,,2018_may._07_1640,59.9806747768,Experimento Piloto1,001,110,
0.25,Stim\\03_028.jpg,Tr28_3,Tristeza,3,Andrea diseña la portada del libro.,Afirmación,Tr28,28,,,,,0,55,55,55,,,,,,,,,3,0.700493282187,,,,,2018_may._07_1640,59.9806747768,Experimento Piloto1,001,110,
2.5,Stim\\02_078.jpg,Al78_11,Alegría,11,María asiste a la cena.,Afirmación,Al78,78,,,,,0,56,56,56,,,,,,,,,3,0.600378953531,,,,,2018_may._07_1640,59.9806747768,Experimento Piloto1,001,110,
0.25,Stim\\03_019.jpg,Tr19_12,Tristeza,12,Ana compra el libro.,Afirmación,Tr19,19,,,,,0,57,57,57,,,,,,,,,2,0.70031567561,,,,,2018_may._07_1640,59.9806747768,Experimento Piloto1,001,110,
2.5,Stim\\02_078.jpg,Al78_14,Alegría,14,Elizabeth elige la ropa un día antes.,Afirmación,Al78,78,,,,,0,58,58,58,,,,,,,,,3,0.650167253631,,,,,2018_may._07_1640,59.9806747768,Experimento Piloto1,001,110,
0.25,Stim\\03_019.jpg,Tr19_2,Tristeza,2,Jonathan pasea al perro.,Afirmación,Tr19,19,,,,,0,59,59,59,,,,,,,,,2,1.88300501404,,,,,2018_may._07_1640,59.9806747768,Experimento Piloto1,001,110,
2.5,Stim\\03_078.jpg,Tr78_1,Tristeza,1,Juan colecciona monedas antiguas.,Afirmación,Tr78,78,,,,,0,60,60,60,,,,,,,,,3,0.650209647161,,,,,2018_may._07_1640,59.9806747768,Experimento Piloto1,001,110,
0.25,Stim\\03_078.jpg,Tr78_4,Tristeza,4,Jorge sustituye a Gustavo cada sábado.,Afirmación,Tr78,78,,,,,0,61,61,61,,,,,,,,,3,1.15023642202,,,,,2018_may._07_1640,59.9806747768,Experimento Piloto1,001,110,
0.25,Stim\\05_019.jpg,En19_14,Enojo,14,Elizabeth elige la ropa un día antes.,Afirmación,En19,19,,,,,0,62,62,62,,,,,,,,,2,0.700215716129,,,,,2018_may._07_1640,59.9806747768,Experimento Piloto1,001,110,
0.25,Stim\\02_075.jpg,Al75_15,Alegría,15,Ángel envía una carta a la abuela.,Afirmación,Al75,75,,,,,0,63,63,63,,,,,,,,,2,1.26670795945,,,,,2018_may._07_1640,59.9806747768,Experimento Piloto1,001,110,
2.5,Stim\\03_028.jpg,Tr28_2,Tristeza,2,Jonathan pasea al perro.,Afirmación,Tr28,28,,,,,0,64,64,64,,,,,,,,,4,0.55026757011,,,,,2018_may._07_1640,59.9806747768,Experimento Piloto1,001,110,
0.25,Stim\\05_028.jpg,En28_3,Enojo,3,Andrea diseña la portada del libro.,Afirmación,En28,28,,,,,0,65,65,65,,,,,,,,,2,0.7501347668,,,,,2018_may._07_1640,59.9806747768,Experimento Piloto1,001,110,
0.25,Stim\\05_078.jpg,En78_3,Enojo,3,Andrea diseña la portada del libro.,Afirmación,En78,78,,,,,0,66,66,66,,,,,,,,,2,0.916761866172,,,,,2018_may._07_1640,59.9806747768,Experimento Piloto1,001,110,
0.25,Stim\\05_075.jpg,En75_9,Enojo,9,Marco colabora en la organización del evento.,Afirmación,En75,75,,,,,0,67,67,67,,,,,,,,,2,0.816526158147,,,,,2018_may._07_1640,59.9806747768,Experimento Piloto1,001,110,
2.5,Stim\\05_075.jpg,En75_7,Enojo,7,Roberto contesta los cuestionarios solicitados.,Afirmación,En75,75,,,,,0,68,68,68,,,,,,,,,2,1.56675285197,,,,,2018_may._07_1640,59.9806747768,Experimento Piloto1,001,110,
0.25,Stim\\03_078.jpg,Tr78_14,Tristeza,14,Elizabeth elige la ropa un día antes.,Afirmación,Tr78,78,,,,,0,69,69,69,,,,,,,,,3,1.6664204867,,,,,2018_may._07_1640,59.9806747768,Experimento Piloto1,001,110,
2.5,Stim\\03_019.jpg,Tr19_5,Tristeza,5,Emilio revisa el formato del archivo.,Afirmación,Tr19,19,,,,,0,70,70,70,,,,,,,,,3,0.450708819818,,,,,2018_may._07_1640,59.9806747768,Experimento Piloto1,001,110,
2.5,Stim\\05_028.jpg,En28_13,Enojo,13,Rocío consume alimentos nutritivos.,Afirmación,En28,28,,,,,0,71,71,71,,,,,,,,,2,0.70013092907,,,,,2018_may._07_1640,59.9806747768,Experimento Piloto1,001,110,
0.25,Stim\\05_075.jpg,En75_15,Enojo,15,Ángel envía una carta a la abuela.,Afirmación,En75,75,,,,,0,72,72,72,,,,,,,,,2,0.850145119746,,,,,2018_may._07_1640,59.9806747768,Experimento Piloto1,001,110,
2.5,Stim\\05_019.jpg,En19_6,Enojo,6,Eduardo camina hacia la biblioteca.,Afirmación,En19,19,,,,,0,73,73,73,,,,,,,,,2,0.700318353096,,,,,2018_may._07_1640,59.9806747768,Experimento Piloto1,001,110,
2.5,Stim\\05_078.jpg,En78_10,Enojo,10,Laura finaliza la obra.,Afirmación,En78,78,,,,,0,74,74,74,,,,,,,,,2,3.36604670964,,,,,2018_may._07_1640,59.9806747768,Experimento Piloto1,001,110,
2.5,Stim\\05_019.jpg,En19_9,Enojo,9,Marco colabora en la organización del evento.,Afirmación,En19,19,,,,,0,75,75,75,,,,,,,,,2,0.950004640976,,,,,2018_may._07_1640,59.9806747768,Experimento Piloto1,001,110,
2.5,Stim\\02_078.jpg,Al78_6,Alegría,6,Eduardo camina hacia la biblioteca.,Afirmación,Al78,78,,,,,0,76,76,76,,,,,,,,,3,0.550683026702,,,,,2018_may._07_1640,59.9806747768,Experimento Piloto1,001,110,
2.5,Stim\\05_078.jpg,En78_13,Enojo,13,Rocío consume alimentos nutritivos.,Afirmación,En78,78,,,,,0,77,77,77,,,,,,,,,2,0.550170288115,,,,,2018_may._07_1640,59.9806747768,Experimento Piloto1,001,110,
0.25,Stim\\05_028.jpg,En28_2,Enojo,2,Jonathan pasea al perro.,Afirmación,En28,28,,,,,0,78,78,78,,,,,,,,,2,0.600289257747,,,,,2018_may._07_1640,59.9806747768,Experimento Piloto1,001,110,
0.25,Stim\\05_019.jpg,En19_6,Enojo,6,Eduardo camina hacia la biblioteca.,Afirmación,En19,19,,,,,0,79,79,79,,,,,,,,,2,0.750228925061,,,,,2018_may._07_1640,59.9806747768,Experimento Piloto1,001,110,
2.5,Stim\\03_019.jpg,Tr19_11,Tristeza,11,María asiste a la cena.,Afirmación,Tr19,19,,,,,0,80,80,80,,,,,,,,,3,0.48376907932,,,,,2018_may._07_1640,59.9806747768,Experimento Piloto1,001,110,
2.5,Stim\\05_028.jpg,En28_11,Enojo,11,María asiste a la cena.,Afirmación,En28,28,,,,,0,81,81,81,,,,,,,,,2,0.650436787231,,,,,2018_may._07_1640,59.9806747768,Experimento Piloto1,001,110,
0.25,Stim\\02_078.jpg,Al78_9,Alegría,9,Marco colabora en la organización del evento.,Afirmación,Al78,78,,,,,0,82,82,82,,,,,,,,,3,0.583625030568,,,,,2018_may._07_1640,59.9806747768,Experimento Piloto1,001,110,
0.25,Stim\\05_019.jpg,En19_13,Enojo,13,Rocío consume alimentos nutritivos.,Afirmación,En19,19,,,,,0,83,83,83,,,,,,,,,2,0.700524519525,,,,,2018_may._07_1640,59.9806747768,Experimento Piloto1,001,110,
0.25,Stim\\03_078.jpg,Tr78_11,Tristeza,11,María asiste a la cena.,Afirmación,Tr78,78,,,,,0,84,84,84,,,,,,,,,4,0.750218661364,,,,,2018_may._07_1640,59.9806747768,Experimento Piloto1,001,110,
2.5,Stim\\05_028.jpg,En28_5,Enojo,5,Emilio revisa el formato del archivo.,Afirmación,En28,28,,,,,0,85,85,85,,,,,,,,,2,0.700226872321,,,,,2018_may._07_1640,59.9806747768,Experimento Piloto1,001,110,
0.25,Stim\\03_028.jpg,Tr28_10,Tristeza,10,Laura finaliza la obra.,Afirmación,Tr28,28,,,,,0,86,86,86,,,,,,,,,4,0.966951789185,,,,,2018_may._07_1640,59.9806747768,Experimento Piloto1,001,110,
0.25,Stim\\05_019.jpg,En19_11,Enojo,11,María asiste a la cena.,Afirmación,En19,19,,,,,0,87,87,87,,,,,,,,,2,1.01675124548,,,,,2018_may._07_1640,59.9806747768,Experimento Piloto1,001,110,
2.5,Stim\\03_028.jpg,Tr28_9,Tristeza,9,Marco colabora en la organización del evento.,Afirmación,Tr28,28,,,,,0,88,88,88,,,,,,,,,4,0.599870231174,,,,,2018_may._07_1640,59.9806747768,Experimento Piloto1,001,110,
2.5,Stim\\05_019.jpg,En19_8,Enojo,8,Estefanía despierta a las 7 a.m.,Afirmación,En19,19,,,,,0,89,89,89,,,,,,,,,2,0.650192689749,,,,,2018_may._07_1640,59.9806747768,Experimento Piloto1,001,110,
0.25,Stim\\03_075.jpg,Tr75_9,Tristeza,9,Marco colabora en la organización del evento.,Afirmación,Tr75,75,,,,,0,90,90,90,,,,,,,,,4,0.550357712142,,,,,2018_may._07_1640,59.9806747768,Experimento Piloto1,001,110,
2.5,Stim\\02_075.jpg,Al75_3,Alegría,3,Andrea diseña la portada del libro.,Afirmación,Al75,75,,,,,0,91,91,91,,,,,,,,,3,0.600232138044,,,,,2018_may._07_1640,59.9806747768,Experimento Piloto1,001,110,
0.25,Stim\\05_028.jpg,En28_12,Enojo,12,Ana compra el libro.,Afirmación,En28,28,,,,,0,92,92,92,,,,,,,,,2,0.850223659338,,,,,2018_may._07_1640,59.9806747768,Experimento Piloto1,001,110,
0.25,Stim\\03_028.jpg,Tr28_7,Tristeza,7,Roberto contesta los cuestionarios solicitados.,Afirmación,Tr28,28,,,,,0,93,93,93,,,,,,,,,4,0.700201882451,,,,,2018_may._07_1640,59.9806747768,Experimento Piloto1,001,110,
0.25,Stim\\03_019.jpg,Tr19_8,Tristeza,8,Estefanía despierta a las 7 a.m.,Afirmación,Tr19,19,,,,,0,94,94,94,,,,,,,,,3,0.750218661364,,,,,2018_may._07_1640,59.9806747768,Experimento Piloto1,001,110,
0.25,Stim\\02_019.jpg,Al19_4,Alegría,4,Jorge sustituye a Gustavo cada sábado.,Afirmación,Al19,19,,,,,0,95,95,95,,,,,,,,,3,0.650320762834,,,,,2018_may._07_1640,59.9806747768,Experimento Piloto1,001,110,
2.5,Stim\\05_019.jpg,En19_15,Enojo,15,Ángel envía una carta a la abuela.,Afirmación,En19,19,,,,,0,96,96,96,,,,,,,,,2,1.58333586207,,,,,2018_may._07_1640,59.9806747768,Experimento Piloto1,001,110,
0.25,Stim\\05_075.jpg,En75_13,Enojo,13,Rocío consume alimentos nutritivos.,Afirmación,En75,75,,,,,0,97,97,97,,,,,,,,,2,1.16675606495,,,,,2018_may._07_1640,59.9806747768,Experimento Piloto1,001,110,
0.25,Stim\\02_078.jpg,Al78_7,Alegría,7,Roberto contesta los cuestionarios solicitados.,Afirmación,Al78,78,,,,,0,98,98,98,,,,,,,,,3,0.600191529505,,,,,2018_may._07_1640,59.9806747768,Experimento Piloto1,001,110,
2.5,Stim\\03_028.jpg,Tr28_3,Tristeza,3,Andrea diseña la portada del libro.,Afirmación,Tr28,28,,,,,0,99,99,99,,,,,,,,,4,0.699888616579,,,,,2018_may._07_1640,59.9806747768,Experimento Piloto1,001,110,
2.5,Stim\\05_075.jpg,En75_15,Enojo,15,Ángel envía una carta a la abuela.,Afirmación,En75,75,,,,,0,100,100,100,,,,,,,,,2,1.93321992692,,,,,2018_may._07_1640,59.9806747768,Experimento Piloto1,001,110,
0.25,Stim\\02_028.jpg,Al28_13,Alegría,13,Rocío consume alimentos nutritivos.,Afirmación,Al28,28,,,,,0,101,101,101,,,,,,,,,3,0.55023856401,,,,,2018_may._07_1640,59.9806747768,Experimento Piloto1,001,110,
0.25,Stim\\03_028.jpg,Tr28_15,Tristeza,15,Ángel envía una carta a la abuela.,Afirmación,Tr28,28,,,,,0,102,102,102,,,,,,,,,4,0.600362888615,,,,,2018_may._07_1640,59.9806747768,Experimento Piloto1,001,110,
0.25,Stim\\05_019.jpg,En19_2,Enojo,2,Jonathan pasea al perro.,Afirmación,En19,19,,,,,0,103,103,103,,,,,,,,,2,0.600233030539,,,,,2018_may._07_1640,59.9806747768,Experimento Piloto1,001,110,
0.25,Stim\\03_078.jpg,Tr78_13,Tristeza,13,Rocío consume alimentos nutritivos.,Afirmación,Tr78,78,,,,,0,104,104,104,,,,,,,,,2,2.39940193886,,,,,2018_may._07_1640,59.9806747768,Experimento Piloto1,001,110,
2.5,Stim\\03_075.jpg,Tr75_2,Tristeza,2,Jonathan pasea al perro.,Afirmación,Tr75,75,,,,,0,105,105,105,,,,,,,,,2,1.51671956189,,,,,2018_may._07_1640,59.9806747768,Experimento Piloto1,001,110,
2.5,Stim\\05_075.jpg,En75_10,Enojo,10,Laura finaliza la obra.,Afirmación,En75,75,,,,,0,106,106,106,,,,,,,,,2,0.650316746604,,,,,2018_may._07_1640,59.9806747768,Experimento Piloto1,001,110,
2.5,Stim\\05_028.jpg,En28_3,Enojo,3,Andrea diseña la portada del libro.,Afirmación,En28,28,,,,,0,107,107,107,,,,,,,,,2,0.750198580218,,,,,2018_may._07_1640,59.9806747768,Experimento Piloto1,001,110,
2.5,Stim\\02_078.jpg,Al78_8,Alegría,8,Estefanía despierta a las 7 a.m.,Afirmación,Al78,78,,,,,0,108,108,108,,,,,,,,,3,0.500202596447,,,,,2018_may._07_1640,59.9806747768,Experimento Piloto1,001,110,
2.5,Stim\\05_075.jpg,En75_2,Enojo,2,Jonathan pasea al perro.,Afirmación,En75,75,,,,,0,109,109,109,,,,,,,,,2,0.700241598495,,,,,2018_may._07_1640,59.9806747768,Experimento Piloto1,001,110,
0.25,Stim\\05_078.jpg,En78_2,Enojo,2,Jonathan pasea al perro.,Afirmación,En78,78,,,,,0,110,110,110,,,,,,,,,2,0.700174215095,,,,,2018_may._07_1640,59.9806747768,Experimento Piloto1,001,110,
2.5,Stim\\05_078.jpg,En78_14,Enojo,14,Elizabeth elige la ropa un día antes.,Afirmación,En78,78,,,,,0,111,111,111,,,,,,,,,2,0.866935635019,,,,,2018_may._07_1640,59.9806747768,Experimento Piloto1,001,110,
2.5,Stim\\05_028.jpg,En28_1,Enojo,1,Juan colecciona monedas antiguas.,Afirmación,En28,28,,,,,0,112,112,112,,,,,,,,,3,2.49961756574,,,,,2018_may._07_1640,59.9806747768,Experimento Piloto1,001,110,
0.25,Stim\\05_019.jpg,En19_12,Enojo,12,Ana compra el libro.,Afirmación,En19,19,,,,,0,113,113,113,,,,,,,,,2,0.750224462584,,,,,2018_may._07_1640,59.9806747768,Experimento Piloto1,001,110,
0.25,Stim\\02_075.jpg,Al75_13,Alegría,13,Rocío consume alimentos nutritivos.,Afirmación,Al75,75,,,,,0,114,114,114,,,,,,,,,3,0.550289882494,,,,,2018_may._07_1640,59.9806747768,Experimento Piloto1,001,110,
2.5,Stim\\03_019.jpg,Tr19_6,Tristeza,6,Eduardo camina hacia la biblioteca.,Afirmación,Tr19,19,,,,,0,115,115,115,,,,,,,,,3,0.48380745662,,,,,2018_may._07_1640,59.9806747768,Experimento Piloto1,001,110,
2.5,Stim\\05_028.jpg,En28_14,Enojo,14,Elizabeth elige la ropa un día antes.,Afirmación,En28,28,,,,,0,116,116,116,,,,,,,,,2,0.900152527458,,,,,2018_may._07_1640,59.9806747768,Experimento Piloto1,001,110,
2.5,Stim\\02_028.jpg,Al28_5,Alegría,5,Emilio revisa el formato del archivo.,Afirmación,Al28,28,,,,,0,117,117,117,,,,,,,,,3,0.650422507305,,,,,2018_may._07_1640,59.9806747768,Experimento Piloto1,001,110,
2.5,Stim\\02_078.jpg,Al78_9,Alegría,9,Marco colabora en la organización del evento.,Afirmación,Al78,78,,,,,0,118,118,118,,,,,,,,,3,0.50012137937,,,,,2018_may._07_1640,59.9806747768,Experimento Piloto1,001,110,
0.25,Stim\\03_019.jpg,Tr19_3,Tristeza,3,Andrea diseña la portada del libro.,Afirmación,Tr19,19,,,,,0,119,119,119,,,,,,,,,3,0.550363959609,,,,,2018_may._07_1640,59.9806747768,Experimento Piloto1,001,110,
0.25,Stim\\03_028.jpg,Tr28_2,Tristeza,2,Jonathan pasea al perro.,Afirmación,Tr28,28,,,,,,,,,0,0,0,0,,,,,,,4,1.98318806484,,,2018_may._07_1640,59.9806747768,Experimento Piloto1,001,110,
2.5,Stim\\05_075.jpg,En75_12,Enojo,12,Ana compra el libro.,Afirmación,En75,75,,,,,,,,,0,1,1,1,,,,,,,2,1.11680131447,,,2018_may._07_1640,59.9806747768,Experimento Piloto1,001,110,
0.25,Stim\\02_078.jpg,Al78_11,Alegría,11,María asiste a la cena.,Afirmación,Al78,78,,,,,,,,,0,2,2,2,,,,,,,3,0.500172251605,,,2018_may._07_1640,59.9806747768,Experimento Piloto1,001,110,
0.25,Stim\\02_078.jpg,Al78_8,Alegría,8,Estefanía despierta a las 7 a.m.,Afirmación,Al78,78,,,,,,,,,0,3,3,3,,,,,,,3,0.500061135932,,,2018_may._07_1640,59.9806747768,Experimento Piloto1,001,110,
0.25,Stim\\05_028.jpg,En28_6,Enojo,6,Eduardo camina hacia la biblioteca.,Afirmación,En28,28,,,,,,,,,0,4,4,4,,,,,,,2,0.750257038665,,,2018_may._07_1640,59.9806747768,Experimento Piloto1,001,110,
0.25,Stim\\02_019.jpg,Al19_14,Alegría,14,Elizabeth elige la ropa un día antes.,Afirmación,Al19,19,,,,,,,,,0,5,5,5,,,,,,,3,0.65033102653,,,2018_may._07_1640,59.9806747768,Experimento Piloto1,001,110,
2.5,Stim\\05_078.jpg,En78_1,Enojo,1,Juan colecciona monedas antiguas.,Afirmación,En78,78,,,,,,,,,0,6,6,6,,,,,,,3,4.1991429367,,,2018_may._07_1640,59.9806747768,Experimento Piloto1,001,110,
2.5,Stim\\02_078.jpg,Al78_15,Alegría,15,Ángel envía una carta a la abuela.,Afirmación,Al78,78,,,,,,,,,0,7,7,7,,,,,,,3,0.850188405771,,,2018_may._07_1640,59.9806747768,Experimento Piloto1,001,110,
0.25,Stim\\02_075.jpg,Al75_14,Alegría,14,Elizabeth elige la ropa un día antes.,Afirmación,Al75,75,,,,,,,,,0,8,8,8,,,,,,,3,0.700250077201,,,2018_may._07_1640,59.9806747768,Experimento Piloto1,001,110,
2.5,Stim\\02_075.jpg,Al75_2,Alegría,2,Jonathan pasea al perro.,Afirmación,Al75,75,,,,,,,,,0,9,9,9,,,,,,,3,0.650276584313,,,2018_may._07_1640,59.9806747768,Experimento Piloto1,001,110,
0.25,Stim\\05_075.jpg,En75_12,Enojo,12,Ana compra el libro.,Afirmación,En75,75,,,,,,,,,0,10,10,10,,,,,,,2,0.900129768826,,,2018_may._07_1640,59.9806747768,Experimento Piloto1,001,110,
2.5,Stim\\03_078.jpg,Tr78_8,Tristeza,8,Estefanía despierta a las 7 a.m.,Afirmación,Tr78,78,,,,,,,,,0,11,11,11,,,,,,,4,0.700338434242,,,2018_may._07_1640,59.9806747768,Experimento Piloto1,001,110,
0.25,Stim\\03_078.jpg,Tr78_15,Tristeza,15,Ángel envía una carta a la abuela.,Afirmación,Tr78,78,,,,,,,,,0,12,12,12,,,,,,,4,0.900133785055,,,2018_may._07_1640,59.9806747768,Experimento Piloto1,001,110,
0.25,Stim\\03_078.jpg,Tr78_5,Tristeza,5,Emilio revisa el formato del archivo.,Afirmación,Tr78,78,,,,,,,,,0,13,13,13,,,,,,,2,1.51667047465,,,2018_may._07_1640,59.9806747768,Experimento Piloto1,001,110,
2.5,Stim\\02_019.jpg,Al19_5,Alegría,5,Emilio revisa el formato del archivo.,Afirmación,Al19,19,,,,,,,,,0,14,14,14,,,,,,,3,0.750410547867,,,2018_may._07_1640,59.9806747768,Experimento Piloto1,001,110,
2.5,Stim\\03_075.jpg,Tr75_10,Tristeza,10,Laura finaliza la obra.,Afirmación,Tr75,75,,,,,,,,,0,15,15,15,,,,,,,4,0.650192243501,,,2018_may._07_1640,59.9806747768,Experimento Piloto1,001,110,
2.5,Stim\\03_075.jpg,Tr75_4,Tristeza,4,Jorge sustituye a Gustavo cada sábado.,Afirmación,Tr75,75,,,,,,,,,0,16,16,16,,,,,,,3,0.750249898702,,,2018_may._07_1640,59.9806747768,Experimento Piloto1,001,110,
0.25,Stim\\03_028.jpg,Tr28_5,Tristeza,5,Emilio revisa el formato del archivo.,Afirmación,Tr28,28,,,,,,,,,0,17,17,17,,,,,,,3,0.60023481553,,,2018_may._07_1640,59.9806747768,Experimento Piloto1,001,110,
0.25,Stim\\05_075.jpg,En75_11,Enojo,11,María asiste a la cena.,Afirmación,En75,75,,,,,,,,,0,18,18,18,,,,,,,2,0.750822434478,,,2018_may._07_1640,59.9806747768,Experimento Piloto1,001,110,
0.25,Stim\\02_075.jpg,Al75_6,Alegría,6,Eduardo camina hacia la biblioteca.,Afirmación,Al75,75,,,,,,,,,0,19,19,19,,,,,,,3,0.533657785148,,,2018_may._07_1640,59.9806747768,Experimento Piloto1,001,110,
0.25,Stim\\05_078.jpg,En78_1,Enojo,1,Juan colecciona monedas antiguas.,Afirmación,En78,78,,,,,,,,,0,20,20,20,,,,,,,3,0.700331294279,,,2018_may._07_1640,59.9806747768,Experimento Piloto1,001,110,
2.5,Stim\\03_019.jpg,Tr19_4,Tristeza,4,Jorge sustituye a Gustavo cada sábado.,Afirmación,Tr19,19,,,,,,,,,0,21,21,21,,,,,,,3,0.90015788243,,,2018_may._07_1640,59.9806747768,Experimento Piloto1,001,110,
0.25,Stim\\03_028.jpg,Tr28_11,Tristeza,11,María asiste a la cena.,Afirmación,Tr28,28,,,,,,,,,0,22,22,22,,,,,,,4,0.500225355079,,,2018_may._07_1640,59.9806747768,Experimento Piloto1,001,110,
0.25,Stim\\02_019.jpg,Al19_7,Alegría,7,Roberto contesta los cuestionarios solicitados.,Afirmación,Al19,19,,,,,,,,,0,23,23,23,,,,,,,3,0.850241062998,,,2018_may._07_1640,59.9806747768,Experimento Piloto1,001,110,
0.25,Stim\\05_028.jpg,En28_1,Enojo,1,Juan colecciona monedas antiguas.,Afirmación,En28,28,,,,,,,,,0,24,24,24,,,,,,,3,0.650291310487,,,2018_may._07_1640,59.9806747768,Experimento Piloto1,001,110,
0.25,Stim\\03_019.jpg,Tr19_6,Tristeza,6,Eduardo camina hacia la biblioteca.,Afirmación,Tr19,19,,,,,,,,,0,25,25,25,,,,,,,3,0.600236154273,,,2018_may._07_1640,59.9806747768,Experimento Piloto1,001,110,
0.25,Stim\\03_078.jpg,Tr78_7,Tristeza,7,Roberto contesta los cuestionarios solicitados.,Afirmación,Tr78,78,,,,,,,,,0,26,26,26,,,,,,,4,0.750208397667,,,2018_may._07_1640,59.9806747768,Experimento Piloto1,001,110,
2.5,Stim\\03_019.jpg,Tr19_15,Tristeza,15,Ángel envía una carta a la abuela.,Afirmación,Tr19,19,,,,,,,,,0,27,27,27,,,,,,,2,1.31699337947,,,2018_may._07_1640,59.9806747768,Experimento Piloto1,001,110,
2.5,Stim\\02_028.jpg,Al28_4,Alegría,4,Jorge sustituye a Gustavo cada sábado.,Afirmación,Al28,28,,,,,,,,,0,28,28,28,,,,,,,3,0.60036958233,,,2018_may._07_1640,59.9806747768,Experimento Piloto1,001,110,
2.5,Stim\\03_078.jpg,Tr78_5,Tristeza,5,Emilio revisa el formato del archivo.,Afirmación,Tr78,78,,,,,,,,,0,29,29,29,,,,,,,4,2.96627260021,,,2018_may._07_1640,59.9806747768,Experimento Piloto1,001,110,
2.5,Stim\\03_028.jpg,Tr28_12,Tristeza,12,Ana compra el libro.,Afirmación,Tr28,28,,,,,,,,,0,30,30,30,,,,,,,4,0.650292202982,,,2018_may._07_1640,59.9806747768,Experimento Piloto1,001,110,
0.25,Stim\\02_028.jpg,Al28_2,Alegría,2,Jonathan pasea al perro.,Afirmación,Al28,28,,,,,,,,,0,31,31,31,,,,,,,3,0.750166004138,,,2018_may._07_1640,59.9806747768,Experimento Piloto1,001,110,
0.25,Stim\\05_019.jpg,En19_8,Enojo,8,Estefanía despierta a las 7 a.m.,Afirmación,En19,19,,,,,,,,,0,32,32,32,,,,,,,2,0.700263018384,,,2018_may._07_1640,59.9806747768,Experimento Piloto1,001,110,
0.25,Stim\\03_019.jpg,Tr19_9,Tristeza,9,Marco colabora en la organización del evento.,Afirmación,Tr19,19,,,,,,,,,0,33,33,33,,,,,,,3,0.700110847924,,,2018_may._07_1640,59.9806747768,Experimento Piloto1,001,110,
2.5,Stim\\02_078.jpg,Al78_10,Alegría,10,Laura finaliza la obra.,Afirmación,Al78,78,,,,,,,,,0,34,34,34,,,,,,,3,0.50040608539,,,2018_may._07_1640,59.9806747768,Experimento Piloto1,001,110,
2.5,Stim\\02_075.jpg,Al75_15,Alegría,15,Ángel envía una carta a la abuela.,Afirmación,Al75,75,,,,,,,,,0,35,35,35,,,,,,,3,0.500343164467,,,2018_may._07_1640,59.9806747768,Experimento Piloto1,001,110,
2.5,Stim\\03_028.jpg,Tr28_6,Tristeza,6,Eduardo camina hacia la biblioteca.,Afirmación,Tr28,28,,,,,,,,,0,36,36,36,,,,,,,3,1.46660059226,,,2018_may._07_1640,59.9806747768,Experimento Piloto1,001,110,
0.25,Stim\\03_075.jpg,Tr75_14,Tristeza,14,Elizabeth elige la ropa un día antes.,Afirmación,Tr75,75,,,,,,,,,0,37,37,37,,,,,,,3,0.700226426074,,,2018_may._07_1640,59.9806747768,Experimento Piloto1,001,110,
2.5,Stim\\05_075.jpg,En75_13,Enojo,13,Rocío consume alimentos nutritivos.,Afirmación,En75,75,,,,,,,,,0,38,38,38,,,,,,,2,0.650313622871,,,2018_may._07_1640,59.9806747768,Experimento Piloto1,001,110,
2.5,Stim\\03_075.jpg,Tr75_8,Tristeza,8,Estefanía despierta a las 7 a.m.,Afirmación,Tr75,75,,,,,,,,,0,39,39,39,,,,,,,4,1.26681952137,,,2018_may._07_1640,59.9806747768,Experimento Piloto1,001,110,
0.25,Stim\\05_075.jpg,En75_7,Enojo,7,Roberto contesta los cuestionarios solicitados.,Afirmación,En75,75,,,,,,,,,0,40,40,40,,,,,,,2,0.7502021502,,,2018_may._07_1640,59.9806747768,Experimento Piloto1,001,110,
2.5,Stim\\03_019.jpg,Tr19_10,Tristeza,10,Laura finaliza la obra.,Afirmación,Tr19,19,,,,,,,,,0,41,41,41,,,,,,,3,1.066842994,,,2018_may._07_1640,59.9806747768,Experimento Piloto1,001,110,
2.5,Stim\\03_019.jpg,Tr19_2,Tristeza,2,Jonathan pasea al perro.,Afirmación,Tr19,19,,,,,,,,,0,42,42,42,,,,,,,3,0.916789087281,,,2018_may._07_1640,59.9806747768,Experimento Piloto1,001,110,
0.25,Stim\\03_075.jpg,Tr75_15,Tristeza,15,Ángel envía una carta a la abuela.,Afirmación,Tr75,75,,,,,,,,,0,43,43,43,,,,,,,2,0.700290239492,,,2018_may._07_1640,59.9806747768,Experimento Piloto1,001,110,
0.25,Stim\\05_019.jpg,En19_1,Enojo,1,Juan colecciona monedas antiguas.,Afirmación,En19,19,,,,,,,,,0,44,44,44,,,,,,,2,1.0168235376,,,2018_may._07_1640,59.9806747768,Experimento Piloto1,001,110,
0.25,Stim\\03_078.jpg,Tr78_2,Tristeza,2,Jonathan pasea al perro.,Afirmación,Tr78,78,,,,,,,,,0,45,45,45,,,,,,,4,0.599880941118,,,2018_may._07_1640,59.9806747768,Experimento Piloto1,001,110,
2.5,Stim\\02_019.jpg,Al19_9,Alegría,9,Marco colabora en la organización del evento.,Afirmación,Al19,19,,,,,,,,,0,46,46,46,,,,,,,3,0.383779700014,,,2018_may._07_1640,59.9806747768,Experimento Piloto1,001,110,
2.5,Stim\\03_028.jpg,Tr28_11,Tristeza,11,María asiste a la cena.,Afirmación,Tr28,28,,,,,,,,,0,47,47,47,,,,,,,4,0.450141639014,,,2018_may._07_1640,59.9806747768,Experimento Piloto1,001,110,
2.5,Stim\\05_078.jpg,En78_6,Enojo,6,Eduardo camina hacia la biblioteca.,Afirmación,En78,78,,,,,,,,,0,48,48,48,,,,,,,2,3.01619477462,,,2018_may._07_1640,59.9806747768,Experimento Piloto1,001,110,
2.5,Stim\\02_028.jpg,Al28_14,Alegría,14,Elizabeth elige la ropa un día antes.,Afirmación,Al28,28,,,,,,,,,0,49,49,49,,,,,,,3,0.600312908874,,,2018_may._07_1640,59.9806747768,Experimento Piloto1,001,110,
0.25,Stim\\03_019.jpg,Tr19_10,Tristeza,10,Laura finaliza la obra.,Afirmación,Tr19,19,,,,,,,,,0,50,50,50,,,,,,,3,0.550187691775,,,2018_may._07_1640,59.9806747768,Experimento Piloto1,001,110,
2.5,Stim\\05_019.jpg,En19_2,Enojo,2,Jonathan pasea al perro.,Afirmación,En19,19,,,,,,,,,0,51,51,51,,,,,,,2,0.65040421115,,,2018_may._07_1640,59.9806747768,Experimento Piloto1,001,110,
0.25,Stim\\05_078.jpg,En78_5,Enojo,5,Emilio revisa el formato del archivo.,Afirmación,En78,78,,,,,,,,,0,52,52,52,,,,,,,2,1.06686932261,,,2018_may._07_1640,59.9806747768,Experimento Piloto1,001,110,
2.5,Stim\\02_075.jpg,Al75_5,Alegría,5,Emilio revisa el formato del archivo.,Afirmación,Al75,75,,,,,,,,,0,53,53,53,,,,,,,3,0.800155115694,,,2018_may._07_1640,59.9806747768,Experimento Piloto1,001,110,
0.25,Stim\\05_028.jpg,En28_9,Enojo,9,Marco colabora en la organización del evento.,Afirmación,En28,28,,,,,,,,,0,54,54,54,,,,,,,2,0.700375026552,,,2018_may._07_1640,59.9806747768,Experimento Piloto1,001,110,
2.5,Stim\\03_019.jpg,Tr19_1,Tristeza,1,Juan colecciona monedas antiguas.,Afirmación,Tr19,19,,,,,,,,,0,55,55,55,,,,,,,3,0.550260430147,,,2018_may._07_1640,59.9806747768,Experimento Piloto1,001,110,
0.25,Stim\\02_028.jpg,Al28_3,Alegría,3,Andrea diseña la portada del libro.,Afirmación,Al28,28,,,,,,,,,0,56,56,56,,,,,,,3,0.450277298309,,,2018_may._07_1640,59.9806747768,Experimento Piloto1,001,110,
0.25,Stim\\05_028.jpg,En28_5,Enojo,5,Emilio revisa el formato del archivo.,Afirmación,En28,28,,,,,,,,,0,57,57,57,,,,,,,2,0.600179927065,,,2018_may._07_1640,59.9806747768,Experimento Piloto1,001,110,
2.5,Stim\\03_078.jpg,Tr78_15,Tristeza,15,Ángel envía una carta a la abuela.,Afirmación,Tr78,78,,,,,,,,,0,58,58,58,,,,,,,4,0.450267034613,,,2018_may._07_1640,59.9806747768,Experimento Piloto1,001,110,
0.25,Stim\\02_078.jpg,Al78_10,Alegría,10,Laura finaliza la obra.,Afirmación,Al78,78,,,,,,,,,0,59,59,59,,,,,,,3,0.449923870146,,,2018_may._07_1640,59.9806747768,Experimento Piloto1,001,110,
0.25,Stim\\03_075.jpg,Tr75_7,Tristeza,7,Roberto contesta los cuestionarios solicitados.,Afirmación,Tr75,75,,,,,,,,,0,60,60,60,,,,,,,4,0.450217947368,,,2018_may._07_1640,59.9806747768,Experimento Piloto1,001,110,
0.25,Stim\\03_075.jpg,Tr75_5,Tristeza,5,Emilio revisa el formato del archivo.,Afirmación,Tr75,75,,,,,,,,,0,61,61,61,,,,,,,4,0.900173501099,,,2018_may._07_1640,59.9806747768,Experimento Piloto1,001,110,
0.25,Stim\\05_075.jpg,En75_14,Enojo,14,Elizabeth elige la ropa un día antes.,Afirmación,En75,75,,,,,,,,,0,62,62,62,,,,,,,2,0.750340040734,,,2018_may._07_1640,59.9806747768,Experimento Piloto1,001,110,
0.25,Stim\\05_075.jpg,En75_2,Enojo,2,Jonathan pasea al perro.,Afirmación,En75,75,,,,,,,,,0,63,63,63,,,,,,,2,1.36665762271,,,2018_may._07_1640,59.9806747768,Experimento Piloto1,001,110,
0.25,Stim\\02_078.jpg,Al78_6,Alegría,6,Eduardo camina hacia la biblioteca.,Afirmación,Al78,78,,,,,,,,,0,64,64,64,,,,,,,3,0.916853793195,,,2018_may._07_1640,59.9806747768,Experimento Piloto1,001,110,
0.25,Stim\\03_075.jpg,Tr75_4,Tristeza,4,Jorge sustituye a Gustavo cada sábado.,Afirmación,Tr75,75,,,,,,,,,0,65,65,65,,,,,,,3,1.1670737933,,,2018_may._07_1640,59.9806747768,Experimento Piloto1,001,110,
0.25,Stim\\03_075.jpg,Tr75_3,Tristeza,3,Andrea diseña la portada del libro.,Afirmación,Tr75,75,,,,,,,,,0,66,66,66,,,,,,,4,0.6003561949,,,2018_may._07_1640,59.9806747768,Experimento Piloto1,001,110,
0.25,Stim\\02_028.jpg,Al28_10,Alegría,10,Laura finaliza la obra.,Afirmación,Al28,28,,,,,,,,,0,67,67,67,,,,,,,3,0.60042536329,,,2018_may._07_1640,59.9806747768,Experimento Piloto1,001,110,
0.25,Stim\\03_028.jpg,Tr28_12,Tristeza,12,Ana compra el libro.,Afirmación,Tr28,28,,,,,,,,,0,68,68,68,,,,,,,4,1.06701301437,,,2018_may._07_1640,59.9806747768,Experimento Piloto1,001,110,
0.25,Stim\\03_075.jpg,Tr75_10,Tristeza,10,Laura finaliza la obra.,Afirmación,Tr75,75,,,,,,,,,0,69,69,69,,,,,,,4,0.85036958233,,,2018_may._07_1640,59.9806747768,Experimento Piloto1,001,110,
0.25,Stim\\02_028.jpg,Al28_8,Alegría,8,Estefanía despierta a las 7 a.m.,Afirmación,Al28,28,,,,,,,,,0,70,70,70,,,,,,,3,0.700315229362,,,2018_may._07_1640,59.9806747768,Experimento Piloto1,001,110,
0.25,Stim\\05_078.jpg,En78_14,Enojo,14,Elizabeth elige la ropa un día antes.,Afirmación,En78,78,,,,,,,,,0,71,71,71,,,,,,,2,0.800300146191,,,2018_may._07_1640,59.9806747768,Experimento Piloto1,001,110,
2.5,Stim\\03_078.jpg,Tr78_9,Tristeza,9,Marco colabora en la organización del evento.,Afirmación,Tr78,78,,,,,,,,,0,72,72,72,,,,,,,4,0.700109062934,,,2018_may._07_1640,59.9806747768,Experimento Piloto1,001,110,
0.25,Stim\\02_019.jpg,Al19_3,Alegría,3,Andrea diseña la portada del libro.,Afirmación,Al19,19,,,,,,,,,0,73,73,73,,,,,,,3,0.533490888515,,,2018_may._07_1640,59.9806747768,Experimento Piloto1,001,110,
0.25,Stim\\03_078.jpg,Tr78_6,Tristeza,6,Eduardo camina hacia la biblioteca.,Afirmación,Tr78,78,,,,,,,,,0,74,74,74,,,,,,,4,0.966831748559,,,2018_may._07_1640,59.9806747768,Experimento Piloto1,001,110,
0.25,Stim\\03_028.jpg,Tr28_8,Tristeza,8,Estefanía despierta a las 7 a.m.,Afirmación,Tr28,28,,,,,,,,,0,75,75,75,,,,,,,4,0.75025212994,,,2018_may._07_1640,59.9806747768,Experimento Piloto1,001,110,
2.5,Stim\\05_078.jpg,En78_9,Enojo,9,Marco colabora en la organización del evento.,Afirmación,En78,78,,,,,,,,,0,76,76,76,,,,,,,2,0.650248916957,,,2018_may._07_1640,59.9806747768,Experimento Piloto1,001,110,
2.5,Stim\\02_028.jpg,Al28_6,Alegría,6,Eduardo camina hacia la biblioteca.,Afirmación,Al28,28,,,,,,,,,0,77,77,77,,,,,,,3,0.49977866115,,,2018_may._07_1640,59.9806747768,Experimento Piloto1,001,110,
2.5,Stim\\03_078.jpg,Tr78_6,Tristeza,6,Eduardo camina hacia la biblioteca.,Afirmación,Tr78,78,,,,,,,,,0,78,78,78,,,,,,,4,1.66656774843,,,2018_may._07_1640,59.9806747768,Experimento Piloto1,001,110,
2.5,Stim\\02_078.jpg,Al78_2,Alegría,2,Jonathan pasea al perro.,Afirmación,Al78,78,,,,,,,,,0,79,79,79,,,,,,,3,0.500320405835,,,2018_may._07_1640,59.9806747768,Experimento Piloto1,001,110,
2.5,Stim\\02_028.jpg,Al28_10,Alegría,10,Laura finaliza la obra.,Afirmación,Al28,28,,,,,,,,,0,80,80,80,,,,,,,3,0.50027711981,,,2018_may._07_1640,59.9806747768,Experimento Piloto1,001,110,
2.5,Stim\\02_019.jpg,Al19_15,Alegría,15,Ángel envía una carta a la abuela.,Afirmación,Al19,19,,,,,,,,,0,81,81,81,,,,,,,3,0.383707854138,,,2018_may._07_1640,59.9806747768,Experimento Piloto1,001,110,
0.25,Stim\\03_019.jpg,Tr19_5,Tristeza,5,Emilio revisa el formato del archivo.,Afirmación,Tr19,19,,,,,,,,,0,82,82,82,,,,,,,2,0.600319156342,,,2018_may._07_1640,59.9806747768,Experimento Piloto1,001,110,
0.25,Stim\\02_075.jpg,Al75_12,Alegría,12,Ana compra el libro.,Afirmación,Al75,75,,,,,,,,,0,83,83,83,,,,,,,3,0.483620032594,,,2018_may._07_1640,59.9806747768,Experimento Piloto1,001,110,
2.5,Stim\\05_078.jpg,En78_3,Enojo,3,Andrea diseña la portada del libro.,Afirmación,En78,78,,,,,,,,,0,84,84,84,,,,,,,2,0.750215091383,,,2018_may._07_1640,59.9806747768,Experimento Piloto1,001,110,
2.5,Stim\\03_075.jpg,Tr75_5,Tristeza,5,Emilio revisa el formato del archivo.,Afirmación,Tr75,75,,,,,,,,,0,85,85,85,,,,,,,3,1.5665828316,,,2018_may._07_1640,59.9806747768,Experimento Piloto1,001,110,
2.5,Stim\\05_028.jpg,En28_2,Enojo,2,Jonathan pasea al perro.,Afirmación,En28,28,,,,,,,,,0,86,86,86,,,,,,,2,0.500401176666,,,2018_may._07_1640,59.9806747768,Experimento Piloto1,001,110,
0.25,Stim\\03_028.jpg,Tr28_9,Tristeza,9,Marco colabora en la organización del evento.,Afirmación,Tr28,28,,,,,,,,,0,87,87,87,,,,,,,4,0.400460884606,,,2018_may._07_1640,59.9806747768,Experimento Piloto1,001,110,
0.25,Stim\\03_078.jpg,Tr78_9,Tristeza,9,Marco colabora en la organización del evento.,Afirmación,Tr78,78,,,,,,,,,0,88,88,88,,,,,,,4,0.750216430126,,,2018_may._07_1640,59.9806747768,Experimento Piloto1,001,110,
2.5,Stim\\03_075.jpg,Tr75_12,Tristeza,12,Ana compra el libro.,Afirmación,Tr75,75,,,,,,,,,0,89,89,89,,,,,,,4,0.650260073149,,,2018_may._07_1640,59.9806747768,Experimento Piloto1,001,110,
2.5,Stim\\05_078.jpg,En78_11,Enojo,11,María asiste a la cena.,Afirmación,En78,78,,,,,,,,,0,90,90,90,,,,,,,2,0.550394750699,,,2018_may._07_1640,59.9806747768,Experimento Piloto1,001,110,
2.5,Stim\\02_075.jpg,Al75_14,Alegría,14,Elizabeth elige la ropa un día antes.,Afirmación,Al75,75,,,,,,,,,0,91,91,91,,,,,,,3,0.550264000128,,,2018_may._07_1640,59.9806747768,Experimento Piloto1,001,110,
0.25,Stim\\03_019.jpg,Tr19_7,Tristeza,7,Roberto contesta los cuestionarios solicitados.,Afirmación,Tr19,19,,,,,,,,,0,92,92,92,,,,,,,3,0.53363815025,,,2018_may._07_1640,59.9806747768,Experimento Piloto1,001,110,
0.25,Stim\\05_075.jpg,En75_5,Enojo,5,Emilio revisa el formato del archivo.,Afirmación,En75,75,,,,,,,,,0,93,93,93,,,,,,,2,1.31645163478,,,2018_may._07_1640,59.9806747768,Experimento Piloto1,001,110,
2.5,Stim\\05_019.jpg,En19_14,Enojo,14,Elizabeth elige la ropa un día antes.,Afirmación,En19,19,,,,,,,,,0,94,94,94,,,,,,,2,0.600262036639,,,2018_may._07_1640,59.9806747768,Experimento Piloto1,001,110,
0.25,Stim\\02_075.jpg,Al75_2,Alegría,2,Jonathan pasea al perro.,Afirmación,Al75,75,,,,,,,,,0,95,95,95,,,,,,,3,0.750349411935,,,2018_may._07_1640,59.9806747768,Experimento Piloto1,001,110,
2.5,Stim\\03_028.jpg,Tr28_10,Tristeza,10,Laura finaliza la obra.,Afirmación,Tr28,28,,,,,,,,,0,96,96,96,,,,,,,4,0.433632706028,,,2018_may._07_1640,59.9806747768,Experimento Piloto1,001,110,
2.5,Stim\\02_078.jpg,Al78_3,Alegría,3,Andrea diseña la portada del libro.,Afirmación,Al78,78,,,,,,,,,0,97,97,97,,,,,,,3,0.600321833828,,,2018_may._07_1640,59.9806747768,Experimento Piloto1,001,110,
2.5,Stim\\05_075.jpg,En75_3,Enojo,3,Andrea diseña la portada del libro.,Afirmación,En75,75,,,,,,,,,0,98,98,98,,,,,,,2,0.650333257769,,,2018_may._07_1640,59.9806747768,Experimento Piloto1,001,110,
2.5,Stim\\03_075.jpg,Tr75_3,Tristeza,3,Andrea diseña la portada del libro.,Afirmación,Tr75,75,,,,,,,,,0,99,99,99,,,,,,,3,1.41664093305,,,2018_may._07_1640,59.9806747768,Experimento Piloto1,001,110,
2.5,Stim\\03_075.jpg,Tr75_7,Tristeza,7,Roberto contesta los cuestionarios solicitados.,Afirmación,Tr75,75,,,,,,,,,0,100,100,100,,,,,,,4,0.500438661471,,,2018_may._07_1640,59.9806747768,Experimento Piloto1,001,110,
2.5,Stim\\03_019.jpg,Tr19_14,Tristeza,14,Elizabeth elige la ropa un día antes.,Afirmación,Tr19,19,,,,,,,,,0,101,101,101,,,,,,,3,0.500303002176,,,2018_may._07_1640,59.9806747768,Experimento Piloto1,001,110,
2.5,Stim\\05_078.jpg,En78_5,Enojo,5,Emilio revisa el formato del archivo.,Afirmación,En78,78,,,,,,,,,0,102,102,102,,,,,,,2,0.500289168498,,,2018_may._07_1640,59.9806747768,Experimento Piloto1,001,110,
2.5,Stim\\02_078.jpg,Al78_12,Alegría,12,Ana compra el libro.,Afirmación,Al78,78,,,,,,,,,0,103,103,103,,,,,,,3,0.383535156285,,,2018_may._07_1640,59.9806747768,Experimento Piloto1,001,110,
2.5,Stim\\02_028.jpg,Al28_13,Alegría,13,Rocío consume alimentos nutritivos.,Afirmación,Al28,28,,,,,,,,,0,104,104,104,,,,,,,3,0.433859846098,,,2018_may._07_1640,59.9806747768,Experimento Piloto1,001,110,
2.5,Stim\\05_028.jpg,En28_4,Enojo,4,Jorge sustituye a Gustavo cada sábado.,Afirmación,En28,28,,,,,,,,,0,105,105,105,,,,,,,2,1.56658015412,,,2018_may._07_1640,59.9806747768,Experimento Piloto1,001,110,
0.25,Stim\\02_028.jpg,Al28_7,Alegría,7,Roberto contesta los cuestionarios solicitados.,Afirmación,Al28,28,,,,,,,,,0,106,106,106,,,,,,,3,0.500396267941,,,2018_may._07_1640,59.9806747768,Experimento Piloto1,001,110,
0.25,Stim\\02_078.jpg,Al78_12,Alegría,12,Ana compra el libro.,Afirmación,Al78,78,,,,,,,,,0,107,107,107,,,,,,,3,0.500212413897,,,2018_may._07_1640,59.9806747768,Experimento Piloto1,001,110,
2.5,Stim\\02_028.jpg,Al28_7,Alegría,7,Roberto contesta los cuestionarios solicitados.,Afirmación,Al28,28,,,,,,,,,0,108,108,108,,,,,,,3,0.550233655286,,,2018_may._07_1640,59.9806747768,Experimento Piloto1,001,110,
0.25,Stim\\02_075.jpg,Al75_7,Alegría,7,Roberto contesta los cuestionarios solicitados.,Afirmación,Al75,75,,,,,,,,,0,109,109,109,,,,,,,3,0.500390020474,,,2018_may._07_1640,59.9806747768,Experimento Piloto1,001,110,
0.25,Stim\\05_075.jpg,En75_10,Enojo,10,Laura finaliza la obra.,Afirmación,En75,75,,,,,,,,,0,110,110,110,,,,,,,2,0.600231245549,,,2018_may._07_1640,59.9806747768,Experimento Piloto1,001,110,
2.5,Stim\\05_028.jpg,En28_8,Enojo,8,Estefanía despierta a las 7 a.m.,Afirmación,En28,28,,,,,,,,,0,111,111,111,,,,,,,2,0.600277655308,,,2018_may._07_1640,59.9806747768,Experimento Piloto1,001,110,
0.25,Stim\\03_075.jpg,Tr75_6,Tristeza,6,Eduardo camina hacia la biblioteca.,Afirmación,Tr75,75,,,,,,,,,0,112,112,112,,,,,,,2,2.18310211753,,,2018_may._07_1640,59.9806747768,Experimento Piloto1,001,110,
0.25,Stim\\02_078.jpg,Al78_4,Alegría,4,Jorge sustituye a Gustavo cada sábado.,Afirmación,Al78,78,,,,,,,,,0,113,113,113,,,,,,,3,0.483705265901,,,2018_may._07_1640,59.9806747768,Experimento Piloto1,001,110,
2.5,Stim\\02_019.jpg,Al19_13,Alegría,13,Rocío consume alimentos nutritivos.,Afirmación,Al19,19,,,,,,,,,0,114,114,114,,,,,,,3,1.16683549704,,,2018_may._07_1640,59.9806747768,Experimento Piloto1,001,110,
0.25,Stim\\02_078.jpg,Al78_15,Alegría,15,Ángel envía una carta a la abuela.,Afirmación,Al78,78,,,,,,,,,0,115,115,115,,,,,,,3,0.600276762812,,,2018_may._07_1640,59.9806747768,Experimento Piloto1,001,110,
2.5,Stim\\05_019.jpg,En19_4,Enojo,4,Jorge sustituye a Gustavo cada sábado.,Afirmación,En19,19,,,,,,,,,0,116,116,116,,,,,,,2,0.600307107655,,,2018_may._07_1640,59.9806747768,Experimento Piloto1,001,110,
2.5,Stim\\05_075.jpg,En75_9,Enojo,9,Marco colabora en la organización del evento.,Afirmación,En75,75,,,,,,,,,0,117,117,117,,,,,,,2,0.500211967649,,,2018_may._07_1640,59.9806747768,Experimento Piloto1,001,110,
0.25,Stim\\05_078.jpg,En78_8,Enojo,8,Estefanía despierta a las 7 a.m.,Afirmación,En78,78,,,,,,,,,0,118,118,118,,,,,,,2,0.550424203046,,,2018_may._07_1640,59.9806747768,Experimento Piloto1,001,110,
0.25,Stim\\03_075.jpg,Tr75_12,Tristeza,12,Ana compra el libro.,Afirmación,Tr75,75,,,,,,,,,0,119,119,119,,,,,,,4,0.483595042724,,,2018_may._07_1640,59.9806747768,Experimento Piloto1,001,110,
0.25,Stim\\02_075.jpg,Al75_11,Alegría,11,María asiste a la cena.,Afirmación,Al75,75,,,,,,,,,,,,,0,0,0,0,,,,,3,0.600267837859,2018_may._07_1640,59.9806747768,Experimento Piloto1,001,110,
2.5,Stim\\03_019.jpg,Tr19_9,Tristeza,9,Marco colabora en la organización del evento.,Afirmación,Tr19,19,,,,,,,,,,,,,0,1,1,1,,,,,3,0.450396892688,2018_may._07_1640,59.9806747768,Experimento Piloto1,001,110,
2.5,Stim\\02_075.jpg,Al75_8,Alegría,8,Estefanía despierta a las 7 a.m.,Afirmación,Al75,75,,,,,,,,,,,,,0,2,2,2,,,,,3,0.400327456549,2018_may._07_1640,59.9806747768,Experimento Piloto1,001,110,
2.5,Stim\\03_075.jpg,Tr75_13,Tristeza,13,Rocío consume alimentos nutritivos.,Afirmación,Tr75,75,,,,,,,,,,,,,0,3,3,3,,,,,4,0.400302466679,2018_may._07_1640,59.9806747768,Experimento Piloto1,001,110,
0.25,Stim\\03_019.jpg,Tr19_15,Tristeza,15,Ángel envía una carta a la abuela.,Afirmación,Tr19,19,,,,,,,,,,,,,0,4,4,4,,,,,3,0.483823075289,2018_may._07_1640,59.9806747768,Experimento Piloto1,001,110,
2.5,Stim\\05_075.jpg,En75_11,Enojo,11,María asiste a la cena.,Afirmación,En75,75,,,,,,,,,,,,,0,5,5,5,,,,,2,0.500253468683,2018_may._07_1640,59.9806747768,Experimento Piloto1,001,110,
0.25,Stim\\05_028.jpg,En28_4,Enojo,4,Jorge sustituye a Gustavo cada sábado.,Afirmación,En28,28,,,,,,,,,,,,,0,6,6,6,,,,,2,1.36670581746,2018_may._07_1640,59.9806747768,Experimento Piloto1,001,110,
2.5,Stim\\05_028.jpg,En28_9,Enojo,9,Marco colabora en la organización del evento.,Afirmación,En28,28,,,,,,,,,,,,,0,7,7,7,,,,,3,1.16678150107,2018_may._07_1640,59.9806747768,Experimento Piloto1,001,110,
2.5,Stim\\03_075.jpg,Tr75_9,Tristeza,9,Marco colabora en la organización del evento.,Afirmación,Tr75,75,,,,,,,,,,,,,0,8,8,8,,,,,4,0.450310766885,2018_may._07_1640,59.9806747768,Experimento Piloto1,001,110,
2.5,Stim\\05_028.jpg,En28_15,Enojo,15,Ángel envía una carta a la abuela.,Afirmación,En28,28,,,,,,,,,,,,,0,9,9,9,,,,,2,0.533736770987,2018_may._07_1640,59.9806747768,Experimento Piloto1,001,110,
0.25,Stim\\03_078.jpg,Tr78_8,Tristeza,8,Estefanía despierta a las 7 a.m.,Afirmación,Tr78,78,,,,,,,,,,,,,0,10,10,10,,,,,4,0.600297736453,2018_may._07_1640,59.9806747768,Experimento Piloto1,001,110,
0.25,Stim\\02_075.jpg,Al75_1,Alegría,1,Juan colecciona monedas antiguas.,Afirmación,Al75,75,,,,,,,,,,,,,0,11,11,11,,,,,3,0.483614231374,2018_may._07_1640,59.9806747768,Experimento Piloto1,001,110,
0.25,Stim\\05_078.jpg,En78_11,Enojo,11,María asiste a la cena.,Afirmación,En78,78,,,,,,,,,,,,,0,12,12,12,,,,,2,0.550355927151,2018_may._07_1640,59.9806747768,Experimento Piloto1,001,110,
2.5,Stim\\03_028.jpg,Tr28_15,Tristeza,15,Ángel envía una carta a la abuela.,Afirmación,Tr28,28,,,,,,,,,,,,,0,13,13,13,,,,,4,0.550210896654,2018_may._07_1640,59.9806747768,Experimento Piloto1,001,110,
2.5,Stim\\02_019.jpg,Al19_3,Alegría,3,Andrea diseña la portada del libro.,Afirmación,Al19,19,,,,,,,,,,,,,0,14,14,14,,,,,3,0.483669119839,2018_may._07_1640,59.9806747768,Experimento Piloto1,001,110,
2.5,Stim\\05_019.jpg,En19_5,Enojo,5,Emilio revisa el formato del archivo.,Afirmación,En19,19,,,,,,,,,,,,,0,15,15,15,,,,,2,0.500358336888,2018_may._07_1640,59.9806747768,Experimento Piloto1,001,110,
0.25,Stim\\02_028.jpg,Al28_11,Alegría,11,María asiste a la cena.,Afirmación,Al28,28,,,,,,,,,,,,,0,16,16,16,,,,,3,0.400313622871,2018_may._07_1640,59.9806747768,Experimento Piloto1,001,110,
0.25,Stim\\03_019.jpg,Tr19_11,Tristeza,11,María asiste a la cena.,Afirmación,Tr19,19,,,,,,,,,,,,,0,17,17,17,,,,,2,0.600249987951,2018_may._07_1640,59.9806747768,Experimento Piloto1,001,110,
2.5,Stim\\03_078.jpg,Tr78_14,Tristeza,14,Elizabeth elige la ropa un día antes.,Afirmación,Tr78,78,,,,,,,,,,,,,0,18,18,18,,,,,4,2.76600868933,2018_may._07_1640,59.9806747768,Experimento Piloto1,001,110,
0.25,Stim\\02_019.jpg,Al19_9,Alegría,9,Marco colabora en la organización del evento.,Afirmación,Al19,19,,,,,,,,,,,,,0,19,19,19,,,,,3,0.383877874504,2018_may._07_1640,59.9806747768,Experimento Piloto1,001,110,
2.5,Stim\\02_075.jpg,Al75_11,Alegría,11,María asiste a la cena.,Afirmación,Al75,75,,,,,,,,,,,,,0,20,20,20,,,,,3,0.400280154295,2018_may._07_1640,59.9806747768,Experimento Piloto1,001,110,
0.25,Stim\\02_028.jpg,Al28_4,Alegría,4,Jorge sustituye a Gustavo cada sábado.,Afirmación,Al28,28,,,,,,,,,,,,,0,21,21,21,,,,,3,0.4502116999,2018_may._07_1640,59.9806747768,Experimento Piloto1,001,110,
2.5,Stim\\02_075.jpg,Al75_10,Alegría,10,Laura finaliza la obra.,Afirmación,Al75,75,,,,,,,,,,,,,0,22,22,22,,,,,3,0.500308803396,2018_may._07_1640,59.9806747768,Experimento Piloto1,001,110,
0.25,Stim\\05_075.jpg,En75_4,Enojo,4,Jorge sustituye a Gustavo cada sábado.,Afirmación,En75,75,,,,,,,,,,,,,0,23,23,23,,,,,2,0.966916535619,2018_may._07_1640,59.9806747768,Experimento Piloto1,001,110,
2.5,Stim\\02_028.jpg,Al28_11,Alegría,11,María asiste a la cena.,Afirmación,Al28,28,,,,,,,,,,,,,0,24,24,24,,,,,3,0.450255878421,2018_may._07_1640,59.9806747768,Experimento Piloto1,001,110,
0.25,Stim\\02_078.jpg,Al78_1,Alegría,1,Juan colecciona monedas antiguas.,Afirmación,Al78,78,,,,,,,,,,,,,0,25,25,25,,,,,3,0.433930353232,2018_may._07_1640,59.9806747768,Experimento Piloto1,001,110,
2.5,Stim\\02_019.jpg,Al19_7,Alegría,7,Roberto contesta los cuestionarios solicitados.,Afirmación,Al19,19,,,,,,,,,,,,,0,26,26,26,,,,,3,0.50033111578,2018_may._07_1640,59.9806747768,Experimento Piloto1,001,110,
0.25,Stim\\05_028.jpg,En28_15,Enojo,15,Ángel envía una carta a la abuela.,Afirmación,En28,28,,,,,,,,,,,,,0,27,27,27,,,,,2,0.600329420039,2018_may._07_1640,59.9806747768,Experimento Piloto1,001,110,
0.25,Stim\\03_075.jpg,Tr75_2,Tristeza,2,Jonathan pasea al perro.,Afirmación,Tr75,75,,,,,,,,,,,,,0,28,28,28,,,,,4,0.70023088855,2018_may._07_1640,59.9806747768,Experimento Piloto1,001,110,
0.25,Stim\\05_075.jpg,En75_3,Enojo,3,Andrea diseña la portada del libro.,Afirmación,En75,75,,,,,,,,,,,,,0,29,29,29,,,,,2,0.700507562113,2018_may._07_1640,59.9806747768,Experimento Piloto1,001,110,
2.5,Stim\\05_028.jpg,En28_10,Enojo,10,Laura finaliza la obra.,Afirmación,En28,28,,,,,,,,,,,,,0,30,30,30,,,,,2,0.500282028535,2018_may._07_1640,59.9806747768,Experimento Piloto1,001,110,
0.25,Stim\\05_019.jpg,En19_4,Enojo,4,Jorge sustituye a Gustavo cada sábado.,Afirmación,En19,19,,,,,,,,,,,,,0,31,31,31,,,,,2,0.59992690463,2018_may._07_1640,59.9806747768,Experimento Piloto1,001,110,
2.5,Stim\\02_078.jpg,Al78_1,Alegría,1,Juan colecciona monedas antiguas.,Afirmación,Al78,78,,,,,,,,,,,,,0,32,32,32,,,,,3,0.750235618776,2018_may._07_1640,59.9806747768,Experimento Piloto1,001,110,
0.25,Stim\\05_075.jpg,En75_6,Enojo,6,Eduardo camina hacia la biblioteca.,Afirmación,En75,75,,,,,,,,,,,,,0,33,33,33,,,,,2,0.500323083322,2018_may._07_1640,59.9806747768,Experimento Piloto1,001,110,
2.5,Stim\\02_019.jpg,Al19_12,Alegría,12,Ana compra el libro.,Afirmación,Al19,19,,,,,,,,,,,,,0,34,34,34,,,,,3,0.500315943359,2018_may._07_1640,59.9806747768,Experimento Piloto1,001,110,
0.25,Stim\\05_075.jpg,En75_8,Enojo,8,Estefanía despierta a las 7 a.m.,Afirmación,En75,75,,,,,,,,,,,,,0,35,35,35,,,,,2,0.750136105543,2018_may._07_1640,59.9806747768,Experimento Piloto1,001,110,
2.5,Stim\\03_028.jpg,Tr28_4,Tristeza,4,Jorge sustituye a Gustavo cada sábado.,Afirmación,Tr28,28,,,,,,,,,,,,,0,36,36,36,,,,,4,1.06694473847,2018_may._07_1640,59.9806747768,Experimento Piloto1,001,110,
0.25,Stim\\03_078.jpg,Tr78_12,Tristeza,12,Ana compra el libro.,Afirmación,Tr78,78,,,,,,,,,,,,,0,37,37,37,,,,,4,0.600162969653,2018_may._07_1640,59.9806747768,Experimento Piloto1,001,110,
2.5,Stim\\03_019.jpg,Tr19_3,Tristeza,3,Andrea diseña la portada del libro.,Afirmación,Tr19,19,,,,,,,,,,,,,0,38,38,38,,,,,2,0.600247310465,2018_may._07_1640,59.9806747768,Experimento Piloto1,001,110,
2.5,Stim\\05_075.jpg,En75_4,Enojo,4,Jorge sustituye a Gustavo cada sábado.,Afirmación,En75,75,,,,,,,,,,,,,0,39,39,39,,,,,2,0.550409476873,2018_may._07_1640,59.9806747768,Experimento Piloto1,001,110,
0.25,Stim\\05_078.jpg,En78_6,Enojo,6,Eduardo camina hacia la biblioteca.,Afirmación,En78,78,,,,,,,,,,,,,0,40,40,40,,,,,2,0.500459635112,2018_may._07_1640,59.9806747768,Experimento Piloto1,001,110,
0.25,Stim\\03_078.jpg,Tr78_3,Tristeza,3,Andrea diseña la portada del libro.,Afirmación,Tr78,78,,,,,,,,,,,,,0,41,41,41,,,,,4,0.650273460579,2018_may._07_1640,59.9806747768,Experimento Piloto1,001,110,
0.25,Stim\\05_078.jpg,En78_15,Enojo,15,Ángel envía una carta a la abuela.,Afirmación,En78,78,,,,,,,,,,,,,0,42,42,42,,,,,2,0.550313979869,2018_may._07_1640,59.9806747768,Experimento Piloto1,001,110,
2.5,Stim\\05_078.jpg,En78_2,Enojo,2,Jonathan pasea al perro.,Afirmación,En78,78,,,,,,,,,,,,,0,43,43,43,,,,,2,0.600278547803,2018_may._07_1640,59.9806747768,Experimento Piloto1,001,110,
2.5,Stim\\02_078.jpg,Al78_4,Alegría,4,Jorge sustituye a Gustavo cada sábado.,Afirmación,Al78,78,,,,,,,,,,,,,0,44,44,44,,,,,3,0.550290774989,2018_may._07_1640,59.9806747768,Experimento Piloto1,001,110,
2.5,Stim\\05_078.jpg,En78_4,Enojo,4,Jorge sustituye a Gustavo cada sábado.,Afirmación,En78,78,,,,,,,,,,,,,0,45,45,45,,,,,2,0.550394750699,2018_may._07_1640,59.9806747768,Experimento Piloto1,001,110,
0.25,Stim\\05_019.jpg,En19_9,Enojo,9,Marco colabora en la organización del evento.,Afirmación,En19,19,,,,,,,,,,,,,0,46,46,46,,,,,2,0.550288097503,2018_may._07_1640,59.9806747768,Experimento Piloto1,001,110,
0.25,Stim\\05_019.jpg,En19_15,Enojo,15,Ángel envía una carta a la abuela.,Afirmación,En19,19,,,,,,,,,,,,,0,47,47,47,,,,,2,0.483782020503,2018_may._07_1640,59.9806747768,Experimento Piloto1,001,110,
2.5,Stim\\02_028.jpg,Al28_2,Alegría,2,Jonathan pasea al perro.,Afirmación,Al28,28,,,,,,,,,,,,,0,48,48,48,,,,,3,0.600294612719,2018_may._07_1640,59.9806747768,Experimento Piloto1,001,110,
0.25,Stim\\03_075.jpg,Tr75_1,Tristeza,1,Juan colecciona monedas antiguas.,Afirmación,Tr75,75,,,,,,,,,,,,,0,49,49,49,,,,,4,0.850291935234,2018_may._07_1640,59.9806747768,Experimento Piloto1,001,110,
2.5,Stim\\02_028.jpg,Al28_12,Alegría,12,Ana compra el libro.,Afirmación,Al28,28,,,,,,,,,,,,,0,50,50,50,,,,,3,0.550293452475,2018_may._07_1640,59.9806747768,Experimento Piloto1,001,110,
0.25,Stim\\05_019.jpg,En19_5,Enojo,5,Emilio revisa el formato del archivo.,Afirmación,En19,19,,,,,,,,,,,,,0,51,51,51,,,,,2,0.50036190687,2018_may._07_1640,59.9806747768,Experimento Piloto1,001,110,
0.25,Stim\\02_075.jpg,Al75_9,Alegría,9,Marco colabora en la organización del evento.,Afirmación,Al75,75,,,,,,,,,,,,,0,52,52,52,,,,,3,0.450312998124,2018_may._07_1640,59.9806747768,Experimento Piloto1,001,110,
2.5,Stim\\03_019.jpg,Tr19_12,Tristeza,12,Ana compra el libro.,Afirmación,Tr19,19,,,,,,,,,,,,,0,53,53,53,,,,,2,0.549949841761,2018_may._07_1640,59.9806747768,Experimento Piloto1,001,110,
2.5,Stim\\02_019.jpg,Al19_4,Alegría,4,Jorge sustituye a Gustavo cada sábado.,Afirmación,Al19,19,,,,,,,,,,,,,0,54,54,54,,,,,3,0.600428933272,2018_may._07_1640,59.9806747768,Experimento Piloto1,001,110,
0.25,Stim\\02_019.jpg,Al19_12,Alegría,12,Ana compra el libro.,Afirmación,Al19,19,,,,,,,,,,,,,0,55,55,55,,,,,3,1.26666868966,2018_may._07_1640,59.9806747768,Experimento Piloto1,001,110,
2.5,Stim\\02_078.jpg,Al78_7,Alegría,7,Roberto contesta los cuestionarios solicitados.,Afirmación,Al78,78,,,,,,,,,,,,,0,56,56,56,,,,,3,0.550251058946,2018_may._07_1640,59.9806747768,Experimento Piloto1,001,110,
2.5,Stim\\03_078.jpg,Tr78_13,Tristeza,13,Rocío consume alimentos nutritivos.,Afirmación,Tr78,78,,,,,,,,,,,,,0,57,57,57,,,,,4,1.01634560633,2018_may._07_1640,59.9806747768,Experimento Piloto1,001,110,
2.5,Stim\\02_075.jpg,Al75_9,Alegría,9,Marco colabora en la organización del evento.,Afirmación,Al75,75,,,,,,,,,,,,,0,58,58,58,,,,,3,0.500017849907,2018_may._07_1640,59.9806747768,Experimento Piloto1,001,110,
0.25,Stim\\02_028.jpg,Al28_5,Alegría,5,Emilio revisa el formato del archivo.,Afirmación,Al28,28,,,,,,,,,,,,,0,59,59,59,,,,,3,0.433740697967,2018_may._07_1640,59.9806747768,Experimento Piloto1,001,110,
2.5,Stim\\03_028.jpg,Tr28_7,Tristeza,7,Roberto contesta los cuestionarios solicitados.,Afirmación,Tr28,28,,,,,,,,,,,,,0,60,60,60,,,,,4,0.550295237466,2018_may._07_1640,59.9806747768,Experimento Piloto1,001,110,
0.25,Stim\\05_078.jpg,En78_7,Enojo,7,Roberto contesta los cuestionarios solicitados.,Afirmación,En78,78,,,,,,,,,,,,,0,61,61,61,,,,,2,0.650171716108,2018_may._07_1640,59.9806747768,Experimento Piloto1,001,110,
2.5,Stim\\03_028.jpg,Tr28_5,Tristeza,5,Emilio revisa el formato del archivo.,Afirmación,Tr28,28,,,,,,,,,,,,,0,62,62,62,,,,,4,0.533710888622,2018_may._07_1640,59.9806747768,Experimento Piloto1,001,110,
0.25,Stim\\02_019.jpg,Al19_13,Alegría,13,Rocío consume alimentos nutritivos.,Afirmación,Al19,19,,,,,,,,,,,,,0,63,63,63,,,,,3,0.600322280075,2018_may._07_1640,59.9806747768,Experimento Piloto1,001,110,
2.5,Stim\\05_019.jpg,En19_13,Enojo,13,Rocío consume alimentos nutritivos.,Afirmación,En19,19,,,,,,,,,,,,,0,64,64,64,,,,,2,0.916840405764,2018_may._07_1640,59.9806747768,Experimento Piloto1,001,110,
2.5,Stim\\03_078.jpg,Tr78_4,Tristeza,4,Jorge sustituye a Gustavo cada sábado.,Afirmación,Tr78,78,,,,,,,,,,,,,0,65,65,65,,,,,4,0.850110312427,2018_may._07_1640,59.9806747768,Experimento Piloto1,001,110,
0.25,Stim\\05_028.jpg,En28_13,Enojo,13,Rocío consume alimentos nutritivos.,Afirmación,En28,28,,,,,,,,,,,,,0,66,66,66,,,,,4,0.50017894532,2018_may._07_1640,59.9806747768,Experimento Piloto1,001,110,
0.25,Stim\\02_075.jpg,Al75_4,Alegría,4,Jorge sustituye a Gustavo cada sábado.,Afirmación,Al75,75,,,,,,,,,,,,,0,67,67,67,,,,,3,0.550199740463,2018_may._07_1640,59.9806747768,Experimento Piloto1,001,110,
0.25,Stim\\03_019.jpg,Tr19_14,Tristeza,14,Elizabeth elige la ropa un día antes.,Afirmación,Tr19,19,,,,,,,,,,,,,0,68,68,68,,,,,2,1.15022972831,2018_may._07_1640,59.9806747768,Experimento Piloto1,001,110,
2.5,Stim\\02_075.jpg,Al75_4,Alegría,4,Jorge sustituye a Gustavo cada sábado.,Afirmación,Al75,75,,,,,,,,,,,,,0,69,69,69,,,,,3,0.600271854088,2018_may._07_1640,59.9806747768,Experimento Piloto1,001,110,
2.5,Stim\\05_078.jpg,En78_7,Enojo,7,Roberto contesta los cuestionarios solicitados.,Afirmación,En78,78,,,,,,,,,,,,,0,70,70,70,,,,,2,0.550467489071,2018_may._07_1640,59.9806747768,Experimento Piloto1,001,110,
2.5,Stim\\05_028.jpg,En28_6,Enojo,6,Eduardo camina hacia la biblioteca.,Afirmación,En28,28,,,,,,,,,,,,,0,71,71,71,,,,,2,0.550146190741,2018_may._07_1640,59.9806747768,Experimento Piloto1,001,110,
2.5,Stim\\05_028.jpg,En28_7,Enojo,7,Roberto contesta los cuestionarios solicitados.,Afirmación,En28,28,,,,,,,,,,,,,0,72,72,72,,,,,2,0.483768633072,2018_may._07_1640,59.9806747768,Experimento Piloto1,001,110,
2.5,Stim\\03_028.jpg,Tr28_14,Tristeza,14,Elizabeth elige la ropa un día antes.,Afirmación,Tr28,28,,,,,,,,,,,,,0,73,73,73,,,,,4,0.499978580111,2018_may._07_1640,59.9806747768,Experimento Piloto1,001,110,
2.5,Stim\\02_019.jpg,Al19_11,Alegría,11,María asiste a la cena.,Afirmación,Al19,19,,,,,,,,,,,,,0,74,74,74,,,,,3,0.80018099806,2018_may._07_1640,59.9806747768,Experimento Piloto1,001,110,
0.25,Stim\\05_028.jpg,En28_7,Enojo,7,Roberto contesta los cuestionarios solicitados.,Afirmación,En28,28,,,,,,,,,,,,,0,75,75,75,,,,,2,2.29972805666,2018_may._07_1640,59.9806747768,Experimento Piloto1,001,110,
0.25,Stim\\05_078.jpg,En78_13,Enojo,13,Rocío consume alimentos nutritivos.,Afirmación,En78,78,,,,,,,,,,,,,0,76,76,76,,,,,2,0.600328973791,2018_may._07_1640,59.9806747768,Experimento Piloto1,001,110,
0.25,Stim\\03_028.jpg,Tr28_14,Tristeza,14,Elizabeth elige la ropa un día antes.,Afirmación,Tr28,28,,,,,,,,,,,,,0,77,77,77,,,,,4,0.850287472756,2018_may._07_1640,59.9806747768,Experimento Piloto1,001,110,
2.5,Stim\\03_075.jpg,Tr75_14,Tristeza,14,Elizabeth elige la ropa un día antes.,Afirmación,Tr75,75,,,,,,,,,,,,,0,78,78,78,,,,,2,0.600260697896,2018_may._07_1640,59.9806747768,Experimento Piloto1,001,110,
0.25,Stim\\05_019.jpg,En19_10,Enojo,10,Laura finaliza la obra.,Afirmación,En19,19,,,,,,,,,,,,,0,79,79,79,,,,,2,0.433823700036,2018_may._07_1640,59.9806747768,Experimento Piloto1,001,110,
0.25,Stim\\05_078.jpg,En78_9,Enojo,9,Marco colabora en la organización del evento.,Afirmación,En78,78,,,,,,,,,,,,,0,80,80,80,,,,,2,0.600263821629,2018_may._07_1640,59.9806747768,Experimento Piloto1,001,110,
0.25,Stim\\02_028.jpg,Al28_6,Alegría,6,Eduardo camina hacia la biblioteca.,Afirmación,Al28,28,,,,,,,,,,,,,0,81,81,81,,,,,3,0.500487748716,2018_may._07_1640,59.9806747768,Experimento Piloto1,001,110,
0.25,Stim\\05_078.jpg,En78_12,Enojo,12,Ana compra el libro.,Afirmación,En78,78,,,,,,,,,,,,,0,82,82,82,,,,,2,0.600321387581,2018_may._07_1640,59.9806747768,Experimento Piloto1,001,110,
2.5,Stim\\05_075.jpg,En75_1,Enojo,1,Juan colecciona monedas antiguas.,Afirmación,En75,75,,,,,,,,,,,,,0,83,83,83,,,,,2,0.750230710051,2018_may._07_1640,59.9806747768,Experimento Piloto1,001,110,
0.25,Stim\\03_019.jpg,Tr19_13,Tristeza,13,Rocío consume alimentos nutritivos.,Afirmación,Tr19,19,,,,,,,,,,,,,0,84,84,84,,,,,3,0.550296576209,2018_may._07_1640,59.9806747768,Experimento Piloto1,001,110,
2.5,Stim\\03_078.jpg,Tr78_11,Tristeza,11,María asiste a la cena.,Afirmación,Tr78,78,,,,,,,,,,,,,0,85,85,85,,,,,4,0.50031951334,2018_may._07_1640,59.9806747768,Experimento Piloto1,001,110,
2.5,Stim\\05_019.jpg,En19_1,Enojo,1,Juan colecciona monedas antiguas.,Afirmación,En19,19,,,,,,,,,,,,,0,86,86,86,,,,,2,0.550009192702,2018_may._07_1640,59.9806747768,Experimento Piloto1,001,110,
0.25,Stim\\02_075.jpg,Al75_10,Alegría,10,Laura finaliza la obra.,Afirmación,Al75,75,,,,,,,,,,,,,0,87,87,87,,,,,3,0.50039849918,2018_may._07_1640,59.9806747768,Experimento Piloto1,001,110,
2.5,Stim\\02_019.jpg,Al19_14,Alegría,14,Elizabeth elige la ropa un día antes.,Afirmación,Al19,19,,,,,,,,,,,,,0,88,88,88,,,,,3,0.600403943401,2018_may._07_1640,59.9806747768,Experimento Piloto1,001,110,
0.25,Stim\\03_028.jpg,Tr28_6,Tristeza,6,Eduardo camina hacia la biblioteca.,Afirmación,Tr28,28,,,,,,,,,,,,,0,89,89,89,,,,,4,0.700306750656,2018_may._07_1640,59.9806747768,Experimento Piloto1,001,110,
0.25,Stim\\02_075.jpg,Al75_8,Alegría,8,Estefanía despierta a las 7 a.m.,Afirmación,Al75,75,,,,,,,,,,,,,0,90,90,90,,,,,3,0.600391002219,2018_may._07_1640,59.9806747768,Experimento Piloto1,001,110,
2.5,Stim\\02_019.jpg,Al19_6,Alegría,6,Eduardo camina hacia la biblioteca.,Afirmación,Al19,19,,,,,,,,,,,,,0,91,91,91,,,,,3,0.500068275896,2018_may._07_1640,59.9806747768,Experimento Piloto1,001,110,
2.5,Stim\\03_078.jpg,Tr78_7,Tristeza,7,Roberto contesta los cuestionarios solicitados.,Afirmación,Tr78,78,,,,,,,,,,,,,0,92,92,92,,,,,4,0.433710799372,2018_may._07_1640,59.9806747768,Experimento Piloto1,001,110,
2.5,Stim\\02_028.jpg,Al28_8,Alegría,8,Estefanía despierta a las 7 a.m.,Afirmación,Al28,28,,,,,,,,,,,,,0,93,93,93,,,,,3,0.650455083386,2018_may._07_1640,59.9806747768,Experimento Piloto1,001,110,
0.25,Stim\\03_075.jpg,Tr75_13,Tristeza,13,Rocío consume alimentos nutritivos.,Afirmación,Tr75,75,,,,,,,,,,,,,0,94,94,94,,,,,4,0.900273460579,2018_may._07_1640,59.9806747768,Experimento Piloto1,001,110,
2.5,Stim\\02_075.jpg,Al75_6,Alegría,6,Eduardo camina hacia la biblioteca.,Afirmación,Al75,75,,,,,,,,,,,,,0,95,95,95,,,,,3,0.916950628941,2018_may._07_1640,59.9806747768,Experimento Piloto1,001,110,
0.25,Stim\\02_028.jpg,Al28_9,Alegría,9,Marco colabora en la organización del evento.,Afirmación,Al28,28,,,,,,,,,,,,,0,96,96,96,,,,,3,0.450532105736,2018_may._07_1640,59.9806747768,Experimento Piloto1,001,110,
0.25,Stim\\02_019.jpg,Al19_8,Alegría,8,Estefanía despierta a las 7 a.m.,Afirmación,Al19,19,,,,,,,,,,,,,0,97,97,97,,,,,3,0.550297468705,2018_may._07_1640,59.9806747768,Experimento Piloto1,001,110,
2.5,Stim\\02_019.jpg,Al19_1,Alegría,1,Juan colecciona monedas antiguas.,Afirmación,Al19,19,,,,,,,,,,,,,0,98,98,98,,,,,3,0.650245346975,2018_may._07_1640,59.9806747768,Experimento Piloto1,001,110,
0.25,Stim\\02_019.jpg,Al19_5,Alegría,5,Emilio revisa el formato del archivo.,Afirmación,Al19,19,,,,,,,,,,,,,0,99,99,99,,,,,3,0.700304073171,2018_may._07_1640,59.9806747768,Experimento Piloto1,001,110,
2.5,Stim\\02_078.jpg,Al78_13,Alegría,13,Rocío consume alimentos nutritivos.,Afirmación,Al78,78,,,,,,,,,,,,,0,100,100,100,,,,,3,0.450360300378,2018_may._07_1640,59.9806747768,Experimento Piloto1,001,110,
2.5,Stim\\05_078.jpg,En78_12,Enojo,12,Ana compra el libro.,Afirmación,En78,78,,,,,,,,,,,,,0,101,101,101,,,,,2,0.650285955515,2018_may._07_1640,59.9806747768,Experimento Piloto1,001,110,
2.5,Stim\\03_075.jpg,Tr75_11,Tristeza,11,María asiste a la cena.,Afirmación,Tr75,75,,,,,,,,,,,,,0,102,102,102,,,,,4,0.550338969739,2018_may._07_1640,59.9806747768,Experimento Piloto1,001,110,
0.25,Stim\\02_078.jpg,Al78_13,Alegría,13,Rocío consume alimentos nutritivos.,Afirmación,Al78,78,,,,,,,,,,,,,0,103,103,103,,,,,3,0.550479091511,2018_may._07_1640,59.9806747768,Experimento Piloto1,001,110,
0.25,Stim\\03_075.jpg,Tr75_11,Tristeza,11,María asiste a la cena.,Afirmación,Tr75,75,,,,,,,,,,,,,0,104,104,104,,,,,4,1.05025329018,2018_may._07_1640,59.9806747768,Experimento Piloto1,001,110,
2.5,Stim\\05_075.jpg,En75_8,Enojo,8,Estefanía despierta a las 7 a.m.,Afirmación,En75,75,,,,,,,,,,,,,0,105,105,105,,,,,2,0.450491497197,2018_may._07_1640,59.9806747768,Experimento Piloto1,001,110,
2.5,Stim\\03_078.jpg,Tr78_2,Tristeza,2,Jonathan pasea al perro.,Afirmación,Tr78,78,,,,,,,,,,,,,0,106,106,106,,,,,2,0.550374669554,2018_may._07_1640,59.9806747768,Experimento Piloto1,001,110,
2.5,Stim\\03_078.jpg,Tr78_12,Tristeza,12,Ana compra el libro.,Afirmación,Tr78,78,,,,,,,,,,,,,0,107,107,107,,,,,2,0.43376524159,2018_may._07_1640,59.9806747768,Experimento Piloto1,001,110,
2.5,Stim\\05_019.jpg,En19_10,Enojo,10,Laura finaliza la obra.,Afirmación,En19,19,,,,,,,,,,,,,0,108,108,108,,,,,2,0.400345752704,2018_may._07_1640,59.9806747768,Experimento Piloto1,001,110,
2.5,Stim\\05_078.jpg,En78_15,Enojo,15,Ángel envía una carta a la abuela.,Afirmación,En78,78,,,,,,,,,,,,,0,109,109,109,,,,,2,0.383905095613,2018_may._07_1640,59.9806747768,Experimento Piloto1,001,110,
0.25,Stim\\02_028.jpg,Al28_15,Alegría,15,Ángel envía una carta a la abuela.,Afirmación,Al28,28,,,,,,,,,,,,,0,110,110,110,,,,,3,0.433617087359,2018_may._07_1640,59.9806747768,Experimento Piloto1,001,110,
2.5,Stim\\02_075.jpg,Al75_13,Alegría,13,Rocío consume alimentos nutritivos.,Afirmación,Al75,75,,,,,,,,,,,,,0,111,111,111,,,,,3,0.43379603268,2018_may._07_1640,59.9806747768,Experimento Piloto1,001,110,
2.5,Stim\\02_078.jpg,Al78_5,Alegría,5,Emilio revisa el formato del archivo.,Afirmación,Al78,78,,,,,,,,,,,,,0,112,112,112,,,,,3,0.550270247596,2018_may._07_1640,59.9806747768,Experimento Piloto1,001,110,
2.5,Stim\\05_019.jpg,En19_12,Enojo,12,Ana compra el libro.,Afirmación,En19,19,,,,,,,,,,,,,0,113,113,113,,,,,2,0.450318353096,2018_may._07_1640,59.9806747768,Experimento Piloto1,001,110,
2.5,Stim\\03_028.jpg,Tr28_13,Tristeza,13,Rocío consume alimentos nutritivos.,Afirmación,Tr28,28,,,,,,,,,,,,,0,114,114,114,,,,,4,0.650251594443,2018_may._07_1640,59.9806747768,Experimento Piloto1,001,110,
2.5,Stim\\02_075.jpg,Al75_1,Alegría,1,Juan colecciona monedas antiguas.,Afirmación,Al75,75,,,,,,,,,,,,,0,115,115,115,,,,,3,0.450240259752,2018_may._07_1640,59.9806747768,Experimento Piloto1,001,110,
2.5,Stim\\02_028.jpg,Al28_3,Alegría,3,Andrea diseña la portada del libro.,Afirmación,Al28,28,,,,,,,,,,,,,0,116,116,116,,,,,3,0.533676081302,2018_may._07_1640,59.9806747768,Experimento Piloto1,001,110,
0.25,Stim\\05_028.jpg,En28_10,Enojo,10,Laura finaliza la obra.,Afirmación,En28,28,,,,,,,,,,,,,0,117,117,117,,,,,2,0.433641630982,2018_may._07_1640,59.9806747768,Experimento Piloto1,001,110,
0.25,Stim\\02_078.jpg,Al78_3,Alegría,3,Andrea diseña la portada del libro.,Afirmación,Al78,78,,,,,,,,,,,,,0,118,118,118,,,,,3,1.05022874656,2018_may._07_1640,59.9806747768,Experimento Piloto1,001,110,
2.5,Stim\\03_075.jpg,Tr75_15,Tristeza,15,Ángel envía una carta a la abuela.,Afirmación,Tr75,75,,,,,,,,,,,,,0,119,119,119,,,,,4,0.43373623549,2018_may._07_1640,59.9806747768,Experimento Piloto1,001,110,
