Tiempo,ImagenesE,ClaveEn,Emocion,NumEn,Enunciado,ActoHabla,Clave,Cara,trials.thisRepN,trials.thisTrialN,trials.thisN,trials.thisIndex,Bloque3.thisRepN,Bloque3.thisTrialN,Bloque3.thisN,Bloque3.thisIndex,Bloque1.thisRepN,Bloque1.thisTrialN,Bloque1.thisN,Bloque1.thisIndex,Bloque2.thisRepN,Bloque2.thisTrialN,Bloque2.thisN,Bloque2.thisIndex,Resp_Bloque3.keys,Resp_Bloque3.rt,Resp_Bloque1.keys,Resp_Bloque1.rt,Resp_Bloque2.keys,Resp_Bloque2.rt,date,frameRate,expName,session,participant,
0.25,Stim\\02_075.jpg,Al75_11,Alegría,11,María asiste a la cena.,Afirmación,Al75,75,,,,,0,0,0,0,,,,,,,,,3,0.85028140429,,,,,2018_may._08_1136,60.0186411262,Experimento Piloto1,001,111,
2.5,Stim\\03_019.jpg,Tr19_9,Tristeza,9,Marco colabora en la organización del evento.,Afirmación,Tr19,19,,,,,0,1,1,1,,,,,,,,,2,1.5666717539,,,,,2018_may._08_1136,60.0186411262,Experimento Piloto1,001,111,
2.5,Stim\\02_075.jpg,Al75_8,Alegría,8,Estefanía despierta a las 7 a.m.,Afirmación,Al75,75,,,,,0,2,2,2,,,,,,,,,4,2.08331726839,,,,,2018_may._08_1136,60.0186411262,Experimento Piloto1,001,111,
2.5,Stim\\03_075.jpg,Tr75_13,Tristeza,13,Rocío consume alimentos nutritivos.,Afirmación,Tr75,75,,,,,0,3,3,3,,,,,,,,,4,0.816377229904,,,,,2018_may._08_1136,60.0186411262,Experimento Piloto1,001,111,
0.25,Stim\\03_019.jpg,Tr19_15,Tristeza,15,Ángel envía una carta a la abuela.,Afirmación,Tr19,19,,,,,0,4,4,4,,,,,,,,,4,8.39782650216,,,,,2018_may._08_1136,60.0186411262,Experimento Piloto1,001,111,
2.5,Stim\\05_075.jpg,En75_11,Enojo,11,María asiste a la cena.,Afirmación,En75,75,,,,,0,5,5,5,,,,,,,,,2,0.700443660237,,,,,2018_may._08_1136,60.0186411262,Experimento Piloto1,001,111,
0.25,Stim\\05_028.jpg,En28_4,Enojo,4,Jorge sustituye a Gustavo cada sábado.,Afirmación,En28,28,,,,,0,6,6,6,,,,,,,,,2,1.31676457358,,,,,2018_may._08_1136,60.0186411262,Experimento Piloto1,001,111,
2.5,Stim\\05_028.jpg,En28_9,Enojo,9,Marco colabora en la organización del evento.,Afirmación,En28,28,,,,,0,7,7,7,,,,,,,,,2,3.63255721798,,,,,2018_may._08_1136,60.0186411262,Experimento Piloto1,001,111,
2.5,Stim\\03_075.jpg,Tr75_9,Tristeza,9,Marco colabora en la organización del evento.,Afirmación,Tr75,75,,,,,0,8,8,8,,,,,,,,,3,6.59882752675,,,,,2018_may._08_1136,60.0186411262,Experimento Piloto1,001,111,
2.5,Stim\\05_028.jpg,En28_15,Enojo,15,Ángel envía una carta a la abuela.,Afirmación,En28,28,,,,,0,9,9,9,,,,,,,,,2,5.56526919493,,,,,2018_may._08_1136,60.0186411262,Experimento Piloto1,001,111,
0.25,Stim\\03_078.jpg,Tr78_8,Tristeza,8,Estefanía despierta a las 7 a.m.,Afirmación,Tr78,78,,,,,0,10,10,10,,,,,,,,,4,3.16611331855,,,,,2018_may._08_1136,60.0186411262,Experimento Piloto1,001,111,
0.25,Stim\\02_075.jpg,Al75_1,Alegría,1,Juan colecciona monedas antiguas.,Afirmación,Al75,75,,,,,0,11,11,11,,,,,,,,,3,0.650368779742,,,,,2018_may._08_1136,60.0186411262,Experimento Piloto1,001,111,
0.25,Stim\\05_078.jpg,En78_11,Enojo,11,María asiste a la cena.,Afirmación,En78,78,,,,,0,12,12,12,,,,,,,,,2,1.21690799784,,,,,2018_may._08_1136,60.0186411262,Experimento Piloto1,001,111,
2.5,Stim\\03_028.jpg,Tr28_15,Tristeza,15,Ángel envía una carta a la abuela.,Afirmación,Tr28,28,,,,,0,13,13,13,,,,,,,,,2,3.11607324544,,,,,2018_may._08_1136,60.0186411262,Experimento Piloto1,001,111,
2.5,Stim\\02_019.jpg,Al19_3,Alegría,3,Andrea diseña la portada del libro.,Afirmación,Al19,19,,,,,0,14,14,14,,,,,,,,,3,0.700435627765,,,,,2018_may._08_1136,60.0186411262,Experimento Piloto1,001,111,
2.5,Stim\\05_019.jpg,En19_5,Enojo,5,Emilio revisa el formato del archivo.,Afirmación,En19,19,,,,,0,15,15,15,,,,,,,,,4,5.8818615166,,,,,2018_may._08_1136,60.0186411262,Experimento Piloto1,001,111,
0.25,Stim\\02_028.jpg,Al28_11,Alegría,11,María asiste a la cena.,Afirmación,Al28,28,,,,,0,16,16,16,,,,,,,,,3,0.550392609411,,,,,2018_may._08_1136,60.0186411262,Experimento Piloto1,001,111,
0.25,Stim\\03_019.jpg,Tr19_11,Tristeza,11,María asiste a la cena.,Afirmación,Tr19,19,,,,,0,17,17,17,,,,,,,,,2,0.850247935654,,,,,2018_may._08_1136,60.0186411262,Experimento Piloto1,001,111,
2.5,Stim\\03_078.jpg,Tr78_14,Tristeza,14,Elizabeth elige la ropa un día antes.,Afirmación,Tr78,78,,,,,0,18,18,18,,,,,,,,,4,0.6006303706,,,,,2018_may._08_1136,60.0186411262,Experimento Piloto1,001,111,
0.25,Stim\\02_019.jpg,Al19_9,Alegría,9,Marco colabora en la organización del evento.,Afirmación,Al19,19,,,,,0,19,19,19,,,,,,,,,3,0.700284795779,,,,,2018_may._08_1136,60.0186411262,Experimento Piloto1,001,111,
2.5,Stim\\02_075.jpg,Al75_11,Alegría,11,María asiste a la cena.,Afirmación,Al75,75,,,,,0,20,20,20,,,,,,,,,3,0.550282832286,,,,,2018_may._08_1136,60.0186411262,Experimento Piloto1,001,111,
0.25,Stim\\02_028.jpg,Al28_4,Alegría,4,Jorge sustituye a Gustavo cada sábado.,Afirmación,Al28,28,,,,,0,21,21,21,,,,,,,,,3,0.750414118588,,,,,2018_may._08_1136,60.0186411262,Experimento Piloto1,001,111,
2.5,Stim\\02_075.jpg,Al75_10,Alegría,10,Laura finaliza la obra.,Afirmación,Al75,75,,,,,0,22,22,22,,,,,,,,,3,0.533749326165,,,,,2018_may._08_1136,60.0186411262,Experimento Piloto1,001,111,
0.25,Stim\\05_075.jpg,En75_4,Enojo,4,Jorge sustituye a Gustavo cada sábado.,Afirmación,En75,75,,,,,0,23,23,23,,,,,,,,,2,0.649950644918,,,,,2018_may._08_1136,60.0186411262,Experimento Piloto1,001,111,
2.5,Stim\\02_028.jpg,Al28_11,Alegría,11,María asiste a la cena.,Afirmación,Al28,28,,,,,0,24,24,24,,,,,,,,,4,3.26616490488,,,,,2018_may._08_1136,60.0186411262,Experimento Piloto1,001,111,
0.25,Stim\\02_078.jpg,Al78_1,Alegría,1,Juan colecciona monedas antiguas.,Afirmación,Al78,78,,,,,0,25,25,25,,,,,,,,,3,2.89955348377,,,,,2018_may._08_1136,60.0186411262,Experimento Piloto1,001,111,
2.5,Stim\\02_019.jpg,Al19_7,Alegría,7,Roberto contesta los cuestionarios solicitados.,Afirmación,Al19,19,,,,,0,26,26,26,,,,,,,,,3,0.650211700278,,,,,2018_may._08_1136,60.0186411262,Experimento Piloto1,001,111,
0.25,Stim\\05_028.jpg,En28_15,Enojo,15,Ángel envía una carta a la abuela.,Afirmación,En28,28,,,,,0,27,27,27,,,,,,,,,2,0.649945289937,,,,,2018_may._08_1136,60.0186411262,Experimento Piloto1,001,111,
0.25,Stim\\03_075.jpg,Tr75_2,Tristeza,2,Jonathan pasea al perro.,Afirmación,Tr75,75,,,,,0,28,28,28,,,,,,,,,4,2.59937284239,,,,,2018_may._08_1136,60.0186411262,Experimento Piloto1,001,111,
0.25,Stim\\05_075.jpg,En75_3,Enojo,3,Andrea diseña la portada del libro.,Afirmación,En75,75,,,,,0,29,29,29,,,,,,,,,2,0.850035521379,,,,,2018_may._08_1136,60.0186411262,Experimento Piloto1,001,111,
2.5,Stim\\05_028.jpg,En28_10,Enojo,10,Laura finaliza la obra.,Afirmación,En28,28,,,,,0,30,30,30,,,,,,,,,2,0.600156900965,,,,,2018_may._08_1136,60.0186411262,Experimento Piloto1,001,111,
0.25,Stim\\05_019.jpg,En19_4,Enojo,4,Jorge sustituye a Gustavo cada sábado.,Afirmación,En19,19,,,,,0,31,31,31,,,,,,,,,2,0.650001963493,,,,,2018_may._08_1136,60.0186411262,Experimento Piloto1,001,111,
2.5,Stim\\02_078.jpg,Al78_1,Alegría,1,Juan colecciona monedas antiguas.,Afirmación,Al78,78,,,,,0,32,32,32,,,,,,,,,3,0.666579201965,,,,,2018_may._08_1136,60.0186411262,Experimento Piloto1,001,111,
0.25,Stim\\05_075.jpg,En75_6,Enojo,6,Eduardo camina hacia la biblioteca.,Afirmación,En75,75,,,,,0,33,33,33,,,,,,,,,2,0.650309428695,,,,,2018_may._08_1136,60.0186411262,Experimento Piloto1,001,111,
2.5,Stim\\02_019.jpg,Al19_12,Alegría,12,Ana compra el libro.,Afirmación,Al19,19,,,,,0,34,34,34,,,,,,,,,3,0.767044906877,,,,,2018_may._08_1136,60.0186411262,Experimento Piloto1,001,111,
0.25,Stim\\05_075.jpg,En75_8,Enojo,8,Estefanía despierta a las 7 a.m.,Afirmación,En75,75,,,,,0,35,35,35,,,,,,,,,2,0.60026087686,,,,,2018_may._08_1136,60.0186411262,Experimento Piloto1,001,111,
2.5,Stim\\03_028.jpg,Tr28_4,Tristeza,4,Jorge sustituye a Gustavo cada sábado.,Afirmación,Tr28,28,,,,,0,36,36,36,,,,,,,,,4,0.91660999311,,,,,2018_may._08_1136,60.0186411262,Experimento Piloto1,001,111,
0.25,Stim\\03_078.jpg,Tr78_12,Tristeza,12,Ana compra el libro.,Afirmación,Tr78,78,,,,,0,37,37,37,,,,,,,,,4,0.70020804104,,,,,2018_may._08_1136,60.0186411262,Experimento Piloto1,001,111,
2.5,Stim\\03_019.jpg,Tr19_3,Tristeza,3,Andrea diseña la portada del libro.,Afirmación,Tr19,19,,,,,0,38,38,38,,,,,,,,,2,1.71705615234,,,,,2018_may._08_1136,60.0186411262,Experimento Piloto1,001,111,
2.5,Stim\\05_075.jpg,En75_4,Enojo,4,Jorge sustituye a Gustavo cada sábado.,Afirmación,En75,75,,,,,0,39,39,39,,,,,,,,,2,0.800379668205,,,,,2018_may._08_1136,60.0186411262,Experimento Piloto1,001,111,
0.25,Stim\\05_078.jpg,En78_6,Enojo,6,Eduardo camina hacia la biblioteca.,Afirmación,En78,78,,,,,0,40,40,40,,,,,,,,,2,0.550201615063,,,,,2018_may._08_1136,60.0186411262,Experimento Piloto1,001,111,
0.25,Stim\\03_078.jpg,Tr78_3,Tristeza,3,Andrea diseña la portada del libro.,Afirmación,Tr78,78,,,,,0,41,41,41,,,,,,,,,4,0.75029630899,,,,,2018_may._08_1136,60.0186411262,Experimento Piloto1,001,111,
0.25,Stim\\05_078.jpg,En78_15,Enojo,15,Ángel envía una carta a la abuela.,Afirmación,En78,78,,,,,0,42,42,42,,,,,,,,,2,0.700213842271,,,,,2018_may._08_1136,60.0186411262,Experimento Piloto1,001,111,
2.5,Stim\\05_078.jpg,En78_2,Enojo,2,Jonathan pasea al perro.,Afirmación,En78,78,,,,,0,43,43,43,,,,,,,,,2,0.550126199069,,,,,2018_may._08_1136,60.0186411262,Experimento Piloto1,001,111,
2.5,Stim\\02_078.jpg,Al78_4,Alegría,4,Jorge sustituye a Gustavo cada sábado.,Afirmación,Al78,78,,,,,0,44,44,44,,,,,,,,,3,0.650291132507,,,,,2018_may._08_1136,60.0186411262,Experimento Piloto1,001,111,
2.5,Stim\\05_078.jpg,En78_4,Enojo,4,Jorge sustituye a Gustavo cada sábado.,Afirmación,En78,78,,,,,0,45,45,45,,,,,,,,,2,2.69976045382,,,,,2018_may._08_1136,60.0186411262,Experimento Piloto1,001,111,
0.25,Stim\\05_019.jpg,En19_9,Enojo,9,Marco colabora en la organización del evento.,Afirmación,En19,19,,,,,0,46,46,46,,,,,,,,,2,1.53300275246,,,,,2018_may._08_1136,60.0186411262,Experimento Piloto1,001,111,
0.25,Stim\\05_019.jpg,En19_15,Enojo,15,Ángel envía una carta a la abuela.,Afirmación,En19,19,,,,,0,47,47,47,,,,,,,,,2,0.650254093884,,,,,2018_may._08_1136,60.0186411262,Experimento Piloto1,001,111,
2.5,Stim\\02_028.jpg,Al28_2,Alegría,2,Jonathan pasea al perro.,Afirmación,Al28,28,,,,,0,48,48,48,,,,,,,,,3,0.534000564058,,,,,2018_may._08_1136,60.0186411262,Experimento Piloto1,001,111,
0.25,Stim\\03_075.jpg,Tr75_1,Tristeza,1,Juan colecciona monedas antiguas.,Afirmación,Tr75,75,,,,,0,49,49,49,,,,,,,,,4,0.483694526852,,,,,2018_may._08_1136,60.0186411262,Experimento Piloto1,001,111,
2.5,Stim\\02_028.jpg,Al28_12,Alegría,12,Ana compra el libro.,Afirmación,Al28,28,,,,,0,50,50,50,,,,,,,,,3,0.400344682325,,,,,2018_may._08_1136,60.0186411262,Experimento Piloto1,001,111,
0.25,Stim\\05_019.jpg,En19_5,Enojo,5,Emilio revisa el formato del archivo.,Afirmación,En19,19,,,,,0,51,51,51,,,,,,,,,2,0.550344414576,,,,,2018_may._08_1136,60.0186411262,Experimento Piloto1,001,111,
0.25,Stim\\02_075.jpg,Al75_9,Alegría,9,Marco colabora en la organización del evento.,Afirmación,Al75,75,,,,,0,52,52,52,,,,,,,,,3,0.433509422983,,,,,2018_may._08_1136,60.0186411262,Experimento Piloto1,001,111,
2.5,Stim\\03_019.jpg,Tr19_12,Tristeza,12,Ana compra el libro.,Afirmación,Tr19,19,,,,,0,53,53,53,,,,,,,,,2,0.650159489207,,,,,2018_may._08_1136,60.0186411262,Experimento Piloto1,001,111,
2.5,Stim\\02_019.jpg,Al19_4,Alegría,4,Jorge sustituye a Gustavo cada sábado.,Afirmación,Al19,19,,,,,0,54,54,54,,,,,,,,,3,0.433642851278,,,,,2018_may._08_1136,60.0186411262,Experimento Piloto1,001,111,
0.25,Stim\\02_019.jpg,Al19_12,Alegría,12,Ana compra el libro.,Afirmación,Al19,19,,,,,0,55,55,55,,,,,,,,,3,0.450347716815,,,,,2018_may._08_1136,60.0186411262,Experimento Piloto1,001,111,
2.5,Stim\\02_078.jpg,Al78_7,Alegría,7,Roberto contesta los cuestionarios solicitados.,Afirmación,Al78,78,,,,,0,56,56,56,,,,,,,,,3,0.450336114354,,,,,2018_may._08_1136,60.0186411262,Experimento Piloto1,001,111,
2.5,Stim\\03_078.jpg,Tr78_13,Tristeza,13,Rocío consume alimentos nutritivos.,Afirmación,Tr78,78,,,,,0,57,57,57,,,,,,,,,4,0.700307108203,,,,,2018_may._08_1136,60.0186411262,Experimento Piloto1,001,111,
2.5,Stim\\02_075.jpg,Al75_9,Alegría,9,Marco colabora en la organización del evento.,Afirmación,Al75,75,,,,,0,58,58,58,,,,,,,,,3,1.16665997294,,,,,2018_may._08_1136,60.0186411262,Experimento Piloto1,001,111,
0.25,Stim\\02_028.jpg,Al28_5,Alegría,5,Emilio revisa el formato del archivo.,Afirmación,Al28,28,,,,,0,59,59,59,,,,,,,,,3,3.4162030145,,,,,2018_may._08_1136,60.0186411262,Experimento Piloto1,001,111,
2.5,Stim\\03_028.jpg,Tr28_7,Tristeza,7,Roberto contesta los cuestionarios solicitados.,Afirmación,Tr28,28,,,,,0,60,60,60,,,,,,,,,4,3.26610109135,,,,,2018_may._08_1136,60.0186411262,Experimento Piloto1,001,111,
0.25,Stim\\05_078.jpg,En78_7,Enojo,7,Roberto contesta los cuestionarios solicitados.,Afirmación,En78,78,,,,,0,61,61,61,,,,,,,,,2,2.59963523649,,,,,2018_may._08_1136,60.0186411262,Experimento Piloto1,001,111,
2.5,Stim\\03_028.jpg,Tr28_5,Tristeza,5,Emilio revisa el formato del archivo.,Afirmación,Tr28,28,,,,,0,62,62,62,,,,,,,,,3,5.01553212454,,,,,2018_may._08_1136,60.0186411262,Experimento Piloto1,001,111,
0.25,Stim\\02_019.jpg,Al19_13,Alegría,13,Rocío consume alimentos nutritivos.,Afirmación,Al19,19,,,,,0,63,63,63,,,,,,,,,4,0.750167343179,,,,,2018_may._08_1136,60.0186411262,Experimento Piloto1,001,111,
2.5,Stim\\05_019.jpg,En19_13,Enojo,13,Rocío consume alimentos nutritivos.,Afirmación,En19,19,,,,,0,64,64,64,,,,,,,,,2,1.78317098814,,,,,2018_may._08_1136,60.0186411262,Experimento Piloto1,001,111,
2.5,Stim\\03_078.jpg,Tr78_4,Tristeza,4,Jorge sustituye a Gustavo cada sábado.,Afirmación,Tr78,78,,,,,0,65,65,65,,,,,,,,,3,0.500447587224,,,,,2018_may._08_1136,60.0186411262,Experimento Piloto1,001,111,
0.25,Stim\\05_028.jpg,En28_13,Enojo,13,Rocío consume alimentos nutritivos.,Afirmación,En28,28,,,,,0,66,66,66,,,,,,,,,2,0.500303448965,,,,,2018_may._08_1136,60.0186411262,Experimento Piloto1,001,111,
0.25,Stim\\02_075.jpg,Al75_4,Alegría,4,Jorge sustituye a Gustavo cada sábado.,Afirmación,Al75,75,,,,,0,67,67,67,,,,,,,,,4,0.750336471353,,,,,2018_may._08_1136,60.0186411262,Experimento Piloto1,001,111,
0.25,Stim\\03_019.jpg,Tr19_14,Tristeza,14,Elizabeth elige la ropa un día antes.,Afirmación,Tr19,19,,,,,0,68,68,68,,,,,,,,,2,0.600396090149,,,,,2018_may._08_1136,60.0186411262,Experimento Piloto1,001,111,
2.5,Stim\\02_075.jpg,Al75_4,Alegría,4,Jorge sustituye a Gustavo cada sábado.,Afirmación,Al75,75,,,,,0,69,69,69,,,,,,,,,4,0.750221785494,,,,,2018_may._08_1136,60.0186411262,Experimento Piloto1,001,111,
2.5,Stim\\05_078.jpg,En78_7,Enojo,7,Roberto contesta los cuestionarios solicitados.,Afirmación,En78,78,,,,,0,70,70,70,,,,,,,,,2,1.51675573786,,,,,2018_may._08_1136,60.0186411262,Experimento Piloto1,001,111,
2.5,Stim\\05_028.jpg,En28_6,Enojo,6,Eduardo camina hacia la biblioteca.,Afirmación,En28,28,,,,,0,71,71,71,,,,,,,,,2,0.75024052793,,,,,2018_may._08_1136,60.0186411262,Experimento Piloto1,001,111,
2.5,Stim\\05_028.jpg,En28_7,Enojo,7,Roberto contesta los cuestionarios solicitados.,Afirmación,En28,28,,,,,0,72,72,72,,,,,,,,,2,0.533660076469,,,,,2018_may._08_1136,60.0186411262,Experimento Piloto1,001,111,
2.5,Stim\\03_028.jpg,Tr28_14,Tristeza,14,Elizabeth elige la ropa un día antes.,Afirmación,Tr28,28,,,,,0,73,73,73,,,,,,,,,3,0.750311481438,,,,,2018_may._08_1136,60.0186411262,Experimento Piloto1,001,111,
2.5,Stim\\02_019.jpg,Al19_11,Alegría,11,María asiste a la cena.,Afirmación,Al19,19,,,,,0,74,74,74,,,,,,,,,4,0.900180462884,,,,,2018_may._08_1136,60.0186411262,Experimento Piloto1,001,111,
0.25,Stim\\05_028.jpg,En28_7,Enojo,7,Roberto contesta los cuestionarios solicitados.,Afirmación,En28,28,,,,,0,75,75,75,,,,,,,,,2,0.650379935954,,,,,2018_may._08_1136,60.0186411262,Experimento Piloto1,001,111,
0.25,Stim\\05_078.jpg,En78_13,Enojo,13,Rocío consume alimentos nutritivos.,Afirmación,En78,78,,,,,0,76,76,76,,,,,,,,,2,0.450426702795,,,,,2018_may._08_1136,60.0186411262,Experimento Piloto1,001,111,
0.25,Stim\\03_028.jpg,Tr28_14,Tristeza,14,Elizabeth elige la ropa un día antes.,Afirmación,Tr28,28,,,,,0,77,77,77,,,,,,,,,3,0.850207327043,,,,,2018_may._08_1136,60.0186411262,Experimento Piloto1,001,111,
2.5,Stim\\03_075.jpg,Tr75_14,Tristeza,14,Elizabeth elige la ropa un día antes.,Afirmación,Tr75,75,,,,,0,78,78,78,,,,,,,,,3,0.600155115971,,,,,2018_may._08_1136,60.0186411262,Experimento Piloto1,001,111,
0.25,Stim\\05_019.jpg,En19_10,Enojo,10,Laura finaliza la obra.,Afirmación,En19,19,,,,,0,79,79,79,,,,,,,,,2,0.433693723604,,,,,2018_may._08_1136,60.0186411262,Experimento Piloto1,001,111,
0.25,Stim\\05_078.jpg,En78_9,Enojo,9,Marco colabora en la organización del evento.,Afirmación,En78,78,,,,,0,80,80,80,,,,,,,,,2,0.500240081681,,,,,2018_may._08_1136,60.0186411262,Experimento Piloto1,001,111,
0.25,Stim\\02_028.jpg,Al28_6,Alegría,6,Eduardo camina hacia la biblioteca.,Afirmación,Al28,28,,,,,0,81,81,81,,,,,,,,,3,6.14859003331,,,,,2018_may._08_1136,60.0186411262,Experimento Piloto1,001,111,
0.25,Stim\\05_078.jpg,En78_12,Enojo,12,Ana compra el libro.,Afirmación,En78,78,,,,,0,82,82,82,,,,,,,,,2,0.433749504664,,,,,2018_may._08_1136,60.0186411262,Experimento Piloto1,001,111,
2.5,Stim\\05_075.jpg,En75_1,Enojo,1,Juan colecciona monedas antiguas.,Afirmación,En75,75,,,,,0,83,83,83,,,,,,,,,2,0.86712906934,,,,,2018_may._08_1136,60.0186411262,Experimento Piloto1,001,111,
0.25,Stim\\03_019.jpg,Tr19_13,Tristeza,13,Rocío consume alimentos nutritivos.,Afirmación,Tr19,19,,,,,0,84,84,84,,,,,,,,,2,0.43381510319,,,,,2018_may._08_1136,60.0186411262,Experimento Piloto1,001,111,
2.5,Stim\\03_078.jpg,Tr78_11,Tristeza,11,María asiste a la cena.,Afirmación,Tr78,78,,,,,0,85,85,85,,,,,,,,,4,8.48130798999,,,,,2018_may._08_1136,60.0186411262,Experimento Piloto1,001,111,
2.5,Stim\\05_019.jpg,En19_1,Enojo,1,Juan colecciona monedas antiguas.,Afirmación,En19,19,,,,,0,86,86,86,,,,,,,,,2,1.66673538893,,,,,2018_may._08_1136,60.0186411262,Experimento Piloto1,001,111,
0.25,Stim\\02_075.jpg,Al75_10,Alegría,10,Laura finaliza la obra.,Afirmación,Al75,75,,,,,0,87,87,87,,,,,,,,,3,2.99951269666,,,,,2018_may._08_1136,60.0186411262,Experimento Piloto1,001,111,
2.5,Stim\\02_019.jpg,Al19_14,Alegría,14,Elizabeth elige la ropa un día antes.,Afirmación,Al19,19,,,,,0,88,88,88,,,,,,,,,3,0.650371010985,,,,,2018_may._08_1136,60.0186411262,Experimento Piloto1,001,111,
0.25,Stim\\03_028.jpg,Tr28_6,Tristeza,6,Eduardo camina hacia la biblioteca.,Afirmación,Tr28,28,,,,,0,89,89,89,,,,,,,,,3,3.93257363992,,,,,2018_may._08_1136,60.0186411262,Experimento Piloto1,001,111,
0.25,Stim\\02_075.jpg,Al75_8,Alegría,8,Estefanía despierta a las 7 a.m.,Afirmación,Al75,75,,,,,0,90,90,90,,,,,,,,,3,3.06608761464,,,,,2018_may._08_1136,60.0186411262,Experimento Piloto1,001,111,
2.5,Stim\\02_019.jpg,Al19_6,Alegría,6,Eduardo camina hacia la biblioteca.,Afirmación,Al19,19,,,,,0,91,91,91,,,,,,,,,3,3.06609386212,,,,,2018_may._08_1136,60.0186411262,Experimento Piloto1,001,111,
2.5,Stim\\03_078.jpg,Tr78_7,Tristeza,7,Roberto contesta los cuestionarios solicitados.,Afirmación,Tr78,78,,,,,0,92,92,92,,,,,,,,,4,7.98125845641,,,,,2018_may._08_1136,60.0186411262,Experimento Piloto1,001,111,
2.5,Stim\\02_028.jpg,Al28_8,Alegría,8,Estefanía despierta a las 7 a.m.,Afirmación,Al28,28,,,,,0,93,93,93,,,,,,,,,3,1.53332762135,,,,,2018_may._08_1136,60.0186411262,Experimento Piloto1,001,111,
0.25,Stim\\03_075.jpg,Tr75_13,Tristeza,13,Rocío consume alimentos nutritivos.,Afirmación,Tr75,75,,,,,0,94,94,94,,,,,,,,,4,4.48248251598,,,,,2018_may._08_1136,60.0186411262,Experimento Piloto1,001,111,
2.5,Stim\\02_075.jpg,Al75_6,Alegría,6,Eduardo camina hacia la biblioteca.,Afirmación,Al75,75,,,,,0,95,95,95,,,,,,,,,3,1.36695413994,,,,,2018_may._08_1136,60.0186411262,Experimento Piloto1,001,111,
0.25,Stim\\02_028.jpg,Al28_9,Alegría,9,Marco colabora en la organización del evento.,Afirmación,Al28,28,,,,,0,96,96,96,,,,,,,,,3,0.550272568571,,,,,2018_may._08_1136,60.0186411262,Experimento Piloto1,001,111,
0.25,Stim\\02_019.jpg,Al19_8,Alegría,8,Estefanía despierta a las 7 a.m.,Afirmación,Al19,19,,,,,0,97,97,97,,,,,,,,,3,0.650224195236,,,,,2018_may._08_1136,60.0186411262,Experimento Piloto1,001,111,
2.5,Stim\\02_019.jpg,Al19_1,Alegría,1,Juan colecciona monedas antiguas.,Afirmación,Al19,19,,,,,0,98,98,98,,,,,,,,,4,3.7326694941,,,,,2018_may._08_1136,60.0186411262,Experimento Piloto1,001,111,
0.25,Stim\\02_019.jpg,Al19_5,Alegría,5,Emilio revisa el formato del archivo.,Afirmación,Al19,19,,,,,0,99,99,99,,,,,,,,,4,1.56669852881,,,,,2018_may._08_1136,60.0186411262,Experimento Piloto1,001,111,
2.5,Stim\\02_078.jpg,Al78_13,Alegría,13,Rocío consume alimentos nutritivos.,Afirmación,Al78,78,,,,,0,100,100,100,,,,,,,,,3,0.766954318436,,,,,2018_may._08_1136,60.0186411262,Experimento Piloto1,001,111,
2.5,Stim\\05_078.jpg,En78_12,Enojo,12,Ana compra el libro.,Afirmación,En78,78,,,,,0,101,101,101,,,,,,,,,2,0.650185371618,,,,,2018_may._08_1136,60.0186411262,Experimento Piloto1,001,111,
2.5,Stim\\03_075.jpg,Tr75_11,Tristeza,11,María asiste a la cena.,Afirmación,Tr75,75,,,,,0,102,102,102,,,,,,,,,4,2.08312939778,,,,,2018_may._08_1136,60.0186411262,Experimento Piloto1,001,111,
0.25,Stim\\02_078.jpg,Al78_13,Alegría,13,Rocío consume alimentos nutritivos.,Afirmación,Al78,78,,,,,0,103,103,103,,,,,,,,,3,0.450319156912,,,,,2018_may._08_1136,60.0186411262,Experimento Piloto1,001,111,
0.25,Stim\\03_075.jpg,Tr75_11,Tristeza,11,María asiste a la cena.,Afirmación,Tr75,75,,,,,0,104,104,104,,,,,,,,,4,0.800220357498,,,,,2018_may._08_1136,60.0186411262,Experimento Piloto1,001,111,
2.5,Stim\\05_075.jpg,En75_8,Enojo,8,Estefanía despierta a las 7 a.m.,Afirmación,En75,75,,,,,0,105,105,105,,,,,,,,,2,1.8331240428,,,,,2018_may._08_1136,60.0186411262,Experimento Piloto1,001,111,
2.5,Stim\\03_078.jpg,Tr78_2,Tristeza,2,Jonathan pasea al perro.,Afirmación,Tr78,78,,,,,0,106,106,106,,,,,,,,,4,0.90020232906,,,,,2018_may._08_1136,60.0186411262,Experimento Piloto1,001,111,
2.5,Stim\\03_078.jpg,Tr78_12,Tristeza,12,Ana compra el libro.,Afirmación,Tr78,78,,,,,0,107,107,107,,,,,,,,,4,2.5496469282,,,,,2018_may._08_1136,60.0186411262,Experimento Piloto1,001,111,
2.5,Stim\\05_019.jpg,En19_10,Enojo,10,Laura finaliza la obra.,Afirmación,En19,19,,,,,0,108,108,108,,,,,,,,,2,0.450337899348,,,,,2018_may._08_1136,60.0186411262,Experimento Piloto1,001,111,
2.5,Stim\\05_078.jpg,En78_15,Enojo,15,Ángel envía una carta a la abuela.,Afirmación,En78,78,,,,,0,109,109,109,,,,,,,,,2,0.48374182919,,,,,2018_may._08_1136,60.0186411262,Experimento Piloto1,001,111,
0.25,Stim\\02_028.jpg,Al28_15,Alegría,15,Ángel envía una carta a la abuela.,Afirmación,Al28,28,,,,,0,110,110,110,,,,,,,,,3,0.816913174326,,,,,2018_may._08_1136,60.0186411262,Experimento Piloto1,001,111,
2.5,Stim\\02_075.jpg,Al75_13,Alegría,13,Rocío consume alimentos nutritivos.,Afirmación,Al75,75,,,,,0,111,111,111,,,,,,,,,4,1.83320079754,,,,,2018_may._08_1136,60.0186411262,Experimento Piloto1,001,111,
2.5,Stim\\02_078.jpg,Al78_5,Alegría,5,Emilio revisa el formato del archivo.,Afirmación,Al78,78,,,,,0,112,112,112,,,,,,,,,3,2.69970154902,,,,,2018_may._08_1136,60.0186411262,Experimento Piloto1,001,111,
2.5,Stim\\05_019.jpg,En19_12,Enojo,12,Ana compra el libro.,Afirmación,En19,19,,,,,0,113,113,113,,,,,,,,,2,0.600217590758,,,,,2018_may._08_1136,60.0186411262,Experimento Piloto1,001,111,
2.5,Stim\\03_028.jpg,Tr28_13,Tristeza,13,Rocío consume alimentos nutritivos.,Afirmación,Tr28,28,,,,,0,114,114,114,,,,,,,,,4,1.10008282372,,,,,2018_may._08_1136,60.0186411262,Experimento Piloto1,001,111,
2.5,Stim\\02_075.jpg,Al75_1,Alegría,1,Juan colecciona monedas antiguas.,Afirmación,Al75,75,,,,,0,115,115,115,,,,,,,,,3,1.20047623638,,,,,2018_may._08_1136,60.0186411262,Experimento Piloto1,001,111,
2.5,Stim\\02_028.jpg,Al28_3,Alegría,3,Andrea diseña la portada del libro.,Afirmación,Al28,28,,,,,0,116,116,116,,,,,,,,,3,0.766801701456,,,,,2018_may._08_1136,60.0186411262,Experimento Piloto1,001,111,
0.25,Stim\\05_028.jpg,En28_10,Enojo,10,Laura finaliza la obra.,Afirmación,En28,28,,,,,0,117,117,117,,,,,,,,,2,1.10033629285,,,,,2018_may._08_1136,60.0186411262,Experimento Piloto1,001,111,
0.25,Stim\\02_078.jpg,Al78_3,Alegría,3,Andrea diseña la portada del libro.,Afirmación,Al78,78,,,,,0,118,118,118,,,,,,,,,3,3.41616062089,,,,,2018_may._08_1136,60.0186411262,Experimento Piloto1,001,111,
2.5,Stim\\03_075.jpg,Tr75_15,Tristeza,15,Ángel envía una carta a la abuela.,Afirmación,Tr75,75,,,,,0,119,119,119,,,,,,,,,4,1.11639499059,,,,,2018_may._08_1136,60.0186411262,Experimento Piloto1,001,111,
0.25,Stim\\03_028.jpg,Tr28_2,Tristeza,2,Jonathan pasea al perro.,Afirmación,Tr28,28,,,,,,,,,0,0,0,0,,,,,,,4,0.500348520061,,,2018_may._08_1136,60.0186411262,Experimento Piloto1,001,111,
2.5,Stim\\05_075.jpg,En75_12,Enojo,12,Ana compra el libro.,Afirmación,En75,75,,,,,,,,,0,1,1,1,,,,,,,2,0.383717910272,,,2018_may._08_1136,60.0186411262,Experimento Piloto1,001,111,
0.25,Stim\\02_078.jpg,Al78_11,Alegría,11,María asiste a la cena.,Afirmación,Al78,78,,,,,,,,,0,2,2,2,,,,,,,3,0.816938610489,,,2018_may._08_1136,60.0186411262,Experimento Piloto1,001,111,
0.25,Stim\\02_078.jpg,Al78_8,Alegría,8,Estefanía despierta a las 7 a.m.,Afirmación,Al78,78,,,,,,,,,0,3,3,3,,,,,,,3,0.450301753221,,,2018_may._08_1136,60.0186411262,Experimento Piloto1,001,111,
0.25,Stim\\05_028.jpg,En28_6,Enojo,6,Eduardo camina hacia la biblioteca.,Afirmación,En28,28,,,,,,,,,0,4,4,4,,,,,,,2,0.333794308011,,,2018_may._08_1136,60.0186411262,Experimento Piloto1,001,111,
0.25,Stim\\02_019.jpg,Al19_14,Alegría,14,Elizabeth elige la ropa un día antes.,Afirmación,Al19,19,,,,,,,,,0,5,5,5,,,,,,,3,0.450400374135,,,2018_may._08_1136,60.0186411262,Experimento Piloto1,001,111,
2.5,Stim\\05_078.jpg,En78_1,Enojo,1,Juan colecciona monedas antiguas.,Afirmación,En78,78,,,,,,,,,0,6,6,6,,,,,,,2,0.550250702395,,,2018_may._08_1136,60.0186411262,Experimento Piloto1,001,111,
2.5,Stim\\02_078.jpg,Al78_15,Alegría,15,Ángel envía una carta a la abuela.,Afirmación,Al78,78,,,,,,,,,0,7,7,7,,,,,,,3,1.26677983528,,,2018_may._08_1136,60.0186411262,Experimento Piloto1,001,111,
0.25,Stim\\02_075.jpg,Al75_14,Alegría,14,Elizabeth elige la ropa un día antes.,Afirmación,Al75,75,,,,,,,,,0,8,8,8,,,,,,,3,0.916524313402,,,2018_may._08_1136,60.0186411262,Experimento Piloto1,001,111,
2.5,Stim\\02_075.jpg,Al75_2,Alegría,2,Jonathan pasea al perro.,Afirmación,Al75,75,,,,,,,,,0,9,9,9,,,,,,,4,4.24916016036,,,2018_may._08_1136,60.0186411262,Experimento Piloto1,001,111,
0.25,Stim\\05_075.jpg,En75_12,Enojo,12,Ana compra el libro.,Afirmación,En75,75,,,,,,,,,0,10,10,10,,,,,,,2,0.383753163901,,,2018_may._08_1136,60.0186411262,Experimento Piloto1,001,111,
2.5,Stim\\03_078.jpg,Tr78_8,Tristeza,8,Estefanía despierta a las 7 a.m.,Afirmación,Tr78,78,,,,,,,,,0,11,11,11,,,,,,,2,0.40033129487,,,2018_may._08_1136,60.0186411262,Experimento Piloto1,001,111,
0.25,Stim\\03_078.jpg,Tr78_15,Tristeza,15,Ángel envía una carta a la abuela.,Afirmación,Tr78,78,,,,,,,,,0,12,12,12,,,,,,,2,0.383737098956,,,2018_may._08_1136,60.0186411262,Experimento Piloto1,001,111,
0.25,Stim\\03_078.jpg,Tr78_5,Tristeza,5,Emilio revisa el formato del archivo.,Afirmación,Tr78,78,,,,,,,,,0,13,13,13,,,,,,,2,0.433683906138,,,2018_may._08_1136,60.0186411262,Experimento Piloto1,001,111,
2.5,Stim\\02_019.jpg,Al19_5,Alegría,5,Emilio revisa el formato del archivo.,Afirmación,Al19,19,,,,,,,,,0,14,14,14,,,,,,,4,1.51675350662,,,2018_may._08_1136,60.0186411262,Experimento Piloto1,001,111,
2.5,Stim\\03_075.jpg,Tr75_10,Tristeza,10,Laura finaliza la obra.,Afirmación,Tr75,75,,,,,,,,,0,15,15,15,,,,,,,4,3.93261871102,,,2018_may._08_1136,60.0186411262,Experimento Piloto1,001,111,
2.5,Stim\\03_075.jpg,Tr75_4,Tristeza,4,Jorge sustituye a Gustavo cada sábado.,Afirmación,Tr75,75,,,,,,,,,0,16,16,16,,,,,,,3,8.69763764981,,,2018_may._08_1136,60.0186411262,Experimento Piloto1,001,111,
0.25,Stim\\03_028.jpg,Tr28_5,Tristeza,5,Emilio revisa el formato del archivo.,Afirmación,Tr28,28,,,,,,,,,0,17,17,17,,,,,,,3,2.94969842528,,,2018_may._08_1136,60.0186411262,Experimento Piloto1,001,111,
0.25,Stim\\05_075.jpg,En75_11,Enojo,11,María asiste a la cena.,Afirmación,En75,75,,,,,,,,,0,18,18,18,,,,,,,2,0.433642851278,,,2018_may._08_1136,60.0186411262,Experimento Piloto1,001,111,
0.25,Stim\\02_075.jpg,Al75_6,Alegría,6,Eduardo camina hacia la biblioteca.,Afirmación,Al75,75,,,,,,,,,0,19,19,19,,,,,,,3,0.916610439358,,,2018_may._08_1136,60.0186411262,Experimento Piloto1,001,111,
0.25,Stim\\05_078.jpg,En78_1,Enojo,1,Juan colecciona monedas antiguas.,Afirmación,En78,78,,,,,,,,,0,20,20,20,,,,,,,2,0.45031960316,,,2018_may._08_1136,60.0186411262,Experimento Piloto1,001,111,
2.5,Stim\\03_019.jpg,Tr19_4,Tristeza,4,Jorge sustituye a Gustavo cada sábado.,Afirmación,Tr19,19,,,,,,,,,0,21,21,21,,,,,,,2,0.550275246061,,,2018_may._08_1136,60.0186411262,Experimento Piloto1,001,111,
0.25,Stim\\03_028.jpg,Tr28_11,Tristeza,11,María asiste a la cena.,Afirmación,Tr28,28,,,,,,,,,0,22,22,22,,,,,,,4,0.599884689393,,,2018_may._08_1136,60.0186411262,Experimento Piloto1,001,111,
0.25,Stim\\02_019.jpg,Al19_7,Alegría,7,Roberto contesta los cuestionarios solicitados.,Afirmación,Al19,19,,,,,,,,,0,23,23,23,,,,,,,3,0.700249095901,,,2018_may._08_1136,60.0186411262,Experimento Piloto1,001,111,
0.25,Stim\\05_028.jpg,En28_1,Enojo,1,Juan colecciona monedas antiguas.,Afirmación,En28,28,,,,,,,,,0,24,24,24,,,,,,,2,0.600355035289,,,2018_may._08_1136,60.0186411262,Experimento Piloto1,001,111,
0.25,Stim\\03_019.jpg,Tr19_6,Tristeza,6,Eduardo camina hacia la biblioteca.,Afirmación,Tr19,19,,,,,,,,,0,25,25,25,,,,,,,2,0.333695240849,,,2018_may._08_1136,60.0186411262,Experimento Piloto1,001,111,
0.25,Stim\\03_078.jpg,Tr78_7,Tristeza,7,Roberto contesta los cuestionarios solicitados.,Afirmación,Tr78,78,,,,,,,,,0,26,26,26,,,,,,,4,4.99901825335,,,2018_may._08_1136,60.0186411262,Experimento Piloto1,001,111,
2.5,Stim\\03_019.jpg,Tr19_15,Tristeza,15,Ángel envía una carta a la abuela.,Afirmación,Tr19,19,,,,,,,,,0,27,27,27,,,,,,,2,0.383808498713,,,2018_may._08_1136,60.0186411262,Experimento Piloto1,001,111,
2.5,Stim\\02_028.jpg,Al28_4,Alegría,4,Jorge sustituye a Gustavo cada sábado.,Afirmación,Al28,28,,,,,,,,,0,28,28,28,,,,,,,4,2.3831659009,,,2018_may._08_1136,60.0186411262,Experimento Piloto1,001,111,
2.5,Stim\\03_078.jpg,Tr78_5,Tristeza,5,Emilio revisa el formato del archivo.,Afirmación,Tr78,78,,,,,,,,,0,29,29,29,,,,,,,3,1.31665345771,,,2018_may._08_1136,60.0186411262,Experimento Piloto1,001,111,
2.5,Stim\\03_028.jpg,Tr28_12,Tristeza,12,Ana compra el libro.,Afirmación,Tr28,28,,,,,,,,,0,30,30,30,,,,,,,4,0.950103618897,,,2018_may._08_1136,60.0186411262,Experimento Piloto1,001,111,
0.25,Stim\\02_028.jpg,Al28_2,Alegría,2,Jonathan pasea al perro.,Afirmación,Al28,28,,,,,,,,,0,31,31,31,,,,,,,3,0.500409209855,,,2018_may._08_1136,60.0186411262,Experimento Piloto1,001,111,
0.25,Stim\\05_019.jpg,En19_8,Enojo,8,Estefanía despierta a las 7 a.m.,Afirmación,En19,19,,,,,,,,,0,32,32,32,,,,,,,2,0.333634104808,,,2018_may._08_1136,60.0186411262,Experimento Piloto1,001,111,
0.25,Stim\\03_019.jpg,Tr19_9,Tristeza,9,Marco colabora en la organización del evento.,Afirmación,Tr19,19,,,,,,,,,0,33,33,33,,,,,,,2,1.78323792541,,,2018_may._08_1136,60.0186411262,Experimento Piloto1,001,111,
2.5,Stim\\02_078.jpg,Al78_10,Alegría,10,Laura finaliza la obra.,Afirmación,Al78,78,,,,,,,,,0,34,34,34,,,,,,,3,1.38305121505,,,2018_may._08_1136,60.0186411262,Experimento Piloto1,001,111,
2.5,Stim\\02_075.jpg,Al75_15,Alegría,15,Ángel envía una carta a la abuela.,Afirmación,Al75,75,,,,,,,,,0,35,35,35,,,,,,,4,1.1001037974,,,2018_may._08_1136,60.0186411262,Experimento Piloto1,001,111,
2.5,Stim\\03_028.jpg,Tr28_6,Tristeza,6,Eduardo camina hacia la biblioteca.,Afirmación,Tr28,28,,,,,,,,,0,36,36,36,,,,,,,4,2.59967986134,,,2018_may._08_1136,60.0186411262,Experimento Piloto1,001,111,
0.25,Stim\\03_075.jpg,Tr75_14,Tristeza,14,Elizabeth elige la ropa un día antes.,Afirmación,Tr75,75,,,,,,,,,0,37,37,37,,,,,,,3,2.03321918297,,,2018_may._08_1136,60.0186411262,Experimento Piloto1,001,111,
2.5,Stim\\05_075.jpg,En75_13,Enojo,13,Rocío consume alimentos nutritivos.,Afirmación,En75,75,,,,,,,,,0,38,38,38,,,,,,,2,0.333887573944,,,2018_may._08_1136,60.0186411262,Experimento Piloto1,001,111,
2.5,Stim\\03_075.jpg,Tr75_8,Tristeza,8,Estefanía despierta a las 7 a.m.,Afirmación,Tr75,75,,,,,,,,,0,39,39,39,,,,,,,4,1.71688613167,,,2018_may._08_1136,60.0186411262,Experimento Piloto1,001,111,
0.25,Stim\\05_075.jpg,En75_7,Enojo,7,Roberto contesta los cuestionarios solicitados.,Afirmación,En75,75,,,,,,,,,0,40,40,40,,,,,,,3,2.54986960619,,,2018_may._08_1136,60.0186411262,Experimento Piloto1,001,111,
2.5,Stim\\03_019.jpg,Tr19_10,Tristeza,10,Laura finaliza la obra.,Afirmación,Tr19,19,,,,,,,,,0,41,41,41,,,,,,,2,1.16666131168,,,2018_may._08_1136,60.0186411262,Experimento Piloto1,001,111,
2.5,Stim\\03_019.jpg,Tr19_2,Tristeza,2,Jonathan pasea al perro.,Afirmación,Tr19,19,,,,,,,,,0,42,42,42,,,,,,,2,0.500243205421,,,2018_may._08_1136,60.0186411262,Experimento Piloto1,001,111,
0.25,Stim\\03_075.jpg,Tr75_15,Tristeza,15,Ángel envía una carta a la abuela.,Afirmación,Tr75,75,,,,,,,,,0,43,43,43,,,,,,,4,0.583771995588,,,2018_may._08_1136,60.0186411262,Experimento Piloto1,001,111,
0.25,Stim\\05_019.jpg,En19_1,Enojo,1,Juan colecciona monedas antiguas.,Afirmación,En19,19,,,,,,,,,0,44,44,44,,,,,,,2,0.43365980872,,,2018_may._08_1136,60.0186411262,Experimento Piloto1,001,111,
0.25,Stim\\03_078.jpg,Tr78_2,Tristeza,2,Jonathan pasea al perro.,Afirmación,Tr78,78,,,,,,,,,0,45,45,45,,,,,,,4,1.83326684231,,,2018_may._08_1136,60.0186411262,Experimento Piloto1,001,111,
2.5,Stim\\02_019.jpg,Al19_9,Alegría,9,Marco colabora en la organización del evento.,Afirmación,Al19,19,,,,,,,,,0,46,46,46,,,,,,,3,0.800249809899,,,2018_may._08_1136,60.0186411262,Experimento Piloto1,001,111,
2.5,Stim\\03_028.jpg,Tr28_11,Tristeza,11,María asiste a la cena.,Afirmación,Tr28,28,,,,,,,,,0,47,47,47,,,,,,,4,0.700349948057,,,2018_may._08_1136,60.0186411262,Experimento Piloto1,001,111,
2.5,Stim\\05_078.jpg,En78_6,Enojo,6,Eduardo camina hacia la biblioteca.,Afirmación,En78,78,,,,,,,,,0,48,48,48,,,,,,,2,1.26663301953,,,2018_may._08_1136,60.0186411262,Experimento Piloto1,001,111,
2.5,Stim\\02_028.jpg,Al28_14,Alegría,14,Elizabeth elige la ropa un día antes.,Afirmación,Al28,28,,,,,,,,,0,49,49,49,,,,,,,3,0.350280958042,,,2018_may._08_1136,60.0186411262,Experimento Piloto1,001,111,
0.25,Stim\\03_019.jpg,Tr19_10,Tristeza,10,Laura finaliza la obra.,Afirmación,Tr19,19,,,,,,,,,0,50,50,50,,,,,,,2,0.433772263337,,,2018_may._08_1136,60.0186411262,Experimento Piloto1,001,111,
2.5,Stim\\05_019.jpg,En19_2,Enojo,2,Jonathan pasea al perro.,Afirmación,En19,19,,,,,,,,,0,51,51,51,,,,,,,2,1.21676653708,,,2018_may._08_1136,60.0186411262,Experimento Piloto1,001,111,
0.25,Stim\\05_078.jpg,En78_5,Enojo,5,Emilio revisa el formato del archivo.,Afirmación,En78,78,,,,,,,,,0,52,52,52,,,,,,,3,0.30048096661,,,2018_may._08_1136,60.0186411262,Experimento Piloto1,001,111,
2.5,Stim\\02_075.jpg,Al75_5,Alegría,5,Emilio revisa el formato del archivo.,Afirmación,Al75,75,,,,,,,,,0,53,53,53,,,,,,,4,0.700301753221,,,2018_may._08_1136,60.0186411262,Experimento Piloto1,001,111,
0.25,Stim\\05_028.jpg,En28_9,Enojo,9,Marco colabora en la organización del evento.,Afirmación,En28,28,,,,,,,,,0,54,54,54,,,,,,,2,1.16651226469,,,2018_may._08_1136,60.0186411262,Experimento Piloto1,001,111,
2.5,Stim\\03_019.jpg,Tr19_1,Tristeza,1,Juan colecciona monedas antiguas.,Afirmación,Tr19,19,,,,,,,,,0,55,55,55,,,,,,,3,3.93236702688,,,2018_may._08_1136,60.0186411262,Experimento Piloto1,001,111,
0.25,Stim\\02_028.jpg,Al28_3,Alegría,3,Andrea diseña la portada del libro.,Afirmación,Al28,28,,,,,,,,,0,56,56,56,,,,,,,3,0.583738526952,,,2018_may._08_1136,60.0186411262,Experimento Piloto1,001,111,
0.25,Stim\\05_028.jpg,En28_5,Enojo,5,Emilio revisa el formato del archivo.,Afirmación,En28,28,,,,,,,,,0,57,57,57,,,,,,,2,0.450256682125,,,2018_may._08_1136,60.0186411262,Experimento Piloto1,001,111,
2.5,Stim\\03_078.jpg,Tr78_15,Tristeza,15,Ángel envía una carta a la abuela.,Afirmación,Tr78,78,,,,,,,,,0,58,58,58,,,,,,,4,0.450337899348,,,2018_may._08_1136,60.0186411262,Experimento Piloto1,001,111,
0.25,Stim\\02_078.jpg,Al78_10,Alegría,10,Laura finaliza la obra.,Afirmación,Al78,78,,,,,,,,,0,59,59,59,,,,,,,3,1.05025650363,,,2018_may._08_1136,60.0186411262,Experimento Piloto1,001,111,
0.25,Stim\\03_075.jpg,Tr75_7,Tristeza,7,Roberto contesta los cuestionarios solicitados.,Afirmación,Tr75,75,,,,,,,,,0,60,60,60,,,,,,,4,0.500314605177,,,2018_may._08_1136,60.0186411262,Experimento Piloto1,001,111,
0.25,Stim\\03_075.jpg,Tr75_5,Tristeza,5,Emilio revisa el formato del archivo.,Afirmación,Tr75,75,,,,,,,,,0,61,61,61,,,,,,,4,2.19979124496,,,2018_may._08_1136,60.0186411262,Experimento Piloto1,001,111,
0.25,Stim\\05_075.jpg,En75_14,Enojo,14,Elizabeth elige la ropa un día antes.,Afirmación,En75,75,,,,,,,,,0,62,62,62,,,,,,,2,1.10009487243,,,2018_may._08_1136,60.0186411262,Experimento Piloto1,001,111,
0.25,Stim\\05_075.jpg,En75_2,Enojo,2,Jonathan pasea al perro.,Afirmación,En75,75,,,,,,,,,0,63,63,63,,,,,,,2,0.500393591158,,,2018_may._08_1136,60.0186411262,Experimento Piloto1,001,111,
0.25,Stim\\02_078.jpg,Al78_6,Alegría,6,Eduardo camina hacia la biblioteca.,Afirmación,Al78,78,,,,,,,,,0,64,64,64,,,,,,,3,0.800242223674,,,2018_may._08_1136,60.0186411262,Experimento Piloto1,001,111,
0.25,Stim\\03_075.jpg,Tr75_4,Tristeza,4,Jorge sustituye a Gustavo cada sábado.,Afirmación,Tr75,75,,,,,,,,,0,65,65,65,,,,,,,3,1.36706391706,,,2018_may._08_1136,60.0186411262,Experimento Piloto1,001,111,
0.25,Stim\\03_075.jpg,Tr75_3,Tristeza,3,Andrea diseña la portada del libro.,Afirmación,Tr75,75,,,,,,,,,0,66,66,66,,,,,,,3,0.700152259981,,,2018_may._08_1136,60.0186411262,Experimento Piloto1,001,111,
0.25,Stim\\02_028.jpg,Al28_10,Alegría,10,Laura finaliza la obra.,Afirmación,Al28,28,,,,,,,,,0,67,67,67,,,,,,,3,0.450248203404,,,2018_may._08_1136,60.0186411262,Experimento Piloto1,001,111,
0.25,Stim\\03_028.jpg,Tr28_12,Tristeza,12,Ana compra el libro.,Afirmación,Tr28,28,,,,,,,,,0,68,68,68,,,,,,,4,0.384185132429,,,2018_may._08_1136,60.0186411262,Experimento Piloto1,001,111,
0.25,Stim\\03_075.jpg,Tr75_10,Tristeza,10,Laura finaliza la obra.,Afirmación,Tr75,75,,,,,,,,,0,69,69,69,,,,,,,4,0.700075505243,,,2018_may._08_1136,60.0186411262,Experimento Piloto1,001,111,
0.25,Stim\\02_028.jpg,Al28_8,Alegría,8,Estefanía despierta a las 7 a.m.,Afirmación,Al28,28,,,,,,,,,0,70,70,70,,,,,,,3,0.400288455016,,,2018_may._08_1136,60.0186411262,Experimento Piloto1,001,111,
0.25,Stim\\05_078.jpg,En78_14,Enojo,14,Elizabeth elige la ropa un día antes.,Afirmación,En78,78,,,,,,,,,0,71,71,71,,,,,,,2,0.400274621314,,,2018_may._08_1136,60.0186411262,Experimento Piloto1,001,111,
2.5,Stim\\03_078.jpg,Tr78_9,Tristeza,9,Marco colabora en la organización del evento.,Afirmación,Tr78,78,,,,,,,,,0,72,72,72,,,,,,,4,0.400456690692,,,2018_may._08_1136,60.0186411262,Experimento Piloto1,001,111,
0.25,Stim\\02_019.jpg,Al19_3,Alegría,3,Andrea diseña la portada del libro.,Afirmación,Al19,19,,,,,,,,,0,73,73,73,,,,,,,3,0.433707111059,,,2018_may._08_1136,60.0186411262,Experimento Piloto1,001,111,
0.25,Stim\\03_078.jpg,Tr78_6,Tristeza,6,Eduardo camina hacia la biblioteca.,Afirmación,Tr78,78,,,,,,,,,0,74,74,74,,,,,,,4,1.16685096729,,,2018_may._08_1136,60.0186411262,Experimento Piloto1,001,111,
0.25,Stim\\03_028.jpg,Tr28_8,Tristeza,8,Estefanía despierta a las 7 a.m.,Afirmación,Tr28,28,,,,,,,,,0,75,75,75,,,,,,,3,1.11652083266,,,2018_may._08_1136,60.0186411262,Experimento Piloto1,001,111,
2.5,Stim\\05_078.jpg,En78_9,Enojo,9,Marco colabora en la organización del evento.,Afirmación,En78,78,,,,,,,,,0,76,76,76,,,,,,,2,0.650293809998,,,2018_may._08_1136,60.0186411262,Experimento Piloto1,001,111,
2.5,Stim\\02_028.jpg,Al28_6,Alegría,6,Eduardo camina hacia la biblioteca.,Afirmación,Al28,28,,,,,,,,,0,77,77,77,,,,,,,3,0.483698543088,,,2018_may._08_1136,60.0186411262,Experimento Piloto1,001,111,
2.5,Stim\\03_078.jpg,Tr78_6,Tristeza,6,Eduardo camina hacia la biblioteca.,Afirmación,Tr78,78,,,,,,,,,0,78,78,78,,,,,,,4,0.900266588841,,,2018_may._08_1136,60.0186411262,Experimento Piloto1,001,111,
2.5,Stim\\02_078.jpg,Al78_2,Alegría,2,Jonathan pasea al perro.,Afirmación,Al78,78,,,,,,,,,0,79,79,79,,,,,,,3,0.450499441297,,,2018_may._08_1136,60.0186411262,Experimento Piloto1,001,111,
2.5,Stim\\02_028.jpg,Al28_10,Alegría,10,Laura finaliza la obra.,Afirmación,Al28,28,,,,,,,,,0,80,80,80,,,,,,,3,0.500290061511,,,2018_may._08_1136,60.0186411262,Experimento Piloto1,001,111,
2.5,Stim\\02_019.jpg,Al19_15,Alegría,15,Ángel envía una carta a la abuela.,Afirmación,Al19,19,,,,,,,,,0,81,81,81,,,,,,,4,1.88326407557,,,2018_may._08_1136,60.0186411262,Experimento Piloto1,001,111,
0.25,Stim\\03_019.jpg,Tr19_5,Tristeza,5,Emilio revisa el formato del archivo.,Afirmación,Tr19,19,,,,,,,,,0,82,82,82,,,,,,,2,0.334110251934,,,2018_may._08_1136,60.0186411262,Experimento Piloto1,001,111,
0.25,Stim\\02_075.jpg,Al75_12,Alegría,12,Ana compra el libro.,Afirmación,Al75,75,,,,,,,,,0,83,83,83,,,,,,,3,0.800335935854,,,2018_may._08_1136,60.0186411262,Experimento Piloto1,001,111,
2.5,Stim\\05_078.jpg,En78_3,Enojo,3,Andrea diseña la portada del libro.,Afirmación,En78,78,,,,,,,,,0,84,84,84,,,,,,,2,0.40065973375,,,2018_may._08_1136,60.0186411262,Experimento Piloto1,001,111,
2.5,Stim\\03_075.jpg,Tr75_5,Tristeza,5,Emilio revisa el formato del archivo.,Afirmación,Tr75,75,,,,,,,,,0,85,85,85,,,,,,,2,0.400327724883,,,2018_may._08_1136,60.0186411262,Experimento Piloto1,001,111,
2.5,Stim\\05_028.jpg,En28_2,Enojo,2,Jonathan pasea al perro.,Afirmación,En28,28,,,,,,,,,0,86,86,86,,,,,,,2,0.450323619396,,,2018_may._08_1136,60.0186411262,Experimento Piloto1,001,111,
0.25,Stim\\03_028.jpg,Tr28_9,Tristeza,9,Marco colabora en la organización del evento.,Afirmación,Tr28,28,,,,,,,,,0,87,87,87,,,,,,,3,0.900133606794,,,2018_may._08_1136,60.0186411262,Experimento Piloto1,001,111,
0.25,Stim\\03_078.jpg,Tr78_9,Tristeza,9,Marco colabora en la organización del evento.,Afirmación,Tr78,78,,,,,,,,,0,88,88,88,,,,,,,3,0.650250077647,,,2018_may._08_1136,60.0186411262,Experimento Piloto1,001,111,
2.5,Stim\\03_075.jpg,Tr75_12,Tristeza,12,Ana compra el libro.,Afirmación,Tr75,75,,,,,,,,,0,89,89,89,,,,,,,4,0.550279708546,,,2018_may._08_1136,60.0186411262,Experimento Piloto1,001,111,
2.5,Stim\\05_078.jpg,En78_11,Enojo,11,María asiste a la cena.,Afirmación,En78,78,,,,,,,,,0,90,90,90,,,,,,,2,0.6503812747,,,2018_may._08_1136,60.0186411262,Experimento Piloto1,001,111,
2.5,Stim\\02_075.jpg,Al75_14,Alegría,14,Elizabeth elige la ropa un día antes.,Afirmación,Al75,75,,,,,,,,,0,91,91,91,,,,,,,3,8.94777509434,,,2018_may._08_1136,60.0186411262,Experimento Piloto1,001,111,
0.25,Stim\\03_019.jpg,Tr19_7,Tristeza,7,Roberto contesta los cuestionarios solicitados.,Afirmación,Tr19,19,,,,,,,,,0,92,92,92,,,,,,,4,3.26593330192,,,2018_may._08_1136,60.0186411262,Experimento Piloto1,001,111,
0.25,Stim\\05_075.jpg,En75_5,Enojo,5,Emilio revisa el formato del archivo.,Afirmación,En75,75,,,,,,,,,0,93,93,93,,,,,,,2,0.48369229561,,,2018_may._08_1136,60.0186411262,Experimento Piloto1,001,111,
2.5,Stim\\05_019.jpg,En19_14,Enojo,14,Elizabeth elige la ropa un día antes.,Afirmación,En19,19,,,,,,,,,0,94,94,94,,,,,,,2,0.40018760286,,,2018_may._08_1136,60.0186411262,Experimento Piloto1,001,111,
0.25,Stim\\02_075.jpg,Al75_2,Alegría,2,Jonathan pasea al perro.,Afirmación,Al75,75,,,,,,,,,0,95,95,95,,,,,,,3,0.450314248179,,,2018_may._08_1136,60.0186411262,Experimento Piloto1,001,111,
2.5,Stim\\03_028.jpg,Tr28_10,Tristeza,10,Laura finaliza la obra.,Afirmación,Tr28,28,,,,,,,,,0,96,96,96,,,,,,,3,3.36615803265,,,2018_may._08_1136,60.0186411262,Experimento Piloto1,001,111,
2.5,Stim\\02_078.jpg,Al78_3,Alegría,3,Andrea diseña la portada del libro.,Afirmación,Al78,78,,,,,,,,,0,97,97,97,,,,,,,3,1.38293563669,,,2018_may._08_1136,60.0186411262,Experimento Piloto1,001,111,
2.5,Stim\\05_075.jpg,En75_3,Enojo,3,Andrea diseña la portada del libro.,Afirmación,En75,75,,,,,,,,,0,98,98,98,,,,,,,4,0.533607419149,,,2018_may._08_1136,60.0186411262,Experimento Piloto1,001,111,
2.5,Stim\\03_075.jpg,Tr75_3,Tristeza,3,Andrea diseña la portada del libro.,Afirmación,Tr75,75,,,,,,,,,0,99,99,99,,,,,,,3,0.434003420048,,,2018_may._08_1136,60.0186411262,Experimento Piloto1,001,111,
2.5,Stim\\03_075.jpg,Tr75_7,Tristeza,7,Roberto contesta los cuestionarios solicitados.,Afirmación,Tr75,75,,,,,,,,,0,100,100,100,,,,,,,3,0.650254093884,,,2018_may._08_1136,60.0186411262,Experimento Piloto1,001,111,
2.5,Stim\\03_019.jpg,Tr19_14,Tristeza,14,Elizabeth elige la ropa un día antes.,Afirmación,Tr19,19,,,,,,,,,0,101,101,101,,,,,,,4,4.03251366413,,,2018_may._08_1136,60.0186411262,Experimento Piloto1,001,111,
2.5,Stim\\05_078.jpg,En78_5,Enojo,5,Emilio revisa el formato del archivo.,Afirmación,En78,78,,,,,,,,,0,102,102,102,,,,,,,2,0.65025811012,,,2018_may._08_1136,60.0186411262,Experimento Piloto1,001,111,
2.5,Stim\\02_078.jpg,Al78_12,Alegría,12,Ana compra el libro.,Afirmación,Al78,78,,,,,,,,,0,103,103,103,,,,,,,3,0.650486143092,,,2018_may._08_1136,60.0186411262,Experimento Piloto1,001,111,
2.5,Stim\\02_028.jpg,Al28_13,Alegría,13,Rocío consume alimentos nutritivos.,Afirmación,Al28,28,,,,,,,,,0,104,104,104,,,,,,,3,0.45044276774,,,2018_may._08_1136,60.0186411262,Experimento Piloto1,001,111,
2.5,Stim\\05_028.jpg,En28_4,Enojo,4,Jorge sustituye a Gustavo cada sábado.,Afirmación,En28,28,,,,,,,,,0,105,105,105,,,,,,,2,0.550362710763,,,2018_may._08_1136,60.0186411262,Experimento Piloto1,001,111,
0.25,Stim\\02_028.jpg,Al28_7,Alegría,7,Roberto contesta los cuestionarios solicitados.,Afirmación,Al28,28,,,,,,,,,0,106,106,106,,,,,,,3,1.16689871588,,,2018_may._08_1136,60.0186411262,Experimento Piloto1,001,111,
0.25,Stim\\02_078.jpg,Al78_12,Alegría,12,Ana compra el libro.,Afirmación,Al78,78,,,,,,,,,0,107,107,107,,,,,,,3,1.11676671558,,,2018_may._08_1136,60.0186411262,Experimento Piloto1,001,111,
2.5,Stim\\02_028.jpg,Al28_7,Alegría,7,Roberto contesta los cuestionarios solicitados.,Afirmación,Al28,28,,,,,,,,,0,108,108,108,,,,,,,3,0.383648741758,,,2018_may._08_1136,60.0186411262,Experimento Piloto1,001,111,
0.25,Stim\\02_075.jpg,Al75_7,Alegría,7,Roberto contesta los cuestionarios solicitados.,Afirmación,Al75,75,,,,,,,,,0,109,109,109,,,,,,,3,0.700204471053,,,2018_may._08_1136,60.0186411262,Experimento Piloto1,001,111,
0.25,Stim\\05_075.jpg,En75_10,Enojo,10,Laura finaliza la obra.,Afirmación,En75,75,,,,,,,,,0,110,110,110,,,,,,,4,1.16672467897,,,2018_may._08_1136,60.0186411262,Experimento Piloto1,001,111,
2.5,Stim\\05_028.jpg,En28_8,Enojo,8,Estefanía despierta a las 7 a.m.,Afirmación,En28,28,,,,,,,,,0,111,111,111,,,,,,,2,0.600248381903,,,2018_may._08_1136,60.0186411262,Experimento Piloto1,001,111,
0.25,Stim\\03_075.jpg,Tr75_6,Tristeza,6,Eduardo camina hacia la biblioteca.,Afirmación,Tr75,75,,,,,,,,,0,112,112,112,,,,,,,4,4.3326398632,,,2018_may._08_1136,60.0186411262,Experimento Piloto1,001,111,
0.25,Stim\\02_078.jpg,Al78_4,Alegría,4,Jorge sustituye a Gustavo cada sábado.,Afirmación,Al78,78,,,,,,,,,0,113,113,113,,,,,,,3,3.31608002842,,,2018_may._08_1136,60.0186411262,Experimento Piloto1,001,111,
2.5,Stim\\02_019.jpg,Al19_13,Alegría,13,Rocío consume alimentos nutritivos.,Afirmación,Al19,19,,,,,,,,,0,114,114,114,,,,,,,3,1.51718369015,,,2018_may._08_1136,60.0186411262,Experimento Piloto1,001,111,
0.25,Stim\\02_078.jpg,Al78_15,Alegría,15,Ángel envía una carta a la abuela.,Afirmación,Al78,78,,,,,,,,,0,115,115,115,,,,,,,3,0.333798324248,,,2018_may._08_1136,60.0186411262,Experimento Piloto1,001,111,
2.5,Stim\\05_019.jpg,En19_4,Enojo,4,Jorge sustituye a Gustavo cada sábado.,Afirmación,En19,19,,,,,,,,,0,116,116,116,,,,,,,2,0.483892661176,,,2018_may._08_1136,60.0186411262,Experimento Piloto1,001,111,
2.5,Stim\\05_075.jpg,En75_9,Enojo,9,Marco colabora en la organización del evento.,Afirmación,En75,75,,,,,,,,,0,117,117,117,,,,,,,2,0.350359944022,,,2018_may._08_1136,60.0186411262,Experimento Piloto1,001,111,
0.25,Stim\\05_078.jpg,En78_8,Enojo,8,Estefanía despierta a las 7 a.m.,Afirmación,En78,78,,,,,,,,,0,118,118,118,,,,,,,2,0.450332544366,,,2018_may._08_1136,60.0186411262,Experimento Piloto1,001,111,
0.25,Stim\\03_075.jpg,Tr75_12,Tristeza,12,Ana compra el libro.,Afirmación,Tr75,75,,,,,,,,,0,119,119,119,,,,,,,3,3.36620711998,,,2018_may._08_1136,60.0186411262,Experimento Piloto1,001,111,
2.5,Stim\\03_028.jpg,Tr28_1,Tristeza,1,Juan colecciona monedas antiguas.,Afirmación,Tr28,28,,,,,,,,,,,,,0,0,0,0,,,,,3,0.400216162763,2018_may._08_1136,60.0186411262,Experimento Piloto1,001,111,
0.25,Stim\\03_019.jpg,Tr19_1,Tristeza,1,Juan colecciona monedas antiguas.,Afirmación,Tr19,19,,,,,,,,,,,,,0,1,1,1,,,,,4,0.533968880416,2018_may._08_1136,60.0186411262,Experimento Piloto1,001,111,
2.5,Stim\\03_078.jpg,Tr78_10,Tristeza,10,Laura finaliza la obra.,Afirmación,Tr78,78,,,,,,,,,,,,,0,2,2,2,,,,,3,0.433840985602,2018_may._08_1136,60.0186411262,Experimento Piloto1,001,111,
0.25,Stim\\02_075.jpg,Al75_5,Alegría,5,Emilio revisa el formato del archivo.,Afirmación,Al75,75,,,,,,,,,,,,,0,3,3,3,,,,,2,6.13191238893,2018_may._08_1136,60.0186411262,Experimento Piloto1,001,111,
0.25,Stim\\02_019.jpg,Al19_15,Alegría,15,Ángel envía una carta a la abuela.,Afirmación,Al19,19,,,,,,,,,,,,,0,4,4,4,,,,,3,0.850134588541,2018_may._08_1136,60.0186411262,Experimento Piloto1,001,111,
2.5,Stim\\02_075.jpg,Al75_7,Alegría,7,Roberto contesta los cuestionarios solicitados.,Afirmación,Al75,75,,,,,,,,,,,,,0,5,5,5,,,,,2,0.333745220679,2018_may._08_1136,60.0186411262,Experimento Piloto1,001,111,
0.25,Stim\\03_075.jpg,Tr75_8,Tristeza,8,Estefanía despierta a las 7 a.m.,Afirmación,Tr75,75,,,,,,,,,,,,,0,6,6,6,,,,,4,0.750244990415,2018_may._08_1136,60.0186411262,Experimento Piloto1,001,111,
0.25,Stim\\02_019.jpg,Al19_11,Alegría,11,María asiste a la cena.,Afirmación,Al19,19,,,,,,,,,,,,,0,7,7,7,,,,,3,0.850180105886,2018_may._08_1136,60.0186411262,Experimento Piloto1,001,111,
2.5,Stim\\02_019.jpg,Al19_2,Alegría,2,Jonathan pasea al perro.,Afirmación,Al19,19,,,,,,,,,,,,,0,8,8,8,,,,,3,0.300279708546,2018_may._08_1136,60.0186411262,Experimento Piloto1,001,111,
2.5,Stim\\05_075.jpg,En75_5,Enojo,5,Emilio revisa el formato del archivo.,Afirmación,En75,75,,,,,,,,,,,,,0,9,9,9,,,,,4,24.2430465562,2018_may._08_1136,60.0186411262,Experimento Piloto1,001,111,
0.25,Stim\\03_078.jpg,Tr78_10,Tristeza,10,Laura finaliza la obra.,Afirmación,Tr78,78,,,,,,,,,,,,,0,10,10,10,,,,,3,0.450303538215,2018_may._08_1136,60.0186411262,Experimento Piloto1,001,111,
0.25,Stim\\02_019.jpg,Al19_6,Alegría,6,Eduardo camina hacia la biblioteca.,Afirmación,Al19,19,,,,,,,,,,,,,0,11,11,11,,,,,3,0.600335846605,2018_may._08_1136,60.0186411262,Experimento Piloto1,001,111,
2.5,Stim\\05_019.jpg,En19_3,Enojo,3,Andrea diseña la portada del libro.,Afirmación,En19,19,,,,,,,,,,,,,0,12,12,12,,,,,3,3.01629610193,2018_may._08_1136,60.0186411262,Experimento Piloto1,001,111,
0.25,Stim\\05_019.jpg,En19_3,Enojo,3,Andrea diseña la portada del libro.,Afirmación,En19,19,,,,,,,,,,,,,0,13,13,13,,,,,3,1.216787957,2018_may._08_1136,60.0186411262,Experimento Piloto1,001,111,
2.5,Stim\\02_028.jpg,Al28_1,Alegría,1,Juan colecciona monedas antiguas.,Afirmación,Al28,28,,,,,,,,,,,,,0,14,14,14,,,,,3,0.800355570787,2018_may._08_1136,60.0186411262,Experimento Piloto1,001,111,
0.25,Stim\\02_019.jpg,Al19_2,Alegría,2,Jonathan pasea al perro.,Afirmación,Al19,19,,,,,,,,,,,,,0,15,15,15,,,,,3,0.550385469435,2018_may._08_1136,60.0186411262,Experimento Piloto1,001,111,
0.25,Stim\\05_028.jpg,En28_11,Enojo,11,María asiste a la cena.,Afirmación,En28,28,,,,,,,,,,,,,0,16,16,16,,,,,4,0.350473291136,2018_may._08_1136,60.0186411262,Experimento Piloto1,001,111,
0.25,Stim\\03_028.jpg,Tr28_1,Tristeza,1,Juan colecciona monedas antiguas.,Afirmación,Tr28,28,,,,,,,,,,,,,0,17,17,17,,,,,3,0.333573861263,2018_may._08_1136,60.0186411262,Experimento Piloto1,001,111,
0.25,Stim\\03_078.jpg,Tr78_1,Tristeza,1,Juan colecciona monedas antiguas.,Afirmación,Tr78,78,,,,,,,,,,,,,0,18,18,18,,,,,3,0.300511311506,2018_may._08_1136,60.0186411262,Experimento Piloto1,001,111,
0.25,Stim\\02_019.jpg,Al19_1,Alegría,1,Juan colecciona monedas antiguas.,Afirmación,Al19,19,,,,,,,,,,,,,0,19,19,19,,,,,3,0.750260162863,2018_may._08_1136,60.0186411262,Experimento Piloto1,001,111,
0.25,Stim\\02_019.jpg,Al19_10,Alegría,10,Laura finaliza la obra.,Afirmación,Al19,19,,,,,,,,,,,,,0,20,20,20,,,,,3,0.383629999322,2018_may._08_1136,60.0186411262,Experimento Piloto1,001,111,
2.5,Stim\\03_019.jpg,Tr19_13,Tristeza,13,Rocío consume alimentos nutritivos.,Afirmación,Tr19,19,,,,,,,,,,,,,0,21,21,21,,,,,2,3.73262754674,2018_may._08_1136,60.0186411262,Experimento Piloto1,001,111,
2.5,Stim\\05_075.jpg,En75_6,Enojo,6,Eduardo camina hacia la biblioteca.,Afirmación,En75,75,,,,,,,,,,,,,0,22,22,22,,,,,4,0.550412690593,2018_may._08_1136,60.0186411262,Experimento Piloto1,001,111,
0.25,Stim\\05_078.jpg,En78_10,Enojo,10,Laura finaliza la obra.,Afirmación,En78,78,,,,,,,,,,,,,0,23,23,23,,,,,4,2.6497516181,2018_may._08_1136,60.0186411262,Experimento Piloto1,001,111,
2.5,Stim\\05_075.jpg,En75_14,Enojo,14,Elizabeth elige la ropa un día antes.,Afirmación,En75,75,,,,,,,,,,,,,0,24,24,24,,,,,4,0.450515059993,2018_may._08_1136,60.0186411262,Experimento Piloto1,001,111,
0.25,Stim\\05_019.jpg,En19_7,Enojo,7,Roberto contesta los cuestionarios solicitados.,Afirmación,En19,19,,,,,,,,,,,,,0,25,25,25,,,,,4,0.433694616101,2018_may._08_1136,60.0186411262,Experimento Piloto1,001,111,
0.25,Stim\\02_078.jpg,Al78_14,Alegría,14,Elizabeth elige la ropa un día antes.,Afirmación,Al78,78,,,,,,,,,,,,,0,26,26,26,,,,,3,0.333775565576,2018_may._08_1136,60.0186411262,Experimento Piloto1,001,111,
0.25,Stim\\03_028.jpg,Tr28_13,Tristeza,13,Rocío consume alimentos nutritivos.,Afirmación,Tr28,28,,,,,,,,,,,,,0,27,27,27,,,,,3,0.283785026043,2018_may._08_1136,60.0186411262,Experimento Piloto1,001,111,
2.5,Stim\\03_019.jpg,Tr19_8,Tristeza,8,Estefanía despierta a las 7 a.m.,Afirmación,Tr19,19,,,,,,,,,,,,,0,28,28,28,,,,,4,7.11478537233,2018_may._08_1136,60.0186411262,Experimento Piloto1,001,111,
2.5,Stim\\02_019.jpg,Al19_8,Alegría,8,Estefanía despierta a las 7 a.m.,Afirmación,Al19,19,,,,,,,,,,,,,0,29,29,29,,,,,3,0.283727459989,2018_may._08_1136,60.0186411262,Experimento Piloto1,001,111,
2.5,Stim\\02_028.jpg,Al28_9,Alegría,9,Marco colabora en la organización del evento.,Afirmación,Al28,28,,,,,,,,,,,,,0,30,30,30,,,,,3,0.2838122472,2018_may._08_1136,60.0186411262,Experimento Piloto1,001,111,
2.5,Stim\\03_075.jpg,Tr75_1,Tristeza,1,Juan colecciona monedas antiguas.,Afirmación,Tr75,75,,,,,,,,,,,,,0,31,31,31,,,,,3,0.333703273322,2018_may._08_1136,60.0186411262,Experimento Piloto1,001,111,
2.5,Stim\\05_078.jpg,En78_8,Enojo,8,Estefanía despierta a las 7 a.m.,Afirmación,En78,78,,,,,,,,,,,,,0,32,32,32,,,,,4,1.00015172448,2018_may._08_1136,60.0186411262,Experimento Piloto1,001,111,
0.25,Stim\\02_028.jpg,Al28_12,Alegría,12,Ana compra el libro.,Afirmación,Al28,28,,,,,,,,,,,,,0,33,33,33,,,,,3,0.283840807103,2018_may._08_1136,60.0186411262,Experimento Piloto1,001,111,
0.25,Stim\\05_075.jpg,En75_1,Enojo,1,Juan colecciona monedas antiguas.,Afirmación,En75,75,,,,,,,,,,,,,0,34,34,34,,,,,3,2.23320945476,2018_may._08_1136,60.0186411262,Experimento Piloto1,001,111,
0.25,Stim\\03_028.jpg,Tr28_4,Tristeza,4,Jorge sustituye a Gustavo cada sábado.,Afirmación,Tr28,28,,,,,,,,,,,,,0,35,35,35,,,,,3,3.56607913592,2018_may._08_1136,60.0186411262,Experimento Piloto1,001,111,
2.5,Stim\\03_078.jpg,Tr78_3,Tristeza,3,Andrea diseña la portada del libro.,Afirmación,Tr78,78,,,,,,,,,,,,,0,36,36,36,,,,,3,0.283614559124,2018_may._08_1136,60.0186411262,Experimento Piloto1,001,111,
0.25,Stim\\05_078.jpg,En78_4,Enojo,4,Jorge sustituye a Gustavo cada sábado.,Afirmación,En78,78,,,,,,,,,,,,,0,37,37,37,,,,,2,0.500291400257,2018_may._08_1136,60.0186411262,Experimento Piloto1,001,111,
2.5,Stim\\03_019.jpg,Tr19_7,Tristeza,7,Roberto contesta los cuestionarios solicitados.,Afirmación,Tr19,19,,,,,,,,,,,,,0,38,38,38,,,,,4,0.800113704112,2018_may._08_1136,60.0186411262,Experimento Piloto1,001,111,
0.25,Stim\\02_078.jpg,Al78_2,Alegría,2,Jonathan pasea al perro.,Afirmación,Al78,78,,,,,,,,,,,,,0,39,39,39,,,,,3,0.300381899448,2018_may._08_1136,60.0186411262,Experimento Piloto1,001,111,
0.25,Stim\\02_078.jpg,Al78_5,Alegría,5,Emilio revisa el formato del archivo.,Afirmación,Al78,78,,,,,,,,,,,,,0,40,40,40,,,,,3,0.333735849461,2018_may._08_1136,60.0186411262,Experimento Piloto1,001,111,
2.5,Stim\\05_019.jpg,En19_11,Enojo,11,María asiste a la cena.,Afirmación,En19,19,,,,,,,,,,,,,0,41,41,41,,,,,2,3.19961274557,2018_may._08_1136,60.0186411262,Experimento Piloto1,001,111,
2.5,Stim\\02_028.jpg,Al28_15,Alegría,15,Ángel envía una carta a la abuela.,Afirmación,Al28,28,,,,,,,,,,,,,0,42,42,42,,,,,3,0.283795289758,2018_may._08_1136,60.0186411262,Experimento Piloto1,001,111,
0.25,Stim\\03_019.jpg,Tr19_4,Tristeza,4,Jorge sustituye a Gustavo cada sábado.,Afirmación,Tr19,19,,,,,,,,,,,,,0,43,43,43,,,,,2,0.866852395283,2018_may._08_1136,60.0186411262,Experimento Piloto1,001,111,
2.5,Stim\\02_075.jpg,Al75_12,Alegría,12,Ana compra el libro.,Afirmación,Al75,75,,,,,,,,,,,,,0,44,44,44,,,,,3,0.500308357698,2018_may._08_1136,60.0186411262,Experimento Piloto1,001,111,
2.5,Stim\\05_028.jpg,En28_12,Enojo,12,Ana compra el libro.,Afirmación,En28,28,,,,,,,,,,,,,0,45,45,45,,,,,2,3.11608350916,2018_may._08_1136,60.0186411262,Experimento Piloto1,001,111,
0.25,Stim\\02_028.jpg,Al28_14,Alegría,14,Elizabeth elige la ropa un día antes.,Afirmación,Al28,28,,,,,,,,,,,,,0,46,46,46,,,,,3,1.56673958367,2018_may._08_1136,60.0186411262,Experimento Piloto1,001,111,
2.5,Stim\\03_075.jpg,Tr75_6,Tristeza,6,Eduardo camina hacia la biblioteca.,Afirmación,Tr75,75,,,,,,,,,,,,,0,47,47,47,,,,,3,3.56626299029,2018_may._08_1136,60.0186411262,Experimento Piloto1,001,111,
0.25,Stim\\05_028.jpg,En28_8,Enojo,8,Estefanía despierta a las 7 a.m.,Afirmación,En28,28,,,,,,,,,,,,,0,48,48,48,,,,,2,0.6501760004,2018_may._08_1136,60.0186411262,Experimento Piloto1,001,111,
2.5,Stim\\05_019.jpg,En19_7,Enojo,7,Roberto contesta los cuestionarios solicitados.,Afirmación,En19,19,,,,,,,,,,,,,0,49,49,49,,,,,2,2.79977009278,2018_may._08_1136,60.0186411262,Experimento Piloto1,001,111,
2.5,Stim\\02_019.jpg,Al19_10,Alegría,10,Laura finaliza la obra.,Afirmación,Al19,19,,,,,,,,,,,,,0,50,50,50,,,,,3,0.500347181316,2018_may._08_1136,60.0186411262,Experimento Piloto1,001,111,
0.25,Stim\\05_028.jpg,En28_14,Enojo,14,Elizabeth elige la ropa un día antes.,Afirmación,En28,28,,,,,,,,,,,,,0,51,51,51,,,,,2,6.13195210504,2018_may._08_1136,60.0186411262,Experimento Piloto1,001,111,
2.5,Stim\\03_028.jpg,Tr28_8,Tristeza,8,Estefanía despierta a las 7 a.m.,Afirmación,Tr28,28,,,,,,,,,,,,,0,52,52,52,,,,,3,1.93338670465,2018_may._08_1136,60.0186411262,Experimento Piloto1,001,111,
0.25,Stim\\02_075.jpg,Al75_3,Alegría,3,Andrea diseña la portada del libro.,Afirmación,Al75,75,,,,,,,,,,,,,0,53,53,53,,,,,3,0.533647581512,2018_may._08_1136,60.0186411262,Experimento Piloto1,001,111,
0.25,Stim\\02_028.jpg,Al28_1,Alegría,1,Juan colecciona monedas antiguas.,Afirmación,Al28,28,,,,,,,,,,,,,0,54,54,54,,,,,3,0.400654825017,2018_may._08_1136,60.0186411262,Experimento Piloto1,001,111,
0.25,Stim\\03_028.jpg,Tr28_3,Tristeza,3,Andrea diseña la portada del libro.,Afirmación,Tr28,28,,,,,,,,,,,,,0,55,55,55,,,,,4,2.03313394951,2018_may._08_1136,60.0186411262,Experimento Piloto1,001,111,
2.5,Stim\\02_078.jpg,Al78_11,Alegría,11,María asiste a la cena.,Afirmación,Al78,78,,,,,,,,,,,,,0,56,56,56,,,,,3,0.650778435845,2018_may._08_1136,60.0186411262,Experimento Piloto1,001,111,
0.25,Stim\\03_019.jpg,Tr19_12,Tristeza,12,Ana compra el libro.,Afirmación,Tr19,19,,,,,,,,,,,,,0,57,57,57,,,,,2,1.73324336964,2018_may._08_1136,60.0186411262,Experimento Piloto1,001,111,
2.5,Stim\\02_078.jpg,Al78_14,Alegría,14,Elizabeth elige la ropa un día antes.,Afirmación,Al78,78,,,,,,,,,,,,,0,58,58,58,,,,,3,0.700315140675,2018_may._08_1136,60.0186411262,Experimento Piloto1,001,111,
0.25,Stim\\03_019.jpg,Tr19_2,Tristeza,2,Jonathan pasea al perro.,Afirmación,Tr19,19,,,,,,,,,,,,,0,59,59,59,,,,,2,0.383830811137,2018_may._08_1136,60.0186411262,Experimento Piloto1,001,111,
2.5,Stim\\03_078.jpg,Tr78_1,Tristeza,1,Juan colecciona monedas antiguas.,Afirmación,Tr78,78,,,,,,,,,,,,,0,60,60,60,,,,,3,0.550954436245,2018_may._08_1136,60.0186411262,Experimento Piloto1,001,111,
0.25,Stim\\03_078.jpg,Tr78_4,Tristeza,4,Jorge sustituye a Gustavo cada sábado.,Afirmación,Tr78,78,,,,,,,,,,,,,0,61,61,61,,,,,3,0.50036949374,2018_may._08_1136,60.0186411262,Experimento Piloto1,001,111,
0.25,Stim\\05_019.jpg,En19_14,Enojo,14,Elizabeth elige la ropa un día antes.,Afirmación,En19,19,,,,,,,,,,,,,0,62,62,62,,,,,2,0.700329866875,2018_may._08_1136,60.0186411262,Experimento Piloto1,001,111,
0.25,Stim\\02_075.jpg,Al75_15,Alegría,15,Ángel envía una carta a la abuela.,Afirmación,Al75,75,,,,,,,,,,,,,0,63,63,63,,,,,4,2.59971466872,2018_may._08_1136,60.0186411262,Experimento Piloto1,001,111,
2.5,Stim\\03_028.jpg,Tr28_2,Tristeza,2,Jonathan pasea al perro.,Afirmación,Tr28,28,,,,,,,,,,,,,0,64,64,64,,,,,3,3.9828877096,2018_may._08_1136,60.0186411262,Experimento Piloto1,001,111,
0.25,Stim\\05_028.jpg,En28_3,Enojo,3,Andrea diseña la portada del libro.,Afirmación,En28,28,,,,,,,,,,,,,0,65,65,65,,,,,2,1.16661624059,2018_may._08_1136,60.0186411262,Experimento Piloto1,001,111,
0.25,Stim\\05_078.jpg,En78_3,Enojo,3,Andrea diseña la portada del libro.,Afirmación,En78,78,,,,,,,,,,,,,0,66,66,66,,,,,2,0.283701131329,2018_may._08_1136,60.0186411262,Experimento Piloto1,001,111,
0.25,Stim\\05_075.jpg,En75_9,Enojo,9,Marco colabora en la organización del evento.,Afirmación,En75,75,,,,,,,,,,,,,0,67,67,67,,,,,2,0.350364852756,2018_may._08_1136,60.0186411262,Experimento Piloto1,001,111,
2.5,Stim\\05_075.jpg,En75_7,Enojo,7,Roberto contesta los cuestionarios solicitados.,Afirmación,En75,75,,,,,,,,,,,,,0,68,68,68,,,,,2,0.700289258264,2018_may._08_1136,60.0186411262,Experimento Piloto1,001,111,
0.25,Stim\\03_078.jpg,Tr78_14,Tristeza,14,Elizabeth elige la ropa un día antes.,Afirmación,Tr78,78,,,,,,,,,,,,,0,69,69,69,,,,,3,2.13299320274,2018_may._08_1136,60.0186411262,Experimento Piloto1,001,111,
2.5,Stim\\03_019.jpg,Tr19_5,Tristeza,5,Emilio revisa el formato del archivo.,Afirmación,Tr19,19,,,,,,,,,,,,,0,70,70,70,,,,,2,0.500058012302,2018_may._08_1136,60.0186411262,Experimento Piloto1,001,111,
2.5,Stim\\05_028.jpg,En28_13,Enojo,13,Rocío consume alimentos nutritivos.,Afirmación,En28,28,,,,,,,,,,,,,0,71,71,71,,,,,2,4.03246011431,2018_may._08_1136,60.0186411262,Experimento Piloto1,001,111,
0.25,Stim\\05_075.jpg,En75_15,Enojo,15,Ángel envía una carta a la abuela.,Afirmación,En75,75,,,,,,,,,,,,,0,72,72,72,,,,,4,0.700307554451,2018_may._08_1136,60.0186411262,Experimento Piloto1,001,111,
2.5,Stim\\05_019.jpg,En19_6,Enojo,6,Eduardo camina hacia la biblioteca.,Afirmación,En19,19,,,,,,,,,,,,,0,73,73,73,,,,,2,0.383757626387,2018_may._08_1136,60.0186411262,Experimento Piloto1,001,111,
2.5,Stim\\05_078.jpg,En78_10,Enojo,10,Laura finaliza la obra.,Afirmación,En78,78,,,,,,,,,,,,,0,74,74,74,,,,,3,9.16438678319,2018_may._08_1136,60.0186411262,Experimento Piloto1,001,111,
2.5,Stim\\05_019.jpg,En19_9,Enojo,9,Marco colabora en la organización del evento.,Afirmación,En19,19,,,,,,,,,,,,,0,75,75,75,,,,,2,0.400305858707,2018_may._08_1136,60.0186411262,Experimento Piloto1,001,111,
2.5,Stim\\02_078.jpg,Al78_6,Alegría,6,Eduardo camina hacia la biblioteca.,Afirmación,Al78,78,,,,,,,,,,,,,0,76,76,76,,,,,3,0.500277120305,2018_may._08_1136,60.0186411262,Experimento Piloto1,001,111,
2.5,Stim\\05_078.jpg,En78_13,Enojo,13,Rocío consume alimentos nutritivos.,Afirmación,En78,78,,,,,,,,,,,,,0,77,77,77,,,,,2,2.59965621017,2018_may._08_1136,60.0186411262,Experimento Piloto1,001,111,
0.25,Stim\\05_028.jpg,En28_2,Enojo,2,Jonathan pasea al perro.,Afirmación,En28,28,,,,,,,,,,,,,0,78,78,78,,,,,2,1.36667746588,2018_may._08_1136,60.0186411262,Experimento Piloto1,001,111,
0.25,Stim\\05_019.jpg,En19_6,Enojo,6,Eduardo camina hacia la biblioteca.,Afirmación,En19,19,,,,,,,,,,,,,0,79,79,79,,,,,2,0.500350305055,2018_may._08_1136,60.0186411262,Experimento Piloto1,001,111,
2.5,Stim\\03_019.jpg,Tr19_11,Tristeza,11,María asiste a la cena.,Afirmación,Tr19,19,,,,,,,,,,,,,0,80,80,80,,,,,4,1.11687783145,2018_may._08_1136,60.0186411262,Experimento Piloto1,001,111,
2.5,Stim\\05_028.jpg,En28_11,Enojo,11,María asiste a la cena.,Afirmación,En28,28,,,,,,,,,,,,,0,81,81,81,,,,,2,0.400214824017,2018_may._08_1136,60.0186411262,Experimento Piloto1,001,111,
0.25,Stim\\02_078.jpg,Al78_9,Alegría,9,Marco colabora en la organización del evento.,Afirmación,Al78,78,,,,,,,,,,,,,0,82,82,82,,,,,3,2.03318749933,2018_may._08_1136,60.0186411262,Experimento Piloto1,001,111,
0.25,Stim\\05_019.jpg,En19_13,Enojo,13,Rocío consume alimentos nutritivos.,Afirmación,En19,19,,,,,,,,,,,,,0,83,83,83,,,,,2,0.550314515927,2018_may._08_1136,60.0186411262,Experimento Piloto1,001,111,
0.25,Stim\\03_078.jpg,Tr78_11,Tristeza,11,María asiste a la cena.,Afirmación,Tr78,78,,,,,,,,,,,,,0,84,84,84,,,,,4,11.7302200362,2018_may._08_1136,60.0186411262,Experimento Piloto1,001,111,
2.5,Stim\\05_028.jpg,En28_5,Enojo,5,Emilio revisa el formato del archivo.,Afirmación,En28,28,,,,,,,,,,,,,0,85,85,85,,,,,2,0.700456601443,2018_may._08_1136,60.0186411262,Experimento Piloto1,001,111,
0.25,Stim\\03_028.jpg,Tr28_10,Tristeza,10,Laura finaliza la obra.,Afirmación,Tr28,28,,,,,,,,,,,,,0,86,86,86,,,,,4,1.41660062189,2018_may._08_1136,60.0186411262,Experimento Piloto1,001,111,
0.25,Stim\\05_019.jpg,En19_11,Enojo,11,María asiste a la cena.,Afirmación,En19,19,,,,,,,,,,,,,0,87,87,87,,,,,2,0.500556471852,2018_may._08_1136,60.0186411262,Experimento Piloto1,001,111,
2.5,Stim\\03_028.jpg,Tr28_9,Tristeza,9,Marco colabora en la organización del evento.,Afirmación,Tr28,28,,,,,,,,,,,,,0,88,88,88,,,,,4,2.44927493547,2018_may._08_1136,60.0186411262,Experimento Piloto1,001,111,
2.5,Stim\\05_019.jpg,En19_8,Enojo,8,Estefanía despierta a las 7 a.m.,Afirmación,En19,19,,,,,,,,,,,,,0,89,89,89,,,,,2,0.333723800752,2018_may._08_1136,60.0186411262,Experimento Piloto1,001,111,
0.25,Stim\\03_075.jpg,Tr75_9,Tristeza,9,Marco colabora en la organización del evento.,Afirmación,Tr75,75,,,,,,,,,,,,,0,90,90,90,,,,,4,0.600234994448,2018_may._08_1136,60.0186411262,Experimento Piloto1,001,111,
2.5,Stim\\02_075.jpg,Al75_3,Alegría,3,Andrea diseña la portada del libro.,Afirmación,Al75,75,,,,,,,,,,,,,0,91,91,91,,,,,3,0.350070775009,2018_may._08_1136,60.0186411262,Experimento Piloto1,001,111,
0.25,Stim\\05_028.jpg,En28_12,Enojo,12,Ana compra el libro.,Afirmación,En28,28,,,,,,,,,,,,,0,92,92,92,,,,,2,0.28370380882,2018_may._08_1136,60.0186411262,Experimento Piloto1,001,111,
0.25,Stim\\03_028.jpg,Tr28_7,Tristeza,7,Roberto contesta los cuestionarios solicitados.,Afirmación,Tr28,28,,,,,,,,,,,,,0,93,93,93,,,,,4,1.26688782741,2018_may._08_1136,60.0186411262,Experimento Piloto1,001,111,
0.25,Stim\\03_019.jpg,Tr19_8,Tristeza,8,Estefanía despierta a las 7 a.m.,Afirmación,Tr19,19,,,,,,,,,,,,,0,94,94,94,,,,,2,1.21680759194,2018_may._08_1136,60.0186411262,Experimento Piloto1,001,111,
0.25,Stim\\02_019.jpg,Al19_4,Alegría,4,Jorge sustituye a Gustavo cada sábado.,Afirmación,Al19,19,,,,,,,,,,,,,0,95,95,95,,,,,3,1.53297330006,2018_may._08_1136,60.0186411262,Experimento Piloto1,001,111,
2.5,Stim\\05_019.jpg,En19_15,Enojo,15,Ángel envía una carta a la abuela.,Afirmación,En19,19,,,,,,,,,,,,,0,96,96,96,,,,,2,4.23248742472,2018_may._08_1136,60.0186411262,Experimento Piloto1,001,111,
0.25,Stim\\05_075.jpg,En75_13,Enojo,13,Rocío consume alimentos nutritivos.,Afirmación,En75,75,,,,,,,,,,,,,0,97,97,97,,,,,2,2.79995216216,2018_may._08_1136,60.0186411262,Experimento Piloto1,001,111,
0.25,Stim\\02_078.jpg,Al78_7,Alegría,7,Roberto contesta los cuestionarios solicitados.,Afirmación,Al78,78,,,,,,,,,,,,,0,98,98,98,,,,,3,1.06685917826,2018_may._08_1136,60.0186411262,Experimento Piloto1,001,111,
2.5,Stim\\03_028.jpg,Tr28_3,Tristeza,3,Andrea diseña la portada del libro.,Afirmación,Tr28,28,,,,,,,,,,,,,0,99,99,99,,,,,3,2.24991699778,2018_may._08_1136,60.0186411262,Experimento Piloto1,001,111,
2.5,Stim\\05_075.jpg,En75_15,Enojo,15,Ángel envía una carta a la abuela.,Afirmación,En75,75,,,,,,,,,,,,,0,100,100,100,,,,,2,1.71683079686,2018_may._08_1136,60.0186411262,Experimento Piloto1,001,111,
0.25,Stim\\02_028.jpg,Al28_13,Alegría,13,Rocío consume alimentos nutritivos.,Afirmación,Al28,28,,,,,,,,,,,,,0,101,101,101,,,,,3,0.850452317458,2018_may._08_1136,60.0186411262,Experimento Piloto1,001,111,
0.25,Stim\\03_028.jpg,Tr28_15,Tristeza,15,Ángel envía una carta a la abuela.,Afirmación,Tr28,28,,,,,,,,,,,,,0,102,102,102,,,,,4,1.10031174919,2018_may._08_1136,60.0186411262,Experimento Piloto1,001,111,
0.25,Stim\\05_019.jpg,En19_2,Enojo,2,Jonathan pasea al perro.,Afirmación,En19,19,,,,,,,,,,,,,0,103,103,103,,,,,2,0.300118612846,2018_may._08_1136,60.0186411262,Experimento Piloto1,001,111,
0.25,Stim\\03_078.jpg,Tr78_13,Tristeza,13,Rocío consume alimentos nutritivos.,Afirmación,Tr78,78,,,,,,,,,,,,,0,104,104,104,,,,,4,2.44973010892,2018_may._08_1136,60.0186411262,Experimento Piloto1,001,111,
2.5,Stim\\03_075.jpg,Tr75_2,Tristeza,2,Jonathan pasea al perro.,Afirmación,Tr75,75,,,,,,,,,,,,,0,105,105,105,,,,,4,1.46662239882,2018_may._08_1136,60.0186411262,Experimento Piloto1,001,111,
2.5,Stim\\05_075.jpg,En75_10,Enojo,10,Laura finaliza la obra.,Afirmación,En75,75,,,,,,,,,,,,,0,106,106,106,,,,,3,4.49879200537,2018_may._08_1136,60.0186411262,Experimento Piloto1,001,111,
2.5,Stim\\05_028.jpg,En28_3,Enojo,3,Andrea diseña la portada del libro.,Afirmación,En28,28,,,,,,,,,,,,,0,107,107,107,,,,,2,0.433804839476,2018_may._08_1136,60.0186411262,Experimento Piloto1,001,111,
2.5,Stim\\02_078.jpg,Al78_8,Alegría,8,Estefanía despierta a las 7 a.m.,Afirmación,Al78,78,,,,,,,,,,,,,0,108,108,108,,,,,3,0.300169931421,2018_may._08_1136,60.0186411262,Experimento Piloto1,001,111,
2.5,Stim\\05_075.jpg,En75_2,Enojo,2,Jonathan pasea al perro.,Afirmación,En75,75,,,,,,,,,,,,,0,109,109,109,,,,,2,1.20016430869,2018_may._08_1136,60.0186411262,Experimento Piloto1,001,111,
0.25,Stim\\05_078.jpg,En78_2,Enojo,2,Jonathan pasea al perro.,Afirmación,En78,78,,,,,,,,,,,,,0,110,110,110,,,,,2,3.31610144834,2018_may._08_1136,60.0186411262,Experimento Piloto1,001,111,
2.5,Stim\\05_078.jpg,En78_14,Enojo,14,Elizabeth elige la ropa un día antes.,Afirmación,En78,78,,,,,,,,,,,,,0,111,111,111,,,,,2,1.26713460282,2018_may._08_1136,60.0186411262,Experimento Piloto1,001,111,
2.5,Stim\\05_028.jpg,En28_1,Enojo,1,Juan colecciona monedas antiguas.,Afirmación,En28,28,,,,,,,,,,,,,0,112,112,112,,,,,2,0.400344236075,2018_may._08_1136,60.0186411262,Experimento Piloto1,001,111,
0.25,Stim\\05_019.jpg,En19_12,Enojo,12,Ana compra el libro.,Afirmación,En19,19,,,,,,,,,,,,,0,113,113,113,,,,,2,0.350305947957,2018_may._08_1136,60.0186411262,Experimento Piloto1,001,111,
0.25,Stim\\02_075.jpg,Al75_13,Alegría,13,Rocío consume alimentos nutritivos.,Afirmación,Al75,75,,,,,,,,,,,,,0,114,114,114,,,,,3,0.300270783577,2018_may._08_1136,60.0186411262,Experimento Piloto1,001,111,
2.5,Stim\\03_019.jpg,Tr19_6,Tristeza,6,Eduardo camina hacia la biblioteca.,Afirmación,Tr19,19,,,,,,,,,,,,,0,115,115,115,,,,,3,2.89936695191,2018_may._08_1136,60.0186411262,Experimento Piloto1,001,111,
2.5,Stim\\05_028.jpg,En28_14,Enojo,14,Elizabeth elige la ropa un día antes.,Afirmación,En28,28,,,,,,,,,,,,,0,116,116,116,,,,,2,0.600383595191,2018_may._08_1136,60.0186411262,Experimento Piloto1,001,111,
2.5,Stim\\02_028.jpg,Al28_5,Alegría,5,Emilio revisa el formato del archivo.,Afirmación,Al28,28,,,,,,,,,,,,,0,117,117,117,,,,,3,0.434051614884,2018_may._08_1136,60.0186411262,Experimento Piloto1,001,111,
2.5,Stim\\02_078.jpg,Al78_9,Alegría,9,Marco colabora en la organización del evento.,Afirmación,Al78,78,,,,,,,,,,,,,0,118,118,118,,,,,3,12.4966134203,2018_may._08_1136,60.0186411262,Experimento Piloto1,001,111,
0.25,Stim\\03_019.jpg,Tr19_3,Tristeza,3,Andrea diseña la portada del libro.,Afirmación,Tr19,19,,,,,,,,,,,,,0,119,119,119,,,,,2,1.00019947307,2018_may._08_1136,60.0186411262,Experimento Piloto1,001,111,
