Tiempo,ImagenesE,ClaveEn,Emocion,NumEn,Enunciado,ActoHabla,Clave,Cara,trials.thisRepN,trials.thisTrialN,trials.thisN,trials.thisIndex,Bloque1.thisRepN,Bloque1.thisTrialN,Bloque1.thisN,Bloque1.thisIndex,Bloque3.thisRepN,Bloque3.thisTrialN,Bloque3.thisN,Bloque3.thisIndex,Bloque2.thisRepN,Bloque2.thisTrialN,Bloque2.thisN,Bloque2.thisIndex,Resp_Bloque1.keys,Resp_Bloque1.rt,Resp_Bloque3.keys,Resp_Bloque3.rt,Resp_Bloque2.keys,Resp_Bloque2.rt,date,frameRate,expName,session,participant,
0.25,Stim\\03_028.jpg,Tr28_2,Tristeza,2,Jonathan pasea al perro.,Afirmación,Tr28,28,,,,,0,0,0,0,,,,,,,,,4,0.70017278741,,,,,2018_may._08_1527,59.9855450325,Experimento Piloto1,001,112,
2.5,Stim\\05_075.jpg,En75_12,Enojo,12,Ana compra el libro.,Afirmación,En75,75,,,,,0,1,1,1,,,,,,,,,2,1.88328995798,,,,,2018_may._08_1527,59.9855450325,Experimento Piloto1,001,112,
0.25,Stim\\02_078.jpg,Al78_11,Alegría,11,María asiste a la cena.,Afirmación,Al78,78,,,,,0,2,2,2,,,,,,,,,3,0.900242045174,,,,,2018_may._08_1527,59.9855450325,Experimento Piloto1,001,112,
0.25,Stim\\02_078.jpg,Al78_8,Alegría,8,Estefanía despierta a las 7 a.m.,Afirmación,Al78,78,,,,,0,3,3,3,,,,,,,,,3,1.06640935979,,,,,2018_may._08_1527,59.9855450325,Experimento Piloto1,001,112,
0.25,Stim\\05_028.jpg,En28_6,Enojo,6,Eduardo camina hacia la biblioteca.,Afirmación,En28,28,,,,,0,4,4,4,,,,,,,,,2,0.600122093583,,,,,2018_may._08_1527,59.9855450325,Experimento Piloto1,001,112,
0.25,Stim\\02_019.jpg,Al19_14,Alegría,14,Elizabeth elige la ropa un día antes.,Afirmación,Al19,19,,,,,0,5,5,5,,,,,,,,,3,0.533681942645,,,,,2018_may._08_1527,59.9855450325,Experimento Piloto1,001,112,
2.5,Stim\\05_078.jpg,En78_1,Enojo,1,Juan colecciona monedas antiguas.,Afirmación,En78,78,,,,,0,6,6,6,,,,,,,,,2,1.88324890312,,,,,2018_may._08_1527,59.9855450325,Experimento Piloto1,001,112,
2.5,Stim\\02_078.jpg,Al78_15,Alegría,15,Ángel envía una carta a la abuela.,Afirmación,Al78,78,,,,,0,7,7,7,,,,,,,,,3,0.700310231941,,,,,2018_may._08_1527,59.9855450325,Experimento Piloto1,001,112,
0.25,Stim\\02_075.jpg,Al75_14,Alegría,14,Elizabeth elige la ropa un día antes.,Afirmación,Al75,75,,,,,0,8,8,8,,,,,,,,,3,1.78359581669,,,,,2018_may._08_1527,59.9855450325,Experimento Piloto1,001,112,
2.5,Stim\\02_075.jpg,Al75_2,Alegría,2,Jonathan pasea al perro.,Afirmación,Al75,75,,,,,0,9,9,9,,,,,,,,,3,0.700335221858,,,,,2018_may._08_1527,59.9855450325,Experimento Piloto1,001,112,
0.25,Stim\\05_075.jpg,En75_12,Enojo,12,Ana compra el libro.,Afirmación,En75,75,,,,,0,10,10,10,,,,,,,,,2,0.333742989436,,,,,2018_may._08_1527,59.9855450325,Experimento Piloto1,001,112,
2.5,Stim\\03_078.jpg,Tr78_8,Tristeza,8,Estefanía despierta a las 7 a.m.,Afirmación,Tr78,78,,,,,0,11,11,11,,,,,,,,,4,0.55011772035,,,,,2018_may._08_1527,59.9855450325,Experimento Piloto1,001,112,
0.25,Stim\\03_078.jpg,Tr78_15,Tristeza,15,Ángel envía una carta a la abuela.,Afirmación,Tr78,78,,,,,0,12,12,12,,,,,,,,,4,0.650166629182,,,,,2018_may._08_1527,59.9855450325,Experimento Piloto1,001,112,
0.25,Stim\\03_078.jpg,Tr78_5,Tristeza,5,Emilio revisa el formato del archivo.,Afirmación,Tr78,78,,,,,0,13,13,13,,,,,,,,,4,1.06675475612,,,,,2018_may._08_1527,59.9855450325,Experimento Piloto1,001,112,
2.5,Stim\\02_019.jpg,Al19_5,Alegría,5,Emilio revisa el formato del archivo.,Afirmación,Al19,19,,,,,0,14,14,14,,,,,,,,,3,1.56677840729,,,,,2018_may._08_1527,59.9855450325,Experimento Piloto1,001,112,
2.5,Stim\\03_075.jpg,Tr75_10,Tristeza,10,Laura finaliza la obra.,Afirmación,Tr75,75,,,,,0,15,15,15,,,,,,,,,4,0.333689885867,,,,,2018_may._08_1527,59.9855450325,Experimento Piloto1,001,112,
2.5,Stim\\03_075.jpg,Tr75_4,Tristeza,4,Jorge sustituye a Gustavo cada sábado.,Afirmación,Tr75,75,,,,,0,16,16,16,,,,,,,,,4,0.500191440597,,,,,2018_may._08_1527,59.9855450325,Experimento Piloto1,001,112,
0.25,Stim\\03_028.jpg,Tr28_5,Tristeza,5,Emilio revisa el formato del archivo.,Afirmación,Tr28,28,,,,,0,17,17,17,,,,,,,,,4,0.500630102852,,,,,2018_may._08_1527,59.9855450325,Experimento Piloto1,001,112,
0.25,Stim\\05_075.jpg,En75_11,Enojo,11,María asiste a la cena.,Afirmación,En75,75,,,,,0,18,18,18,,,,,,,,,2,0.43362723258,,,,,2018_may._08_1527,59.9855450325,Experimento Piloto1,001,112,
0.25,Stim\\02_075.jpg,Al75_6,Alegría,6,Eduardo camina hacia la biblioteca.,Afirmación,Al75,75,,,,,0,19,19,19,,,,,,,,,3,0.450564593575,,,,,2018_may._08_1527,59.9855450325,Experimento Piloto1,001,112,
0.25,Stim\\05_078.jpg,En78_1,Enojo,1,Juan colecciona monedas antiguas.,Afirmación,En78,78,,,,,0,20,20,20,,,,,,,,,2,2.76584628346,,,,,2018_may._08_1527,59.9855450325,Experimento Piloto1,001,112,
2.5,Stim\\03_019.jpg,Tr19_4,Tristeza,4,Jorge sustituye a Gustavo cada sábado.,Afirmación,Tr19,19,,,,,0,21,21,21,,,,,,,,,2,0.600320227908,,,,,2018_may._08_1527,59.9855450325,Experimento Piloto1,001,112,
0.25,Stim\\03_028.jpg,Tr28_11,Tristeza,11,María asiste a la cena.,Afirmación,Tr28,28,,,,,0,22,22,22,,,,,,,,,4,0.500508277017,,,,,2018_may._08_1527,59.9855450325,Experimento Piloto1,001,112,
0.25,Stim\\02_019.jpg,Al19_7,Alegría,7,Roberto contesta los cuestionarios solicitados.,Afirmación,Al19,19,,,,,0,23,23,23,,,,,,,,,3,0.433773155833,,,,,2018_may._08_1527,59.9855450325,Experimento Piloto1,001,112,
0.25,Stim\\05_028.jpg,En28_1,Enojo,1,Juan colecciona monedas antiguas.,Afirmación,En28,28,,,,,0,24,24,24,,,,,,,,,2,0.433690153617,,,,,2018_may._08_1527,59.9855450325,Experimento Piloto1,001,112,
0.25,Stim\\03_019.jpg,Tr19_6,Tristeza,6,Eduardo camina hacia la biblioteca.,Afirmación,Tr19,19,,,,,0,25,25,25,,,,,,,,,2,0.50049310457,,,,,2018_may._08_1527,59.9855450325,Experimento Piloto1,001,112,
0.25,Stim\\03_078.jpg,Tr78_7,Tristeza,7,Roberto contesta los cuestionarios solicitados.,Afirmación,Tr78,78,,,,,0,26,26,26,,,,,,,,,4,0.500362800012,,,,,2018_may._08_1527,59.9855450325,Experimento Piloto1,001,112,
2.5,Stim\\03_019.jpg,Tr19_15,Tristeza,15,Ángel envía una carta a la abuela.,Afirmación,Tr19,19,,,,,0,27,27,27,,,,,,,,,2,0.28378591854,,,,,2018_may._08_1527,59.9855450325,Experimento Piloto1,001,112,
2.5,Stim\\02_028.jpg,Al28_4,Alegría,4,Jorge sustituye a Gustavo cada sábado.,Afirmación,Al28,28,,,,,0,28,28,28,,,,,,,,,3,0.583626072335,,,,,2018_may._08_1527,59.9855450325,Experimento Piloto1,001,112,
2.5,Stim\\03_078.jpg,Tr78_5,Tristeza,5,Emilio revisa el formato del archivo.,Afirmación,Tr78,78,,,,,0,29,29,29,,,,,,,,,4,0.233690064366,,,,,2018_may._08_1527,59.9855450325,Experimento Piloto1,001,112,
2.5,Stim\\03_028.jpg,Tr28_12,Tristeza,12,Ana compra el libro.,Afirmación,Tr28,28,,,,,0,30,30,30,,,,,,,,,4,0.450227229725,,,,,2018_may._08_1527,59.9855450325,Experimento Piloto1,001,112,
0.25,Stim\\02_028.jpg,Al28_2,Alegría,2,Jonathan pasea al perro.,Afirmación,Al28,28,,,,,0,31,31,31,,,,,,,,,3,0.383487199808,,,,,2018_may._08_1527,59.9855450325,Experimento Piloto1,001,112,
0.25,Stim\\05_019.jpg,En19_8,Enojo,8,Estefanía despierta a las 7 a.m.,Afirmación,En19,19,,,,,0,32,32,32,,,,,,,,,2,0.33370684331,,,,,2018_may._08_1527,59.9855450325,Experimento Piloto1,001,112,
0.25,Stim\\03_019.jpg,Tr19_9,Tristeza,9,Marco colabora en la organización del evento.,Afirmación,Tr19,19,,,,,0,33,33,33,,,,,,,,,2,0.400572715296,,,,,2018_may._08_1527,59.9855450325,Experimento Piloto1,001,112,
2.5,Stim\\02_078.jpg,Al78_10,Alegría,10,Laura finaliza la obra.,Afirmación,Al78,78,,,,,0,34,34,34,,,,,,,,,3,1.1002483819,,,,,2018_may._08_1527,59.9855450325,Experimento Piloto1,001,112,
2.5,Stim\\02_075.jpg,Al75_15,Alegría,15,Ángel envía una carta a la abuela.,Afirmación,Al75,75,,,,,0,35,35,35,,,,,,,,,3,0.300494800313,,,,,2018_may._08_1527,59.9855450325,Experimento Piloto1,001,112,
2.5,Stim\\03_028.jpg,Tr28_6,Tristeza,6,Eduardo camina hacia la biblioteca.,Afirmación,Tr28,28,,,,,0,36,36,36,,,,,,,,,4,0.349969922852,,,,,2018_may._08_1527,59.9855450325,Experimento Piloto1,001,112,
0.25,Stim\\03_075.jpg,Tr75_14,Tristeza,14,Elizabeth elige la ropa un día antes.,Afirmación,Tr75,75,,,,,0,37,37,37,,,,,,,,,4,0.334248588963,,,,,2018_may._08_1527,59.9855450325,Experimento Piloto1,001,112,
2.5,Stim\\05_075.jpg,En75_13,Enojo,13,Rocío consume alimentos nutritivos.,Afirmación,En75,75,,,,,0,38,38,38,,,,,,,,,2,0.383774137581,,,,,2018_may._08_1527,59.9855450325,Experimento Piloto1,001,112,
2.5,Stim\\03_075.jpg,Tr75_8,Tristeza,8,Estefanía despierta a las 7 a.m.,Afirmación,Tr75,75,,,,,0,39,39,39,,,,,,,,,4,0.350381363949,,,,,2018_may._08_1527,59.9855450325,Experimento Piloto1,001,112,
0.25,Stim\\05_075.jpg,En75_7,Enojo,7,Roberto contesta los cuestionarios solicitados.,Afirmación,En75,75,,,,,0,40,40,40,,,,,,,,,2,0.4000581908,,,,,2018_may._08_1527,59.9855450325,Experimento Piloto1,001,112,
2.5,Stim\\03_019.jpg,Tr19_10,Tristeza,10,Laura finaliza la obra.,Afirmación,Tr19,19,,,,,0,41,41,41,,,,,,,,,2,0.400482573104,,,,,2018_may._08_1527,59.9855450325,Experimento Piloto1,001,112,
2.5,Stim\\03_019.jpg,Tr19_2,Tristeza,2,Jonathan pasea al perro.,Afirmación,Tr19,19,,,,,0,42,42,42,,,,,,,,,2,0.450750679191,,,,,2018_may._08_1527,59.9855450325,Experimento Piloto1,001,112,
0.25,Stim\\03_075.jpg,Tr75_15,Tristeza,15,Ángel envía una carta a la abuela.,Afirmación,Tr75,75,,,,,0,43,43,43,,,,,,,,,4,0.350333169114,,,,,2018_may._08_1527,59.9855450325,Experimento Piloto1,001,112,
0.25,Stim\\05_019.jpg,En19_1,Enojo,1,Juan colecciona monedas antiguas.,Afirmación,En19,19,,,,,0,44,44,44,,,,,,,,,2,0.350288544265,,,,,2018_may._08_1527,59.9855450325,Experimento Piloto1,001,112,
0.25,Stim\\03_078.jpg,Tr78_2,Tristeza,2,Jonathan pasea al perro.,Afirmación,Tr78,78,,,,,0,45,45,45,,,,,,,,,4,2.49986791045,,,,,2018_may._08_1527,59.9855450325,Experimento Piloto1,001,112,
2.5,Stim\\02_019.jpg,Al19_9,Alegría,9,Marco colabora en la organización del evento.,Afirmación,Al19,19,,,,,0,46,46,46,,,,,,,,,3,0.450268730832,,,,,2018_may._08_1527,59.9855450325,Experimento Piloto1,001,112,
2.5,Stim\\03_028.jpg,Tr28_11,Tristeza,11,María asiste a la cena.,Afirmación,Tr28,28,,,,,0,47,47,47,,,,,,,,,4,0.283833667128,,,,,2018_may._08_1527,59.9855450325,Experimento Piloto1,001,112,
2.5,Stim\\05_078.jpg,En78_6,Enojo,6,Eduardo camina hacia la biblioteca.,Afirmación,En78,78,,,,,0,48,48,48,,,,,,,,,2,0.35043357502,,,,,2018_may._08_1527,59.9855450325,Experimento Piloto1,001,112,
2.5,Stim\\02_028.jpg,Al28_14,Alegría,14,Elizabeth elige la ropa un día antes.,Afirmación,Al28,28,,,,,0,49,49,49,,,,,,,,,3,0.333606437402,,,,,2018_may._08_1527,59.9855450325,Experimento Piloto1,001,112,
0.25,Stim\\03_019.jpg,Tr19_10,Tristeza,10,Laura finaliza la obra.,Afirmación,Tr19,19,,,,,0,50,50,50,,,,,,,,,2,0.350209558286,,,,,2018_may._08_1527,59.9855450325,Experimento Piloto1,001,112,
2.5,Stim\\05_019.jpg,En19_2,Enojo,2,Jonathan pasea al perro.,Afirmación,En19,19,,,,,0,51,51,51,,,,,,,,,2,0.383995030577,,,,,2018_may._08_1527,59.9855450325,Experimento Piloto1,001,112,
0.25,Stim\\05_078.jpg,En78_5,Enojo,5,Emilio revisa el formato del archivo.,Afirmación,En78,78,,,,,0,52,52,52,,,,,,,,,2,1.66648281229,,,,,2018_may._08_1527,59.9855450325,Experimento Piloto1,001,112,
2.5,Stim\\02_075.jpg,Al75_5,Alegría,5,Emilio revisa el formato del archivo.,Afirmación,Al75,75,,,,,0,53,53,53,,,,,,,,,3,0.433490234298,,,,,2018_may._08_1527,59.9855450325,Experimento Piloto1,001,112,
0.25,Stim\\05_028.jpg,En28_9,Enojo,9,Marco colabora en la organización del evento.,Afirmación,En28,28,,,,,0,54,54,54,,,,,,,,,2,0.300268998582,,,,,2018_may._08_1527,59.9855450325,Experimento Piloto1,001,112,
2.5,Stim\\03_019.jpg,Tr19_1,Tristeza,1,Juan colecciona monedas antiguas.,Afirmación,Tr19,19,,,,,0,55,55,55,,,,,,,,,2,0.450376722965,,,,,2018_may._08_1527,59.9855450325,Experimento Piloto1,001,112,
0.25,Stim\\02_028.jpg,Al28_3,Alegría,3,Andrea diseña la portada del libro.,Afirmación,Al28,28,,,,,0,56,56,56,,,,,,,,,3,0.401715111402,,,,,2018_may._08_1527,59.9855450325,Experimento Piloto1,001,112,
0.25,Stim\\05_028.jpg,En28_5,Enojo,5,Emilio revisa el formato del archivo.,Afirmación,En28,28,,,,,0,57,57,57,,,,,,,,,2,0.383767890102,,,,,2018_may._08_1527,59.9855450325,Experimento Piloto1,001,112,
2.5,Stim\\03_078.jpg,Tr78_15,Tristeza,15,Ángel envía una carta a la abuela.,Afirmación,Tr78,78,,,,,0,58,58,58,,,,,,,,,4,0.350485786093,,,,,2018_may._08_1527,59.9855450325,Experimento Piloto1,001,112,
0.25,Stim\\02_078.jpg,Al78_10,Alegría,10,Laura finaliza la obra.,Afirmación,Al78,78,,,,,0,59,59,59,,,,,,,,,3,0.350362621515,,,,,2018_may._08_1527,59.9855450325,Experimento Piloto1,001,112,
0.25,Stim\\03_075.jpg,Tr75_7,Tristeza,7,Roberto contesta los cuestionarios solicitados.,Afirmación,Tr75,75,,,,,0,60,60,60,,,,,,,,,4,0.233703005571,,,,,2018_may._08_1527,59.9855450325,Experimento Piloto1,001,112,
0.25,Stim\\03_075.jpg,Tr75_5,Tristeza,5,Emilio revisa el formato del archivo.,Afirmación,Tr75,75,,,,,0,61,61,61,,,,,,,,,4,0.500306126456,,,,,2018_may._08_1527,59.9855450325,Experimento Piloto1,001,112,
0.25,Stim\\05_075.jpg,En75_14,Enojo,14,Elizabeth elige la ropa un día antes.,Afirmación,En75,75,,,,,0,62,62,62,,,,,,,,,2,0.300096300422,,,,,2018_may._08_1527,59.9855450325,Experimento Piloto1,001,112,
0.25,Stim\\05_075.jpg,En75_2,Enojo,2,Jonathan pasea al perro.,Afirmación,En75,75,,,,,0,63,63,63,,,,,,,,,2,0.30025828862,,,,,2018_may._08_1527,59.9855450325,Experimento Piloto1,001,112,
0.25,Stim\\02_078.jpg,Al78_6,Alegría,6,Eduardo camina hacia la biblioteca.,Afirmación,Al78,78,,,,,0,64,64,64,,,,,,,,,3,0.650254986382,,,,,2018_may._08_1527,59.9855450325,Experimento Piloto1,001,112,
0.25,Stim\\03_075.jpg,Tr75_4,Tristeza,4,Jorge sustituye a Gustavo cada sábado.,Afirmación,Tr75,75,,,,,0,65,65,65,,,,,,,,,4,0.30003828812,,,,,2018_may._08_1527,59.9855450325,Experimento Piloto1,001,112,
0.25,Stim\\03_075.jpg,Tr75_3,Tristeza,3,Andrea diseña la portada del libro.,Afirmación,Tr75,75,,,,,0,66,66,66,,,,,,,,,4,0.283804660976,,,,,2018_may._08_1527,59.9855450325,Experimento Piloto1,001,112,
0.25,Stim\\02_028.jpg,Al28_10,Alegría,10,Laura finaliza la obra.,Afirmación,Al28,28,,,,,0,67,67,67,,,,,,,,,3,0.550253379886,,,,,2018_may._08_1527,59.9855450325,Experimento Piloto1,001,112,
0.25,Stim\\03_028.jpg,Tr28_12,Tristeza,12,Ana compra el libro.,Afirmación,Tr28,28,,,,,0,68,68,68,,,,,,,,,4,0.233767711601,,,,,2018_may._08_1527,59.9855450325,Experimento Piloto1,001,112,
0.25,Stim\\03_075.jpg,Tr75_10,Tristeza,10,Laura finaliza la obra.,Afirmación,Tr75,75,,,,,0,69,69,69,,,,,,,,,4,0.283623930343,,,,,2018_may._08_1527,59.9855450325,Experimento Piloto1,001,112,
0.25,Stim\\02_028.jpg,Al28_8,Alegría,8,Estefanía despierta a las 7 a.m.,Afirmación,Al28,28,,,,,0,70,70,70,,,,,,,,,3,0.300350215804,,,,,2018_may._08_1527,59.9855450325,Experimento Piloto1,001,112,
0.25,Stim\\05_078.jpg,En78_14,Enojo,14,Elizabeth elige la ropa un día antes.,Afirmación,En78,78,,,,,0,71,71,71,,,,,,,,,2,0.233780206559,,,,,2018_may._08_1527,59.9855450325,Experimento Piloto1,001,112,
2.5,Stim\\03_078.jpg,Tr78_9,Tristeza,9,Marco colabora en la organización del evento.,Afirmación,Tr78,78,,,,,0,72,72,72,,,,,,,,,4,0.184099363472,,,,,2018_may._08_1527,59.9855450325,Experimento Piloto1,001,112,
0.25,Stim\\02_019.jpg,Al19_3,Alegría,3,Andrea diseña la portada del libro.,Afirmación,Al19,19,,,,,0,73,73,73,,,,,,,,,2,0.300416706828,,,,,2018_may._08_1527,59.9855450325,Experimento Piloto1,001,112,
0.25,Stim\\03_078.jpg,Tr78_6,Tristeza,6,Eduardo camina hacia la biblioteca.,Afirmación,Tr78,78,,,,,0,74,74,74,,,,,,,,,4,1.88296553534,,,,,2018_may._08_1527,59.9855450325,Experimento Piloto1,001,112,
0.25,Stim\\03_028.jpg,Tr28_8,Tristeza,8,Estefanía despierta a las 7 a.m.,Afirmación,Tr28,28,,,,,0,75,75,75,,,,,,,,,4,0.250286045275,,,,,2018_may._08_1527,59.9855450325,Experimento Piloto1,001,112,
2.5,Stim\\05_078.jpg,En78_9,Enojo,9,Marco colabora en la organización del evento.,Afirmación,En78,78,,,,,0,76,76,76,,,,,,,,,2,0.400224641484,,,,,2018_may._08_1527,59.9855450325,Experimento Piloto1,001,112,
2.5,Stim\\02_028.jpg,Al28_6,Alegría,6,Eduardo camina hacia la biblioteca.,Afirmación,Al28,28,,,,,0,77,77,77,,,,,,,,,3,0.333875078986,,,,,2018_may._08_1527,59.9855450325,Experimento Piloto1,001,112,
2.5,Stim\\03_078.jpg,Tr78_6,Tristeza,6,Eduardo camina hacia la biblioteca.,Afirmación,Tr78,78,,,,,0,78,78,78,,,,,,,,,4,1.41670593653,,,,,2018_may._08_1527,59.9855450325,Experimento Piloto1,001,112,
2.5,Stim\\02_078.jpg,Al78_2,Alegría,2,Jonathan pasea al perro.,Afirmación,Al78,78,,,,,0,79,79,79,,,,,,,,,3,0.250355213788,,,,,2018_may._08_1527,59.9855450325,Experimento Piloto1,001,112,
2.5,Stim\\02_028.jpg,Al28_10,Alegría,10,Laura finaliza la obra.,Afirmación,Al28,28,,,,,0,80,80,80,,,,,,,,,3,0.600463473669,,,,,2018_may._08_1527,59.9855450325,Experimento Piloto1,001,112,
2.5,Stim\\02_019.jpg,Al19_15,Alegría,15,Ángel envía una carta a la abuela.,Afirmación,Al19,19,,,,,0,81,81,81,,,,,,,,,3,0.183638388793,,,,,2018_may._08_1527,59.9855450325,Experimento Piloto1,001,112,
0.25,Stim\\03_019.jpg,Tr19_5,Tristeza,5,Emilio revisa el formato del archivo.,Afirmación,Tr19,19,,,,,0,82,82,82,,,,,,,,,2,0.350383595192,,,,,2018_may._08_1527,59.9855450325,Experimento Piloto1,001,112,
0.25,Stim\\02_075.jpg,Al75_12,Alegría,12,Ana compra el libro.,Afirmación,Al75,75,,,,,0,83,83,83,,,,,,,,,3,1.31664676398,,,,,2018_may._08_1527,59.9855450325,Experimento Piloto1,001,112,
2.5,Stim\\05_078.jpg,En78_3,Enojo,3,Andrea diseña la portada del libro.,Afirmación,En78,78,,,,,0,84,84,84,,,,,,,,,2,0.300352447048,,,,,2018_may._08_1527,59.9855450325,Experimento Piloto1,001,112,
2.5,Stim\\03_075.jpg,Tr75_5,Tristeza,5,Emilio revisa el formato del archivo.,Afirmación,Tr75,75,,,,,0,85,85,85,,,,,,,,,4,0.233688279373,,,,,2018_may._08_1527,59.9855450325,Experimento Piloto1,001,112,
2.5,Stim\\05_028.jpg,En28_2,Enojo,2,Jonathan pasea al perro.,Afirmación,En28,28,,,,,0,86,86,86,,,,,,,,,2,0.233708806803,,,,,2018_may._08_1527,59.9855450325,Experimento Piloto1,001,112,
0.25,Stim\\03_028.jpg,Tr28_9,Tristeza,9,Marco colabora en la organización del evento.,Afirmación,Tr28,28,,,,,0,87,87,87,,,,,,,,,4,0.200408406607,,,,,2018_may._08_1527,59.9855450325,Experimento Piloto1,001,112,
0.25,Stim\\03_078.jpg,Tr78_9,Tristeza,9,Marco colabora en la organización del evento.,Afirmación,Tr78,78,,,,,0,88,88,88,,,,,,,,,4,0.333807695466,,,,,2018_may._08_1527,59.9855450325,Experimento Piloto1,001,112,
2.5,Stim\\03_075.jpg,Tr75_12,Tristeza,12,Ana compra el libro.,Afirmación,Tr75,75,,,,,0,89,89,89,,,,,,,,,4,0.250171805665,,,,,2018_may._08_1527,59.9855450325,Experimento Piloto1,001,112,
2.5,Stim\\05_078.jpg,En78_11,Enojo,11,María asiste a la cena.,Afirmación,En78,78,,,,,0,90,90,90,,,,,,,,,4,0.233614648374,,,,,2018_may._08_1527,59.9855450325,Experimento Piloto1,001,112,
2.5,Stim\\02_075.jpg,Al75_14,Alegría,14,Elizabeth elige la ropa un día antes.,Afirmación,Al75,75,,,,,0,91,91,91,,,,,,,,,3,0.200574411041,,,,,2018_may._08_1527,59.9855450325,Experimento Piloto1,001,112,
0.25,Stim\\03_019.jpg,Tr19_7,Tristeza,7,Roberto contesta los cuestionarios solicitados.,Afirmación,Tr19,19,,,,,0,92,92,92,,,,,,,,,2,0.233711484292,,,,,2018_may._08_1527,59.9855450325,Experimento Piloto1,001,112,
0.25,Stim\\05_075.jpg,En75_5,Enojo,5,Emilio revisa el formato del archivo.,Afirmación,En75,75,,,,,0,93,93,93,,,,,,,,,2,0.183668733691,,,,,2018_may._08_1527,59.9855450325,Experimento Piloto1,001,112,
2.5,Stim\\05_019.jpg,En19_14,Enojo,14,Elizabeth elige la ropa un día antes.,Afirmación,En19,19,,,,,0,94,94,94,,,,,,,,,2,0.250718906298,,,,,2018_may._08_1527,59.9855450325,Experimento Piloto1,001,112,
0.25,Stim\\02_075.jpg,Al75_2,Alegría,2,Jonathan pasea al perro.,Afirmación,Al75,75,,,,,0,95,95,95,,,,,,,,,3,0.283644011524,,,,,2018_may._08_1527,59.9855450325,Experimento Piloto1,001,112,
2.5,Stim\\03_028.jpg,Tr28_10,Tristeza,10,Laura finaliza la obra.,Afirmación,Tr28,28,,,,,0,96,96,96,,,,,,,,,4,0.200390556669,,,,,2018_may._08_1527,59.9855450325,Experimento Piloto1,001,112,
2.5,Stim\\02_078.jpg,Al78_3,Alegría,3,Andrea diseña la portada del libro.,Afirmación,Al78,78,,,,,0,97,97,97,,,,,,,,,3,0.183784312047,,,,,2018_may._08_1527,59.9855450325,Experimento Piloto1,001,112,
2.5,Stim\\05_075.jpg,En75_3,Enojo,3,Andrea diseña la portada del libro.,Afirmación,En75,75,,,,,0,98,98,98,,,,,,,,,2,0.333776904321,,,,,2018_may._08_1527,59.9855450325,Experimento Piloto1,001,112,
2.5,Stim\\03_075.jpg,Tr75_3,Tristeza,3,Andrea diseña la portada del libro.,Afirmación,Tr75,75,,,,,0,99,99,99,,,,,,,,,4,0.200503903781,,,,,2018_may._08_1527,59.9855450325,Experimento Piloto1,001,112,
2.5,Stim\\03_075.jpg,Tr75_7,Tristeza,7,Roberto contesta los cuestionarios solicitados.,Afirmación,Tr75,75,,,,,0,100,100,100,,,,,,,,,4,0.233748969165,,,,,2018_may._08_1527,59.9855450325,Experimento Piloto1,001,112,
2.5,Stim\\03_019.jpg,Tr19_14,Tristeza,14,Elizabeth elige la ropa un día antes.,Afirmación,Tr19,19,,,,,0,101,101,101,,,,,,,,,2,0.900014904699,,,,,2018_may._08_1527,59.9855450325,Experimento Piloto1,001,112,
2.5,Stim\\05_078.jpg,En78_5,Enojo,5,Emilio revisa el formato del archivo.,Afirmación,En78,78,,,,,0,102,102,102,,,,,,,,,2,1.31658384295,,,,,2018_may._08_1527,59.9855450325,Experimento Piloto1,001,112,
2.5,Stim\\02_078.jpg,Al78_12,Alegría,12,Ana compra el libro.,Afirmación,Al78,78,,,,,0,103,103,103,,,,,,,,,3,0.233849821321,,,,,2018_may._08_1527,59.9855450325,Experimento Piloto1,001,112,
2.5,Stim\\02_028.jpg,Al28_13,Alegría,13,Rocío consume alimentos nutritivos.,Afirmación,Al28,28,,,,,0,104,104,104,,,,,,,,,3,0.950122361333,,,,,2018_may._08_1527,59.9855450325,Experimento Piloto1,001,112,
2.5,Stim\\05_028.jpg,En28_4,Enojo,4,Jorge sustituye a Gustavo cada sábado.,Afirmación,En28,28,,,,,0,105,105,105,,,,,,,,,2,1.16671218401,,,,,2018_may._08_1527,59.9855450325,Experimento Piloto1,001,112,
0.25,Stim\\02_028.jpg,Al28_7,Alegría,7,Roberto contesta los cuestionarios solicitados.,Afirmación,Al28,28,,,,,0,106,106,106,,,,,,,,,3,0.183662486212,,,,,2018_may._08_1527,59.9855450325,Experimento Piloto1,001,112,
0.25,Stim\\02_078.jpg,Al78_12,Alegría,12,Ana compra el libro.,Afirmación,Al78,78,,,,,0,107,107,107,,,,,,,,,3,0.23380921271,,,,,2018_may._08_1527,59.9855450325,Experimento Piloto1,001,112,
2.5,Stim\\02_028.jpg,Al28_7,Alegría,7,Roberto contesta los cuestionarios solicitados.,Afirmación,Al28,28,,,,,0,108,108,108,,,,,,,,,3,0.200368690494,,,,,2018_may._08_1527,59.9855450325,Experimento Piloto1,001,112,
0.25,Stim\\02_075.jpg,Al75_7,Alegría,7,Roberto contesta los cuestionarios solicitados.,Afirmación,Al75,75,,,,,0,109,109,109,,,,,,,,,3,0.233701220579,,,,,2018_may._08_1527,59.9855450325,Experimento Piloto1,001,112,
0.25,Stim\\05_075.jpg,En75_10,Enojo,10,Laura finaliza la obra.,Afirmación,En75,75,,,,,0,110,110,110,,,,,,,,,2,0.233656595732,,,,,2018_may._08_1527,59.9855450325,Experimento Piloto1,001,112,
2.5,Stim\\05_028.jpg,En28_8,Enojo,8,Estefanía despierta a las 7 a.m.,Afirmación,En28,28,,,,,0,111,111,111,,,,,,,,,2,0.183993156334,,,,,2018_may._08_1527,59.9855450325,Experimento Piloto1,001,112,
0.25,Stim\\03_075.jpg,Tr75_6,Tristeza,6,Eduardo camina hacia la biblioteca.,Afirmación,Tr75,75,,,,,0,112,112,112,,,,,,,,,4,0.2504694534,,,,,2018_may._08_1527,59.9855450325,Experimento Piloto1,001,112,
0.25,Stim\\02_078.jpg,Al78_4,Alegría,4,Jorge sustituye a Gustavo cada sábado.,Afirmación,Al78,78,,,,,0,113,113,113,,,,,,,,,3,0.183635265053,,,,,2018_may._08_1527,59.9855450325,Experimento Piloto1,001,112,
2.5,Stim\\02_019.jpg,Al19_13,Alegría,13,Rocío consume alimentos nutritivos.,Afirmación,Al19,19,,,,,0,114,114,114,,,,,,,,,3,0.250435538515,,,,,2018_may._08_1527,59.9855450325,Experimento Piloto1,001,112,
0.25,Stim\\02_078.jpg,Al78_15,Alegría,15,Ángel envía una carta a la abuela.,Afirmación,Al78,78,,,,,0,115,115,115,,,,,,,,,3,0.133731743974,,,,,2018_may._08_1527,59.9855450325,Experimento Piloto1,001,112,
2.5,Stim\\05_019.jpg,En19_4,Enojo,4,Jorge sustituye a Gustavo cada sábado.,Afirmación,En19,19,,,,,0,116,116,116,,,,,,,,,2,1.16655912078,,,,,2018_may._08_1527,59.9855450325,Experimento Piloto1,001,112,
2.5,Stim\\05_075.jpg,En75_9,Enojo,9,Marco colabora en la organización del evento.,Afirmación,En75,75,,,,,0,117,117,117,,,,,,,,,2,0.60025552188,,,,,2018_may._08_1527,59.9855450325,Experimento Piloto1,001,112,
0.25,Stim\\05_078.jpg,En78_8,Enojo,8,Estefanía despierta a las 7 a.m.,Afirmación,En78,78,,,,,0,118,118,118,,,,,,,,,2,0.233771281592,,,,,2018_may._08_1527,59.9855450325,Experimento Piloto1,001,112,
0.25,Stim\\03_075.jpg,Tr75_12,Tristeza,12,Ana compra el libro.,Afirmación,Tr75,75,,,,,0,119,119,119,,,,,,,,,4,0.900465169414,,,,,2018_may._08_1527,59.9855450325,Experimento Piloto1,001,112,
0.25,Stim\\02_075.jpg,Al75_11,Alegría,11,María asiste a la cena.,Afirmación,Al75,75,,,,,,,,,0,0,0,0,,,,,,,3,0.250477039623,,,2018_may._08_1527,59.9855450325,Experimento Piloto1,001,112,
2.5,Stim\\03_019.jpg,Tr19_9,Tristeza,9,Marco colabora en la organización del evento.,Afirmación,Tr19,19,,,,,,,,,0,1,1,1,,,,,,,2,0.183668287442,,,2018_may._08_1527,59.9855450325,Experimento Piloto1,001,112,
2.5,Stim\\02_075.jpg,Al75_8,Alegría,8,Estefanía despierta a las 7 a.m.,Afirmación,Al75,75,,,,,,,,,0,2,2,2,,,,,,,3,0.20061011092,,,2018_may._08_1527,59.9855450325,Experimento Piloto1,001,112,
2.5,Stim\\03_075.jpg,Tr75_13,Tristeza,13,Rocío consume alimentos nutritivos.,Afirmación,Tr75,75,,,,,,,,,0,3,3,3,,,,,,,4,0.283909975618,,,2018_may._08_1527,59.9855450325,Experimento Piloto1,001,112,
0.25,Stim\\03_019.jpg,Tr19_15,Tristeza,15,Ángel envía una carta a la abuela.,Afirmación,Tr19,19,,,,,,,,,0,4,4,4,,,,,,,2,0.300129769057,,,2018_may._08_1527,59.9855450325,Experimento Piloto1,001,112,
2.5,Stim\\05_075.jpg,En75_11,Enojo,11,María asiste a la cena.,Afirmación,En75,75,,,,,,,,,0,5,5,5,,,,,,,2,0.233578055999,,,2018_may._08_1527,59.9855450325,Experimento Piloto1,001,112,
0.25,Stim\\05_028.jpg,En28_4,Enojo,4,Jorge sustituye a Gustavo cada sábado.,Afirmación,En28,28,,,,,,,,,0,6,6,6,,,,,,,2,0.183626340084,,,2018_may._08_1527,59.9855450325,Experimento Piloto1,001,112,
2.5,Stim\\05_028.jpg,En28_9,Enojo,9,Marco colabora en la organización del evento.,Afirmación,En28,28,,,,,,,,,0,7,7,7,,,,,,,2,0.233711484294,,,2018_may._08_1527,59.9855450325,Experimento Piloto1,001,112,
2.5,Stim\\03_075.jpg,Tr75_9,Tristeza,9,Marco colabora en la organización del evento.,Afirmación,Tr75,75,,,,,,,,,0,8,8,8,,,,,,,4,0.233817245184,,,2018_may._08_1527,59.9855450325,Experimento Piloto1,001,112,
2.5,Stim\\05_028.jpg,En28_15,Enojo,15,Ángel envía una carta a la abuela.,Afirmación,En28,28,,,,,,,,,0,9,9,9,,,,,,,2,0.816885060673,,,2018_may._08_1527,59.9855450325,Experimento Piloto1,001,112,
0.25,Stim\\03_078.jpg,Tr78_8,Tristeza,8,Estefanía despierta a las 7 a.m.,Afirmación,Tr78,78,,,,,,,,,0,10,10,10,,,,,,,4,1.56674181491,,,2018_may._08_1527,59.9855450325,Experimento Piloto1,001,112,
0.25,Stim\\02_075.jpg,Al75_1,Alegría,1,Juan colecciona monedas antiguas.,Afirmación,Al75,75,,,,,,,,,0,11,11,11,,,,,,,3,0.333932645039,,,2018_may._08_1527,59.9855450325,Experimento Piloto1,001,112,
0.25,Stim\\05_078.jpg,En78_11,Enojo,11,María asiste a la cena.,Afirmación,En78,78,,,,,,,,,0,12,12,12,,,,,,,2,0.250053549818,,,2018_may._08_1527,59.9855450325,Experimento Piloto1,001,112,
2.5,Stim\\03_028.jpg,Tr28_15,Tristeza,15,Ángel envía una carta a la abuela.,Afirmación,Tr28,28,,,,,,,,,0,13,13,13,,,,,,,4,0.899998839754,,,2018_may._08_1527,59.9855450325,Experimento Piloto1,001,112,
2.5,Stim\\02_019.jpg,Al19_3,Alegría,3,Andrea diseña la portada del libro.,Afirmación,Al19,19,,,,,,,,,0,14,14,14,,,,,,,3,0.25040474737,,,2018_may._08_1527,59.9855450325,Experimento Piloto1,001,112,
2.5,Stim\\05_019.jpg,En19_5,Enojo,5,Emilio revisa el formato del archivo.,Afirmación,En19,19,,,,,,,,,0,15,15,15,,,,,,,2,0.550244454917,,,2018_may._08_1527,59.9855450325,Experimento Piloto1,001,112,
0.25,Stim\\02_028.jpg,Al28_11,Alegría,11,María asiste a la cena.,Afirmación,Al28,28,,,,,,,,,0,16,16,16,,,,,,,3,0.500382434946,,,2018_may._08_1527,59.9855450325,Experimento Piloto1,001,112,
0.25,Stim\\03_019.jpg,Tr19_11,Tristeza,11,María asiste a la cena.,Afirmación,Tr19,19,,,,,,,,,0,17,17,17,,,,,,,2,1.61705276085,,,2018_may._08_1527,59.9855450325,Experimento Piloto1,001,112,
2.5,Stim\\03_078.jpg,Tr78_14,Tristeza,14,Elizabeth elige la ropa un día antes.,Afirmación,Tr78,78,,,,,,,,,0,18,18,18,,,,,,,4,0.451673074795,,,2018_may._08_1527,59.9855450325,Experimento Piloto1,001,112,
0.25,Stim\\02_019.jpg,Al19_9,Alegría,9,Marco colabora en la organización del evento.,Afirmación,Al19,19,,,,,,,,,0,19,19,19,,,,,,,3,0.233998868314,,,2018_may._08_1527,59.9855450325,Experimento Piloto1,001,112,
2.5,Stim\\02_075.jpg,Al75_11,Alegría,11,María asiste a la cena.,Afirmación,Al75,75,,,,,,,,,0,20,20,20,,,,,,,3,0.183873115493,,,2018_may._08_1527,59.9855450325,Experimento Piloto1,001,112,
0.25,Stim\\02_028.jpg,Al28_4,Alegría,4,Jorge sustituye a Gustavo cada sábado.,Afirmación,Al28,28,,,,,,,,,0,21,21,21,,,,,,,3,0.700138426278,,,2018_may._08_1527,59.9855450325,Experimento Piloto1,001,112,
2.5,Stim\\02_075.jpg,Al75_10,Alegría,10,Laura finaliza la obra.,Afirmación,Al75,75,,,,,,,,,0,22,22,22,,,,,,,3,0.233815460189,,,2018_may._08_1527,59.9855450325,Experimento Piloto1,001,112,
0.25,Stim\\05_075.jpg,En75_4,Enojo,4,Jorge sustituye a Gustavo cada sábado.,Afirmación,En75,75,,,,,,,,,0,23,23,23,,,,,,,2,1.31667532389,,,2018_may._08_1527,59.9855450325,Experimento Piloto1,001,112,
2.5,Stim\\02_028.jpg,Al28_11,Alegría,11,María asiste a la cena.,Afirmación,Al28,28,,,,,,,,,0,24,24,24,,,,,,,4,0.300738898231,,,2018_may._08_1527,59.9855450325,Experimento Piloto1,001,112,
0.25,Stim\\02_078.jpg,Al78_1,Alegría,1,Juan colecciona monedas antiguas.,Afirmación,Al78,78,,,,,,,,,0,25,25,25,,,,,,,3,0.183661593714,,,2018_may._08_1527,59.9855450325,Experimento Piloto1,001,112,
2.5,Stim\\02_019.jpg,Al19_7,Alegría,7,Roberto contesta los cuestionarios solicitados.,Afirmación,Al19,19,,,,,,,,,0,26,26,26,,,,,,,3,0.18385883554,,,2018_may._08_1527,59.9855450325,Experimento Piloto1,001,112,
0.25,Stim\\05_028.jpg,En28_15,Enojo,15,Ángel envía una carta a la abuela.,Afirmación,En28,28,,,,,,,,,0,27,27,27,,,,,,,2,0.133589836958,,,2018_may._08_1527,59.9855450325,Experimento Piloto1,001,112,
0.25,Stim\\03_075.jpg,Tr75_2,Tristeza,2,Jonathan pasea al perro.,Afirmación,Tr75,75,,,,,,,,,0,28,28,28,,,,,,,4,0.350378240209,,,2018_may._08_1527,59.9855450325,Experimento Piloto1,001,112,
0.25,Stim\\05_075.jpg,En75_3,Enojo,3,Andrea diseña la portada del libro.,Afirmación,En75,75,,,,,,,,,0,29,29,29,,,,,,,2,0.233602599666,,,2018_may._08_1527,59.9855450325,Experimento Piloto1,001,112,
2.5,Stim\\05_028.jpg,En28_10,Enojo,10,Laura finaliza la obra.,Afirmación,En28,28,,,,,,,,,0,30,30,30,,,,,,,2,0.250364138759,,,2018_may._08_1527,59.9855450325,Experimento Piloto1,001,112,
0.25,Stim\\05_019.jpg,En19_4,Enojo,4,Jorge sustituye a Gustavo cada sábado.,Afirmación,En19,19,,,,,,,,,0,31,31,31,,,,,,,2,0.233704344319,,,2018_may._08_1527,59.9855450325,Experimento Piloto1,001,112,
2.5,Stim\\02_078.jpg,Al78_1,Alegría,1,Juan colecciona monedas antiguas.,Afirmación,Al78,78,,,,,,,,,0,32,32,32,,,,,,,3,0.233659719472,,,2018_may._08_1527,59.9855450325,Experimento Piloto1,001,112,
0.25,Stim\\05_075.jpg,En75_6,Enojo,6,Eduardo camina hacia la biblioteca.,Afirmación,En75,75,,,,,,,,,0,33,33,33,,,,,,,2,0.283652043996,,,2018_may._08_1527,59.9855450325,Experimento Piloto1,001,112,
2.5,Stim\\02_019.jpg,Al19_12,Alegría,12,Ana compra el libro.,Afirmación,Al19,19,,,,,,,,,0,34,34,34,,,,,,,3,0.300465347913,,,2018_may._08_1527,59.9855450325,Experimento Piloto1,001,112,
0.25,Stim\\05_075.jpg,En75_8,Enojo,8,Estefanía despierta a las 7 a.m.,Afirmación,En75,75,,,,,,,,,0,35,35,35,,,,,,,2,0.383862941027,,,2018_may._08_1527,59.9855450325,Experimento Piloto1,001,112,
2.5,Stim\\03_028.jpg,Tr28_4,Tristeza,4,Jorge sustituye a Gustavo cada sábado.,Afirmación,Tr28,28,,,,,,,,,0,36,36,36,,,,,,,4,0.300971839937,,,2018_may._08_1527,59.9855450325,Experimento Piloto1,001,112,
0.25,Stim\\03_078.jpg,Tr78_12,Tristeza,12,Ana compra el libro.,Afirmación,Tr78,78,,,,,,,,,0,37,37,37,,,,,,,4,1.31656510051,,,2018_may._08_1527,59.9855450325,Experimento Piloto1,001,112,
2.5,Stim\\03_019.jpg,Tr19_3,Tristeza,3,Andrea diseña la portada del libro.,Afirmación,Tr19,19,,,,,,,,,0,38,38,38,,,,,,,2,0.233881504964,,,2018_may._08_1527,59.9855450325,Experimento Piloto1,001,112,
2.5,Stim\\05_075.jpg,En75_4,Enojo,4,Jorge sustituye a Gustavo cada sábado.,Afirmación,En75,75,,,,,,,,,0,39,39,39,,,,,,,2,0.48368604813,,,2018_may._08_1527,59.9855450325,Experimento Piloto1,001,112,
0.25,Stim\\05_078.jpg,En78_6,Enojo,6,Eduardo camina hacia la biblioteca.,Afirmación,En78,78,,,,,,,,,0,40,40,40,,,,,,,2,0.300227497475,,,2018_may._08_1527,59.9855450325,Experimento Piloto1,001,112,
0.25,Stim\\03_078.jpg,Tr78_3,Tristeza,3,Andrea diseña la portada del libro.,Afirmación,Tr78,78,,,,,,,,,0,41,41,41,,,,,,,3,0.183682121144,,,2018_may._08_1527,59.9855450325,Experimento Piloto1,001,112,
0.25,Stim\\05_078.jpg,En78_15,Enojo,15,Ángel envía una carta a la abuela.,Afirmación,En78,78,,,,,,,,,0,42,42,42,,,,,,,4,0.500749697443,,,2018_may._08_1527,59.9855450325,Experimento Piloto1,001,112,
2.5,Stim\\05_078.jpg,En78_2,Enojo,2,Jonathan pasea al perro.,Afirmación,En78,78,,,,,,,,,0,43,43,43,,,,,,,2,0.283847500828,,,2018_may._08_1527,59.9855450325,Experimento Piloto1,001,112,
2.5,Stim\\02_078.jpg,Al78_4,Alegría,4,Jorge sustituye a Gustavo cada sábado.,Afirmación,Al78,78,,,,,,,,,0,44,44,44,,,,,,,3,0.200140657522,,,2018_may._08_1527,59.9855450325,Experimento Piloto1,001,112,
2.5,Stim\\05_078.jpg,En78_4,Enojo,4,Jorge sustituye a Gustavo cada sábado.,Afirmación,En78,78,,,,,,,,,0,45,45,45,,,,,,,2,0.23375923288,,,2018_may._08_1527,59.9855450325,Experimento Piloto1,001,112,
0.25,Stim\\05_019.jpg,En19_9,Enojo,9,Marco colabora en la organización del evento.,Afirmación,En19,19,,,,,,,,,0,46,46,46,,,,,,,2,0.183644190023,,,2018_may._08_1527,59.9855450325,Experimento Piloto1,001,112,
0.25,Stim\\05_019.jpg,En19_15,Enojo,15,Ángel envía una carta a la abuela.,Afirmación,En19,19,,,,,,,,,0,47,47,47,,,,,,,2,0.283590907955,,,2018_may._08_1527,59.9855450325,Experimento Piloto1,001,112,
2.5,Stim\\02_028.jpg,Al28_2,Alegría,2,Jonathan pasea al perro.,Afirmación,Al28,28,,,,,,,,,0,48,48,48,,,,,,,3,0.250355660035,,,2018_may._08_1527,59.9855450325,Experimento Piloto1,001,112,
0.25,Stim\\03_075.jpg,Tr75_1,Tristeza,1,Juan colecciona monedas antiguas.,Afirmación,Tr75,75,,,,,,,,,0,49,49,49,,,,,,,4,1.16684114982,,,2018_may._08_1527,59.9855450325,Experimento Piloto1,001,112,
2.5,Stim\\02_028.jpg,Al28_12,Alegría,12,Ana compra el libro.,Afirmación,Al28,28,,,,,,,,,0,50,50,50,,,,,,,3,0.23401761075,,,2018_may._08_1527,59.9855450325,Experimento Piloto1,001,112,
0.25,Stim\\05_019.jpg,En19_5,Enojo,5,Emilio revisa el formato del archivo.,Afirmación,En19,19,,,,,,,,,0,51,51,51,,,,,,,2,0.283785026044,,,2018_may._08_1527,59.9855450325,Experimento Piloto1,001,112,
0.25,Stim\\02_075.jpg,Al75_9,Alegría,9,Marco colabora en la organización del evento.,Afirmación,Al75,75,,,,,,,,,0,52,52,52,,,,,,,3,0.400411173348,,,2018_may._08_1527,59.9855450325,Experimento Piloto1,001,112,
2.5,Stim\\03_019.jpg,Tr19_12,Tristeza,12,Ana compra el libro.,Afirmación,Tr19,19,,,,,,,,,0,53,53,53,,,,,,,2,0.2336213421,,,2018_may._08_1527,59.9855450325,Experimento Piloto1,001,112,
2.5,Stim\\02_019.jpg,Al19_4,Alegría,4,Jorge sustituye a Gustavo cada sábado.,Afirmación,Al19,19,,,,,,,,,0,54,54,54,,,,,,,3,0.183746380924,,,2018_may._08_1527,59.9855450325,Experimento Piloto1,001,112,
0.25,Stim\\02_019.jpg,Al19_12,Alegría,12,Ana compra el libro.,Afirmación,Al19,19,,,,,,,,,0,55,55,55,,,,,,,3,0.150072024502,,,2018_may._08_1527,59.9855450325,Experimento Piloto1,001,112,
2.5,Stim\\02_078.jpg,Al78_7,Alegría,7,Roberto contesta los cuestionarios solicitados.,Afirmación,Al78,78,,,,,,,,,0,56,56,56,,,,,,,3,0.233662843209,,,2018_may._08_1527,59.9855450325,Experimento Piloto1,001,112,
2.5,Stim\\03_078.jpg,Tr78_13,Tristeza,13,Rocío consume alimentos nutritivos.,Afirmación,Tr78,78,,,,,,,,,0,57,57,57,,,,,,,4,0.249875050424,,,2018_may._08_1527,59.9855450325,Experimento Piloto1,001,112,
2.5,Stim\\02_075.jpg,Al75_9,Alegría,9,Marco colabora en la organización del evento.,Afirmación,Al75,75,,,,,,,,,0,58,58,58,,,,,,,3,0.483514242464,,,2018_may._08_1527,59.9855450325,Experimento Piloto1,001,112,
0.25,Stim\\02_028.jpg,Al28_5,Alegría,5,Emilio revisa el formato del archivo.,Afirmación,Al28,28,,,,,,,,,0,59,59,59,,,,,,,3,0.200505688776,,,2018_may._08_1527,59.9855450325,Experimento Piloto1,001,112,
2.5,Stim\\03_028.jpg,Tr28_7,Tristeza,7,Roberto contesta los cuestionarios solicitados.,Afirmación,Tr28,28,,,,,,,,,0,60,60,60,,,,,,,4,0.450201347314,,,2018_may._08_1527,59.9855450325,Experimento Piloto1,001,112,
0.25,Stim\\05_078.jpg,En78_7,Enojo,7,Roberto contesta los cuestionarios solicitados.,Afirmación,En78,78,,,,,,,,,0,61,61,61,,,,,,,3,0.25028738402,,,2018_may._08_1527,59.9855450325,Experimento Piloto1,001,112,
2.5,Stim\\03_028.jpg,Tr28_5,Tristeza,5,Emilio revisa el formato del archivo.,Afirmación,Tr28,28,,,,,,,,,0,62,62,62,,,,,,,4,0.183281390011,,,2018_may._08_1527,59.9855450325,Experimento Piloto1,001,112,
0.25,Stim\\02_019.jpg,Al19_13,Alegría,13,Rocío consume alimentos nutritivos.,Afirmación,Al19,19,,,,,,,,,0,63,63,63,,,,,,,2,0.183918632836,,,2018_may._08_1527,59.9855450325,Experimento Piloto1,001,112,
2.5,Stim\\05_019.jpg,En19_13,Enojo,13,Rocío consume alimentos nutritivos.,Afirmación,En19,19,,,,,,,,,0,64,64,64,,,,,,,2,0.199801062427,,,2018_may._08_1527,59.9855450325,Experimento Piloto1,001,112,
2.5,Stim\\03_078.jpg,Tr78_4,Tristeza,4,Jorge sustituye a Gustavo cada sábado.,Afirmación,Tr78,78,,,,,,,,,0,65,65,65,,,,,,,4,0.184896363255,,,2018_may._08_1527,59.9855450325,Experimento Piloto1,001,112,
0.25,Stim\\05_028.jpg,En28_13,Enojo,13,Rocío consume alimentos nutritivos.,Afirmación,En28,28,,,,,,,,,0,66,66,66,,,,,,,2,0.233643208277,,,2018_may._08_1527,59.9855450325,Experimento Piloto1,001,112,
0.25,Stim\\02_075.jpg,Al75_4,Alegría,4,Jorge sustituye a Gustavo cada sábado.,Afirmación,Al75,75,,,,,,,,,0,67,67,67,,,,,,,3,0.233905602381,,,2018_may._08_1527,59.9855450325,Experimento Piloto1,001,112,
0.25,Stim\\03_019.jpg,Tr19_14,Tristeza,14,Elizabeth elige la ropa un día antes.,Afirmación,Tr19,19,,,,,,,,,0,68,68,68,,,,,,,2,0.250247221658,,,2018_may._08_1527,59.9855450325,Experimento Piloto1,001,112,
2.5,Stim\\02_075.jpg,Al75_4,Alegría,4,Jorge sustituye a Gustavo cada sábado.,Afirmación,Al75,75,,,,,,,,,0,69,69,69,,,,,,,3,0.700486053844,,,2018_may._08_1527,59.9855450325,Experimento Piloto1,001,112,
2.5,Stim\\05_078.jpg,En78_7,Enojo,7,Roberto contesta los cuestionarios solicitados.,Afirmación,En78,78,,,,,,,,,0,70,70,70,,,,,,,2,0.184524638273,,,2018_may._08_1527,59.9855450325,Experimento Piloto1,001,112,
2.5,Stim\\05_028.jpg,En28_6,Enojo,6,Eduardo camina hacia la biblioteca.,Afirmación,En28,28,,,,,,,,,0,71,71,71,,,,,,,2,0.150337988598,,,2018_may._08_1527,59.9855450325,Experimento Piloto1,001,112,
2.5,Stim\\05_028.jpg,En28_7,Enojo,7,Roberto contesta los cuestionarios solicitados.,Afirmación,En28,28,,,,,,,,,0,72,72,72,,,,,,,2,0.184031533703,,,2018_may._08_1527,59.9855450325,Experimento Piloto1,001,112,
2.5,Stim\\03_028.jpg,Tr28_14,Tristeza,14,Elizabeth elige la ropa un día antes.,Afirmación,Tr28,28,,,,,,,,,0,73,73,73,,,,,,,4,0.183620092605,,,2018_may._08_1527,59.9855450325,Experimento Piloto1,001,112,
2.5,Stim\\02_019.jpg,Al19_11,Alegría,11,María asiste a la cena.,Afirmación,Al19,19,,,,,,,,,0,74,74,74,,,,,,,3,0.283745756176,,,2018_may._08_1527,59.9855450325,Experimento Piloto1,001,112,
0.25,Stim\\05_028.jpg,En28_7,Enojo,7,Roberto contesta los cuestionarios solicitados.,Afirmación,En28,28,,,,,,,,,0,75,75,75,,,,,,,2,0.950280333291,,,2018_may._08_1527,59.9855450325,Experimento Piloto1,001,112,
0.25,Stim\\05_078.jpg,En78_13,Enojo,13,Rocío consume alimentos nutritivos.,Afirmación,En78,78,,,,,,,,,0,76,76,76,,,,,,,2,0.45021339602,,,2018_may._08_1527,59.9855450325,Experimento Piloto1,001,112,
0.25,Stim\\03_028.jpg,Tr28_14,Tristeza,14,Elizabeth elige la ropa un día antes.,Afirmación,Tr28,28,,,,,,,,,0,77,77,77,,,,,,,4,0.283562794302,,,2018_may._08_1527,59.9855450325,Experimento Piloto1,001,112,
2.5,Stim\\03_075.jpg,Tr75_14,Tristeza,14,Elizabeth elige la ropa un día antes.,Afirmación,Tr75,75,,,,,,,,,0,78,78,78,,,,,,,4,0.250348520061,,,2018_may._08_1527,59.9855450325,Experimento Piloto1,001,112,
0.25,Stim\\05_019.jpg,En19_10,Enojo,10,Laura finaliza la obra.,Afirmación,En19,19,,,,,,,,,0,79,79,79,,,,,,,2,0.549998572005,,,2018_may._08_1527,59.9855450325,Experimento Piloto1,001,112,
0.25,Stim\\05_078.jpg,En78_9,Enojo,9,Marco colabora en la organización del evento.,Afirmación,En78,78,,,,,,,,,0,80,80,80,,,,,,,2,0.250375294971,,,2018_may._08_1527,59.9855450325,Experimento Piloto1,001,112,
0.25,Stim\\02_028.jpg,Al28_6,Alegría,6,Eduardo camina hacia la biblioteca.,Afirmación,Al28,28,,,,,,,,,0,81,81,81,,,,,,,3,0.700112543866,,,2018_may._08_1527,59.9855450325,Experimento Piloto1,001,112,
0.25,Stim\\05_078.jpg,En78_12,Enojo,12,Ana compra el libro.,Afirmación,En78,78,,,,,,,,,0,82,82,82,,,,,,,2,0.450240617178,,,2018_may._08_1527,59.9855450325,Experimento Piloto1,001,112,
2.5,Stim\\05_075.jpg,En75_1,Enojo,1,Juan colecciona monedas antiguas.,Afirmación,En75,75,,,,,,,,,0,83,83,83,,,,,,,2,0.234621831187,,,2018_may._08_1527,59.9855450325,Experimento Piloto1,001,112,
0.25,Stim\\03_019.jpg,Tr19_13,Tristeza,13,Rocío consume alimentos nutritivos.,Afirmación,Tr19,19,,,,,,,,,0,84,84,84,,,,,,,2,0.299977152077,,,2018_may._08_1527,59.9855450325,Experimento Piloto1,001,112,
2.5,Stim\\03_078.jpg,Tr78_11,Tristeza,11,María asiste a la cena.,Afirmación,Tr78,78,,,,,,,,,0,85,85,85,,,,,,,4,0.33438469475,,,2018_may._08_1527,59.9855450325,Experimento Piloto1,001,112,
2.5,Stim\\05_019.jpg,En19_1,Enojo,1,Juan colecciona monedas antiguas.,Afirmación,En19,19,,,,,,,,,0,86,86,86,,,,,,,2,0.200982282149,,,2018_may._08_1527,59.9855450325,Experimento Piloto1,001,112,
0.25,Stim\\02_075.jpg,Al75_10,Alegría,10,Laura finaliza la obra.,Afirmación,Al75,75,,,,,,,,,0,87,87,87,,,,,,,3,0.533863565775,,,2018_may._08_1527,59.9855450325,Experimento Piloto1,001,112,
2.5,Stim\\02_019.jpg,Al19_14,Alegría,14,Elizabeth elige la ropa un día antes.,Afirmación,Al19,19,,,,,,,,,0,88,88,88,,,,,,,3,0.183636603801,,,2018_may._08_1527,59.9855450325,Experimento Piloto1,001,112,
0.25,Stim\\03_028.jpg,Tr28_6,Tristeza,6,Eduardo camina hacia la biblioteca.,Afirmación,Tr28,28,,,,,,,,,0,89,89,89,,,,,,,4,1.06692343804,,,2018_may._08_1527,59.9855450325,Experimento Piloto1,001,112,
0.25,Stim\\02_075.jpg,Al75_8,Alegría,8,Estefanía despierta a las 7 a.m.,Afirmación,Al75,75,,,,,,,,,0,90,90,90,,,,,,,3,0.500065598524,,,2018_may._08_1527,59.9855450325,Experimento Piloto1,001,112,
2.5,Stim\\02_019.jpg,Al19_6,Alegría,6,Eduardo camina hacia la biblioteca.,Afirmación,Al19,19,,,,,,,,,0,91,91,91,,,,,,,3,0.235247471555,,,2018_may._08_1527,59.9855450325,Experimento Piloto1,001,112,
2.5,Stim\\03_078.jpg,Tr78_7,Tristeza,7,Roberto contesta los cuestionarios solicitados.,Afirmación,Tr78,78,,,,,,,,,0,92,92,92,,,,,,,4,0.25037574122,,,2018_may._08_1527,59.9855450325,Experimento Piloto1,001,112,
2.5,Stim\\02_028.jpg,Al28_8,Alegría,8,Estefanía despierta a las 7 a.m.,Afirmación,Al28,28,,,,,,,,,0,93,93,93,,,,,,,3,0.13392318457,,,2018_may._08_1527,59.9855450325,Experimento Piloto1,001,112,
0.25,Stim\\03_075.jpg,Tr75_13,Tristeza,13,Rocío consume alimentos nutritivos.,Afirmación,Tr75,75,,,,,,,,,0,94,94,94,,,,,,,4,0.300314069678,,,2018_may._08_1527,59.9855450325,Experimento Piloto1,001,112,
2.5,Stim\\02_075.jpg,Al75_6,Alegría,6,Eduardo camina hacia la biblioteca.,Afirmación,Al75,75,,,,,,,,,0,95,95,95,,,,,,,3,0.550315854671,,,2018_may._08_1527,59.9855450325,Experimento Piloto1,001,112,
0.25,Stim\\02_028.jpg,Al28_9,Alegría,9,Marco colabora en la organización del evento.,Afirmación,Al28,28,,,,,,,,,0,96,96,96,,,,,,,3,0.183837861863,,,2018_may._08_1527,59.9855450325,Experimento Piloto1,001,112,
0.25,Stim\\02_019.jpg,Al19_8,Alegría,8,Estefanía despierta a las 7 a.m.,Afirmación,Al19,19,,,,,,,,,0,97,97,97,,,,,,,3,0.300486767839,,,2018_may._08_1527,59.9855450325,Experimento Piloto1,001,112,
2.5,Stim\\02_019.jpg,Al19_1,Alegría,1,Juan colecciona monedas antiguas.,Afirmación,Al19,19,,,,,,,,,0,98,98,98,,,,,,,3,0.283573504264,,,2018_may._08_1527,59.9855450325,Experimento Piloto1,001,112,
0.25,Stim\\02_019.jpg,Al19_5,Alegría,5,Emilio revisa el formato del archivo.,Afirmación,Al19,19,,,,,,,,,0,99,99,99,,,,,,,3,0.25037261748,,,2018_may._08_1527,59.9855450325,Experimento Piloto1,001,112,
2.5,Stim\\02_078.jpg,Al78_13,Alegría,13,Rocío consume alimentos nutritivos.,Afirmación,Al78,78,,,,,,,,,0,100,100,100,,,,,,,3,0.184023501231,,,2018_may._08_1527,59.9855450325,Experimento Piloto1,001,112,
2.5,Stim\\05_078.jpg,En78_12,Enojo,12,Ana compra el libro.,Afirmación,En78,78,,,,,,,,,0,101,101,101,,,,,,,2,0.600422418811,,,2018_may._08_1527,59.9855450325,Experimento Piloto1,001,112,
2.5,Stim\\03_075.jpg,Tr75_11,Tristeza,11,María asiste a la cena.,Afirmación,Tr75,75,,,,,,,,,0,102,102,102,,,,,,,4,0.250809048488,,,2018_may._08_1527,59.9855450325,Experimento Piloto1,001,112,
0.25,Stim\\02_078.jpg,Al78_13,Alegría,13,Rocío consume alimentos nutritivos.,Afirmación,Al78,78,,,,,,,,,0,103,103,103,,,,,,,3,0.801164619279,,,2018_may._08_1527,59.9855450325,Experimento Piloto1,001,112,
0.25,Stim\\03_075.jpg,Tr75_11,Tristeza,11,María asiste a la cena.,Afirmación,Tr75,75,,,,,,,,,0,104,104,104,,,,,,,4,0.350276495556,,,2018_may._08_1527,59.9855450325,Experimento Piloto1,001,112,
2.5,Stim\\05_075.jpg,En75_8,Enojo,8,Estefanía despierta a las 7 a.m.,Afirmación,En75,75,,,,,,,,,0,105,105,105,,,,,,,2,0.350403676373,,,2018_may._08_1527,59.9855450325,Experimento Piloto1,001,112,
2.5,Stim\\03_078.jpg,Tr78_2,Tristeza,2,Jonathan pasea al perro.,Afirmación,Tr78,78,,,,,,,,,0,106,106,106,,,,,,,4,1.73333618933,,,2018_may._08_1527,59.9855450325,Experimento Piloto1,001,112,
2.5,Stim\\03_078.jpg,Tr78_12,Tristeza,12,Ana compra el libro.,Afirmación,Tr78,78,,,,,,,,,0,107,107,107,,,,,,,4,0.233737366703,,,2018_may._08_1527,59.9855450325,Experimento Piloto1,001,112,
2.5,Stim\\05_019.jpg,En19_10,Enojo,10,Laura finaliza la obra.,Afirmación,En19,19,,,,,,,,,0,108,108,108,,,,,,,2,0.250110669622,,,2018_may._08_1527,59.9855450325,Experimento Piloto1,001,112,
2.5,Stim\\05_078.jpg,En78_15,Enojo,15,Ángel envía una carta a la abuela.,Afirmación,En78,78,,,,,,,,,0,109,109,109,,,,,,,2,0.233732011726,,,2018_may._08_1527,59.9855450325,Experimento Piloto1,001,112,
0.25,Stim\\02_028.jpg,Al28_15,Alegría,15,Ángel envía una carta a la abuela.,Afirmación,Al28,28,,,,,,,,,0,110,110,110,,,,,,,3,0.700161631201,,,2018_may._08_1527,59.9855450325,Experimento Piloto1,001,112,
2.5,Stim\\02_075.jpg,Al75_13,Alegría,13,Rocío consume alimentos nutritivos.,Afirmación,Al75,75,,,,,,,,,0,111,111,111,,,,,,,3,0.183766462109,,,2018_may._08_1527,59.9855450325,Experimento Piloto1,001,112,
2.5,Stim\\02_078.jpg,Al78_5,Alegría,5,Emilio revisa el formato del archivo.,Afirmación,Al78,78,,,,,,,,,0,112,112,112,,,,,,,3,0.200415992833,,,2018_may._08_1527,59.9855450325,Experimento Piloto1,001,112,
2.5,Stim\\05_019.jpg,En19_12,Enojo,12,Ana compra el libro.,Afirmación,En19,19,,,,,,,,,0,113,113,113,,,,,,,2,1.16681749865,,,2018_may._08_1527,59.9855450325,Experimento Piloto1,001,112,
2.5,Stim\\03_028.jpg,Tr28_13,Tristeza,13,Rocío consume alimentos nutritivos.,Afirmación,Tr28,28,,,,,,,,,0,114,114,114,,,,,,,4,0.450310678192,,,2018_may._08_1527,59.9855450325,Experimento Piloto1,001,112,
2.5,Stim\\02_075.jpg,Al75_1,Alegría,1,Juan colecciona monedas antiguas.,Afirmación,Al75,75,,,,,,,,,0,115,115,115,,,,,,,3,0.233934608532,,,2018_may._08_1527,59.9855450325,Experimento Piloto1,001,112,
2.5,Stim\\02_028.jpg,Al28_3,Alegría,3,Andrea diseña la portada del libro.,Afirmación,Al28,28,,,,,,,,,0,116,116,116,,,,,,,3,0.233602153417,,,2018_may._08_1527,59.9855450325,Experimento Piloto1,001,112,
0.25,Stim\\05_028.jpg,En28_10,Enojo,10,Laura finaliza la obra.,Afirmación,En28,28,,,,,,,,,0,117,117,117,,,,,,,2,0.350482216109,,,2018_may._08_1527,59.9855450325,Experimento Piloto1,001,112,
0.25,Stim\\02_078.jpg,Al78_3,Alegría,3,Andrea diseña la portada del libro.,Afirmación,Al78,78,,,,,,,,,0,118,118,118,,,,,,,3,0.650620910132,,,2018_may._08_1527,59.9855450325,Experimento Piloto1,001,112,
2.5,Stim\\03_075.jpg,Tr75_15,Tristeza,15,Ángel envía una carta a la abuela.,Afirmación,Tr75,75,,,,,,,,,0,119,119,119,,,,,,,4,1.05021143253,,,2018_may._08_1527,59.9855450325,Experimento Piloto1,001,112,
2.5,Stim\\03_028.jpg,Tr28_1,Tristeza,1,Juan colecciona monedas antiguas.,Afirmación,Tr28,28,,,,,,,,,,,,,0,0,0,0,,,,,4,0.283722997501,2018_may._08_1527,59.9855450325,Experimento Piloto1,001,112,
0.25,Stim\\03_019.jpg,Tr19_1,Tristeza,1,Juan colecciona monedas antiguas.,Afirmación,Tr19,19,,,,,,,,,,,,,0,1,1,1,,,,,2,0.55028372478,2018_may._08_1527,59.9855450325,Experimento Piloto1,001,112,
2.5,Stim\\03_078.jpg,Tr78_10,Tristeza,10,Laura finaliza la obra.,Afirmación,Tr78,78,,,,,,,,,,,,,0,2,2,2,,,,,4,0.183739240947,2018_may._08_1527,59.9855450325,Experimento Piloto1,001,112,
0.25,Stim\\02_075.jpg,Al75_5,Alegría,5,Emilio revisa el formato del archivo.,Afirmación,Al75,75,,,,,,,,,,,,,0,3,3,3,,,,,3,0.133792880017,2018_may._08_1527,59.9855450325,Experimento Piloto1,001,112,
0.25,Stim\\02_019.jpg,Al19_15,Alegría,15,Ángel envía una carta a la abuela.,Afirmación,Al19,19,,,,,,,,,,,,,0,4,4,4,,,,,4,0.950129501311,2018_may._08_1527,59.9855450325,Experimento Piloto1,001,112,
2.5,Stim\\02_075.jpg,Al75_7,Alegría,7,Roberto contesta los cuestionarios solicitados.,Afirmación,Al75,75,,,,,,,,,,,,,0,5,5,5,,,,,3,0.18396548893,2018_may._08_1527,59.9855450325,Experimento Piloto1,001,112,
0.25,Stim\\03_075.jpg,Tr75_8,Tristeza,8,Estefanía despierta a las 7 a.m.,Afirmación,Tr75,75,,,,,,,,,,,,,0,6,6,6,,,,,4,0.233790024027,2018_may._08_1527,59.9855450325,Experimento Piloto1,001,112,
0.25,Stim\\02_019.jpg,Al19_11,Alegría,11,María asiste a la cena.,Afirmación,Al19,19,,,,,,,,,,,,,0,7,7,7,,,,,3,0.183688368623,2018_may._08_1527,59.9855450325,Experimento Piloto1,001,112,
2.5,Stim\\02_019.jpg,Al19_2,Alegría,2,Jonathan pasea al perro.,Afirmación,Al19,19,,,,,,,,,,,,,0,8,8,8,,,,,3,0.199898344596,2018_may._08_1527,59.9855450325,Experimento Piloto1,001,112,
2.5,Stim\\05_075.jpg,En75_5,Enojo,5,Emilio revisa el formato del archivo.,Afirmación,En75,75,,,,,,,,,,,,,0,9,9,9,,,,,2,0.283619021608,2018_may._08_1527,59.9855450325,Experimento Piloto1,001,112,
0.25,Stim\\03_078.jpg,Tr78_10,Tristeza,10,Laura finaliza la obra.,Afirmación,Tr78,78,,,,,,,,,,,,,0,10,10,10,,,,,4,0.550253826132,2018_may._08_1527,59.9855450325,Experimento Piloto1,001,112,
0.25,Stim\\02_019.jpg,Al19_6,Alegría,6,Eduardo camina hacia la biblioteca.,Afirmación,Al19,19,,,,,,,,,,,,,0,11,11,11,,,,,3,0.184031533703,2018_may._08_1527,59.9855450325,Experimento Piloto1,001,112,
2.5,Stim\\05_019.jpg,En19_3,Enojo,3,Andrea diseña la portada del libro.,Afirmación,En19,19,,,,,,,,,,,,,0,12,12,12,,,,,2,0.333763070616,2018_may._08_1527,59.9855450325,Experimento Piloto1,001,112,
0.25,Stim\\05_019.jpg,En19_3,Enojo,3,Andrea diseña la portada del libro.,Afirmación,En19,19,,,,,,,,,,,,,0,13,13,13,,,,,2,0.183970843911,2018_may._08_1527,59.9855450325,Experimento Piloto1,001,112,
2.5,Stim\\02_028.jpg,Al28_1,Alegría,1,Juan colecciona monedas antiguas.,Afirmación,Al28,28,,,,,,,,,,,,,0,14,14,14,,,,,3,0.183780742056,2018_may._08_1527,59.9855450325,Experimento Piloto1,001,112,
0.25,Stim\\02_019.jpg,Al19_2,Alegría,2,Jonathan pasea al perro.,Afirmación,Al19,19,,,,,,,,,,,,,0,15,15,15,,,,,3,0.500023204921,2018_may._08_1527,59.9855450325,Experimento Piloto1,001,112,
0.25,Stim\\05_028.jpg,En28_11,Enojo,11,María asiste a la cena.,Afirmación,En28,28,,,,,,,,,,,,,0,16,16,16,,,,,4,0.500286937771,2018_may._08_1527,59.9855450325,Experimento Piloto1,001,112,
0.25,Stim\\03_028.jpg,Tr28_1,Tristeza,1,Juan colecciona monedas antiguas.,Afirmación,Tr28,28,,,,,,,,,,,,,0,17,17,17,,,,,4,0.23366239696,2018_may._08_1527,59.9855450325,Experimento Piloto1,001,112,
0.25,Stim\\03_078.jpg,Tr78_1,Tristeza,1,Juan colecciona monedas antiguas.,Afirmación,Tr78,78,,,,,,,,,,,,,0,18,18,18,,,,,4,0.233734242964,2018_may._08_1527,59.9855450325,Experimento Piloto1,001,112,
0.25,Stim\\02_019.jpg,Al19_1,Alegría,1,Juan colecciona monedas antiguas.,Afirmación,Al19,19,,,,,,,,,,,,,0,19,19,19,,,,,3,0.235355909936,2018_may._08_1527,59.9855450325,Experimento Piloto1,001,112,
0.25,Stim\\02_019.jpg,Al19_10,Alegría,10,Laura finaliza la obra.,Afirmación,Al19,19,,,,,,,,,,,,,0,20,20,20,,,,,3,0.250486410841,2018_may._08_1527,59.9855450325,Experimento Piloto1,001,112,
2.5,Stim\\03_019.jpg,Tr19_13,Tristeza,13,Rocío consume alimentos nutritivos.,Afirmación,Tr19,19,,,,,,,,,,,,,0,21,21,21,,,,,4,1.26689585989,2018_may._08_1527,59.9855450325,Experimento Piloto1,001,112,
2.5,Stim\\05_075.jpg,En75_6,Enojo,6,Eduardo camina hacia la biblioteca.,Afirmación,En75,75,,,,,,,,,,,,,0,22,22,22,,,,,2,1.56656465427,2018_may._08_1527,59.9855450325,Experimento Piloto1,001,112,
0.25,Stim\\05_078.jpg,En78_10,Enojo,10,Laura finaliza la obra.,Afirmación,En78,78,,,,,,,,,,,,,0,23,23,23,,,,,2,0.300401534379,2018_may._08_1527,59.9855450325,Experimento Piloto1,001,112,
2.5,Stim\\05_075.jpg,En75_14,Enojo,14,Elizabeth elige la ropa un día antes.,Afirmación,En75,75,,,,,,,,,,,,,0,24,24,24,,,,,2,0.200369582992,2018_may._08_1527,59.9855450325,Experimento Piloto1,001,112,
0.25,Stim\\05_019.jpg,En19_7,Enojo,7,Roberto contesta los cuestionarios solicitados.,Afirmación,En19,19,,,,,,,,,,,,,0,25,25,25,,,,,2,0.200433842772,2018_may._08_1527,59.9855450325,Experimento Piloto1,001,112,
0.25,Stim\\02_078.jpg,Al78_14,Alegría,14,Elizabeth elige la ropa un día antes.,Afirmación,Al78,78,,,,,,,,,,,,,0,26,26,26,,,,,3,0.233737812952,2018_may._08_1527,59.9855450325,Experimento Piloto1,001,112,
0.25,Stim\\03_028.jpg,Tr28_13,Tristeza,13,Rocío consume alimentos nutritivos.,Afirmación,Tr28,28,,,,,,,,,,,,,0,27,27,27,,,,,4,0.233923006072,2018_may._08_1527,59.9855450325,Experimento Piloto1,001,112,
2.5,Stim\\03_019.jpg,Tr19_8,Tristeza,8,Estefanía despierta a las 7 a.m.,Afirmación,Tr19,19,,,,,,,,,,,,,0,28,28,28,,,,,2,0.284335696666,2018_may._08_1527,59.9855450325,Experimento Piloto1,001,112,
2.5,Stim\\02_019.jpg,Al19_8,Alegría,8,Estefanía despierta a las 7 a.m.,Afirmación,Al19,19,,,,,,,,,,,,,0,29,29,29,,,,,3,0.600275156812,2018_may._08_1527,59.9855450325,Experimento Piloto1,001,112,
2.5,Stim\\02_028.jpg,Al28_9,Alegría,9,Marco colabora en la organización del evento.,Afirmación,Al28,28,,,,,,,,,,,,,0,30,30,30,,,,,3,4.64900772188,2018_may._08_1527,59.9855450325,Experimento Piloto1,001,112,
2.5,Stim\\03_075.jpg,Tr75_1,Tristeza,1,Juan colecciona monedas antiguas.,Afirmación,Tr75,75,,,,,,,,,,,,,0,31,31,31,,,,,4,0.233701220579,2018_may._08_1527,59.9855450325,Experimento Piloto1,001,112,
2.5,Stim\\05_078.jpg,En78_8,Enojo,8,Estefanía despierta a las 7 a.m.,Afirmación,En78,78,,,,,,,,,,,,,0,32,32,32,,,,,2,0.300271676071,2018_may._08_1527,59.9855450325,Experimento Piloto1,001,112,
0.25,Stim\\02_028.jpg,Al28_12,Alegría,12,Ana compra el libro.,Afirmación,Al28,28,,,,,,,,,,,,,0,33,33,33,,,,,3,1.36667612713,2018_may._08_1527,59.9855450325,Experimento Piloto1,001,112,
0.25,Stim\\05_075.jpg,En75_1,Enojo,1,Juan colecciona monedas antiguas.,Afirmación,En75,75,,,,,,,,,,,,,0,34,34,34,,,,,2,0.283520846944,2018_may._08_1527,59.9855450325,Experimento Piloto1,001,112,
0.25,Stim\\03_028.jpg,Tr28_4,Tristeza,4,Jorge sustituye a Gustavo cada sábado.,Afirmación,Tr28,28,,,,,,,,,,,,,0,35,35,35,,,,,4,0.283868474511,2018_may._08_1527,59.9855450325,Experimento Piloto1,001,112,
2.5,Stim\\03_078.jpg,Tr78_3,Tristeza,3,Andrea diseña la portada del libro.,Afirmación,Tr78,78,,,,,,,,,,,,,0,36,36,36,,,,,4,0.233770389092,2018_may._08_1527,59.9855450325,Experimento Piloto1,001,112,
0.25,Stim\\05_078.jpg,En78_4,Enojo,4,Jorge sustituye a Gustavo cada sábado.,Afirmación,En78,78,,,,,,,,,,,,,0,37,37,37,,,,,2,0.283810462206,2018_may._08_1527,59.9855450325,Experimento Piloto1,001,112,
2.5,Stim\\03_019.jpg,Tr19_7,Tristeza,7,Roberto contesta los cuestionarios solicitados.,Afirmación,Tr19,19,,,,,,,,,,,,,0,38,38,38,,,,,2,0.25016421944,2018_may._08_1527,59.9855450325,Experimento Piloto1,001,112,
0.25,Stim\\02_078.jpg,Al78_2,Alegría,2,Jonathan pasea al perro.,Afirmación,Al78,78,,,,,,,,,,,,,0,39,39,39,,,,,3,0.599976170332,2018_may._08_1527,59.9855450325,Experimento Piloto1,001,112,
0.25,Stim\\02_078.jpg,Al78_5,Alegría,5,Emilio revisa el formato del archivo.,Afirmación,Al78,78,,,,,,,,,,,,,0,40,40,40,,,,,3,0.30039260941,2018_may._08_1527,59.9855450325,Experimento Piloto1,001,112,
2.5,Stim\\05_019.jpg,En19_11,Enojo,11,María asiste a la cena.,Afirmación,En19,19,,,,,,,,,,,,,0,41,41,41,,,,,3,1.01653662986,2018_may._08_1527,59.9855450325,Experimento Piloto1,001,112,
2.5,Stim\\02_028.jpg,Al28_15,Alegría,15,Ángel envía una carta a la abuela.,Afirmación,Al28,28,,,,,,,,,,,,,0,42,42,42,,,,,3,0.283643565275,2018_may._08_1527,59.9855450325,Experimento Piloto1,001,112,
0.25,Stim\\03_019.jpg,Tr19_4,Tristeza,4,Jorge sustituye a Gustavo cada sábado.,Afirmación,Tr19,19,,,,,,,,,,,,,0,43,43,43,,,,,2,0.40042232956,2018_may._08_1527,59.9855450325,Experimento Piloto1,001,112,
2.5,Stim\\02_075.jpg,Al75_12,Alegría,12,Ana compra el libro.,Afirmación,Al75,75,,,,,,,,,,,,,0,44,44,44,,,,,3,0.400330402372,2018_may._08_1527,59.9855450325,Experimento Piloto1,001,112,
2.5,Stim\\05_028.jpg,En28_12,Enojo,12,Ana compra el libro.,Afirmación,En28,28,,,,,,,,,,,,,0,45,45,45,,,,,2,0.350177874643,2018_may._08_1527,59.9855450325,Experimento Piloto1,001,112,
0.25,Stim\\02_028.jpg,Al28_14,Alegría,14,Elizabeth elige la ropa un día antes.,Afirmación,Al28,28,,,,,,,,,,,,,0,46,46,46,,,,,3,0.283983160367,2018_may._08_1527,59.9855450325,Experimento Piloto1,001,112,
2.5,Stim\\03_075.jpg,Tr75_6,Tristeza,6,Eduardo camina hacia la biblioteca.,Afirmación,Tr75,75,,,,,,,,,,,,,0,47,47,47,,,,,4,0.183645975016,2018_may._08_1527,59.9855450325,Experimento Piloto1,001,112,
0.25,Stim\\05_028.jpg,En28_8,Enojo,8,Estefanía despierta a las 7 a.m.,Afirmación,En28,28,,,,,,,,,,,,,0,48,48,48,,,,,2,0.283707378811,2018_may._08_1527,59.9855450325,Experimento Piloto1,001,112,
2.5,Stim\\05_019.jpg,En19_7,Enojo,7,Roberto contesta los cuestionarios solicitados.,Afirmación,En19,19,,,,,,,,,,,,,0,49,49,49,,,,,2,0.500397161148,2018_may._08_1527,59.9855450325,Experimento Piloto1,001,112,
2.5,Stim\\02_019.jpg,Al19_10,Alegría,10,Laura finaliza la obra.,Afirmación,Al19,19,,,,,,,,,,,,,0,50,50,50,,,,,3,0.200029987896,2018_may._08_1527,59.9855450325,Experimento Piloto1,001,112,
0.25,Stim\\05_028.jpg,En28_14,Enojo,14,Elizabeth elige la ropa un día antes.,Afirmación,En28,28,,,,,,,,,,,,,0,51,51,51,,,,,2,1.25077959609,2018_may._08_1527,59.9855450325,Experimento Piloto1,001,112,
2.5,Stim\\03_028.jpg,Tr28_8,Tristeza,8,Estefanía despierta a las 7 a.m.,Afirmación,Tr28,28,,,,,,,,,,,,,0,52,52,52,,,,,4,0.350324690393,2018_may._08_1527,59.9855450325,Experimento Piloto1,001,112,
0.25,Stim\\02_075.jpg,Al75_3,Alegría,3,Andrea diseña la portada del libro.,Afirmación,Al75,75,,,,,,,,,,,,,0,53,53,53,,,,,3,0.450143335012,2018_may._08_1527,59.9855450325,Experimento Piloto1,001,112,
0.25,Stim\\02_028.jpg,Al28_1,Alegría,1,Juan colecciona monedas antiguas.,Afirmación,Al28,28,,,,,,,,,,,,,0,54,54,54,,,,,3,0.233718178024,2018_may._08_1527,59.9855450325,Experimento Piloto1,001,112,
0.25,Stim\\03_028.jpg,Tr28_3,Tristeza,3,Andrea diseña la portada del libro.,Afirmación,Tr28,28,,,,,,,,,,,,,0,55,55,55,,,,,4,0.383592514449,2018_may._08_1527,59.9855450325,Experimento Piloto1,001,112,
2.5,Stim\\02_078.jpg,Al78_11,Alegría,11,María asiste a la cena.,Afirmación,Al78,78,,,,,,,,,,,,,0,56,56,56,,,,,3,0.334271793883,2018_may._08_1527,59.9855450325,Experimento Piloto1,001,112,
0.25,Stim\\03_019.jpg,Tr19_12,Tristeza,12,Ana compra el libro.,Afirmación,Tr19,19,,,,,,,,,,,,,0,57,57,57,,,,,2,0.750164665689,2018_may._08_1527,59.9855450325,Experimento Piloto1,001,112,
2.5,Stim\\02_078.jpg,Al78_14,Alegría,14,Elizabeth elige la ropa un día antes.,Afirmación,Al78,78,,,,,,,,,,,,,0,58,58,58,,,,,3,1.48337635169,2018_may._08_1527,59.9855450325,Experimento Piloto1,001,112,
0.25,Stim\\03_019.jpg,Tr19_2,Tristeza,2,Jonathan pasea al perro.,Afirmación,Tr19,19,,,,,,,,,,,,,0,59,59,59,,,,,2,0.350258645616,2018_may._08_1527,59.9855450325,Experimento Piloto1,001,112,
2.5,Stim\\03_078.jpg,Tr78_1,Tristeza,1,Juan colecciona monedas antiguas.,Afirmación,Tr78,78,,,,,,,,,,,,,0,60,60,60,,,,,4,2.2998522025,2018_may._08_1527,59.9855450325,Experimento Piloto1,001,112,
0.25,Stim\\03_078.jpg,Tr78_4,Tristeza,4,Jorge sustituye a Gustavo cada sábado.,Afirmación,Tr78,78,,,,,,,,,,,,,0,61,61,61,,,,,4,0.450329420626,2018_may._08_1527,59.9855450325,Experimento Piloto1,001,112,
0.25,Stim\\05_019.jpg,En19_14,Enojo,14,Elizabeth elige la ropa un día antes.,Afirmación,En19,19,,,,,,,,,,,,,0,62,62,62,,,,,2,1.81651110445,2018_may._08_1527,59.9855450325,Experimento Piloto1,001,112,
0.25,Stim\\02_075.jpg,Al75_15,Alegría,15,Ángel envía una carta a la abuela.,Afirmación,Al75,75,,,,,,,,,,,,,0,63,63,63,,,,,3,0.650304073715,2018_may._08_1527,59.9855450325,Experimento Piloto1,001,112,
2.5,Stim\\03_028.jpg,Tr28_2,Tristeza,2,Jonathan pasea al perro.,Afirmación,Tr28,28,,,,,,,,,,,,,0,64,64,64,,,,,4,0.283737723705,2018_may._08_1527,59.9855450325,Experimento Piloto1,001,112,
0.25,Stim\\05_028.jpg,En28_3,Enojo,3,Andrea diseña la portada del libro.,Afirmación,En28,28,,,,,,,,,,,,,0,65,65,65,,,,,2,2.29961970705,2018_may._08_1527,59.9855450325,Experimento Piloto1,001,112,
0.25,Stim\\05_078.jpg,En78_3,Enojo,3,Andrea diseña la portada del libro.,Afirmación,En78,78,,,,,,,,,,,,,0,66,66,66,,,,,2,0.966409092045,2018_may._08_1527,59.9855450325,Experimento Piloto1,001,112,
0.25,Stim\\05_075.jpg,En75_9,Enojo,9,Marco colabora en la organización del evento.,Afirmación,En75,75,,,,,,,,,,,,,0,67,67,67,,,,,2,0.283902835643,2018_may._08_1527,59.9855450325,Experimento Piloto1,001,112,
2.5,Stim\\05_075.jpg,En75_7,Enojo,7,Roberto contesta los cuestionarios solicitados.,Afirmación,En75,75,,,,,,,,,,,,,0,68,68,68,,,,,2,0.233830632638,2018_may._08_1527,59.9855450325,Experimento Piloto1,001,112,
0.25,Stim\\03_078.jpg,Tr78_14,Tristeza,14,Elizabeth elige la ropa un día antes.,Afirmación,Tr78,78,,,,,,,,,,,,,0,69,69,69,,,,,4,0.233886859947,2018_may._08_1527,59.9855450325,Experimento Piloto1,001,112,
2.5,Stim\\03_019.jpg,Tr19_5,Tristeza,5,Emilio revisa el formato del archivo.,Afirmación,Tr19,19,,,,,,,,,,,,,0,70,70,70,,,,,2,0.299858449984,2018_may._08_1527,59.9855450325,Experimento Piloto1,001,112,
2.5,Stim\\05_028.jpg,En28_13,Enojo,13,Rocío consume alimentos nutritivos.,Afirmación,En28,28,,,,,,,,,,,,,0,71,71,71,,,,,4,0.183538429133,2018_may._08_1527,59.9855450325,Experimento Piloto1,001,112,
0.25,Stim\\05_075.jpg,En75_15,Enojo,15,Ángel envía una carta a la abuela.,Afirmación,En75,75,,,,,,,,,,,,,0,72,72,72,,,,,2,0.250327546382,2018_may._08_1527,59.9855450325,Experimento Piloto1,001,112,
2.5,Stim\\05_019.jpg,En19_6,Enojo,6,Eduardo camina hacia la biblioteca.,Afirmación,En19,19,,,,,,,,,,,,,0,73,73,73,,,,,2,0.350205095798,2018_may._08_1527,59.9855450325,Experimento Piloto1,001,112,
2.5,Stim\\05_078.jpg,En78_10,Enojo,10,Laura finaliza la obra.,Afirmación,En78,78,,,,,,,,,,,,,0,74,74,74,,,,,2,0.18368658363,2018_may._08_1527,59.9855450325,Experimento Piloto1,001,112,
2.5,Stim\\05_019.jpg,En19_9,Enojo,9,Marco colabora en la organización del evento.,Afirmación,En19,19,,,,,,,,,,,,,0,75,75,75,,,,,2,0.250660893998,2018_may._08_1527,59.9855450325,Experimento Piloto1,001,112,
2.5,Stim\\02_078.jpg,Al78_6,Alegría,6,Eduardo camina hacia la biblioteca.,Afirmación,Al78,78,,,,,,,,,,,,,0,76,76,76,,,,,3,0.200389664169,2018_may._08_1527,59.9855450325,Experimento Piloto1,001,112,
2.5,Stim\\05_078.jpg,En78_13,Enojo,13,Rocío consume alimentos nutritivos.,Afirmación,En78,78,,,,,,,,,,,,,0,77,77,77,,,,,2,1.31648968452,2018_may._08_1527,59.9855450325,Experimento Piloto1,001,112,
0.25,Stim\\05_028.jpg,En28_2,Enojo,2,Jonathan pasea al perro.,Afirmación,En28,28,,,,,,,,,,,,,0,78,78,78,,,,,2,0.283980482876,2018_may._08_1527,59.9855450325,Experimento Piloto1,001,112,
0.25,Stim\\05_019.jpg,En19_6,Enojo,6,Eduardo camina hacia la biblioteca.,Afirmación,En19,19,,,,,,,,,,,,,0,79,79,79,,,,,2,0.900026953408,2018_may._08_1527,59.9855450325,Experimento Piloto1,001,112,
2.5,Stim\\03_019.jpg,Tr19_11,Tristeza,11,María asiste a la cena.,Afirmación,Tr19,19,,,,,,,,,,,,,0,80,80,80,,,,,2,0.450287027023,2018_may._08_1527,59.9855450325,Experimento Piloto1,001,112,
2.5,Stim\\05_028.jpg,En28_11,Enojo,11,María asiste a la cena.,Afirmación,En28,28,,,,,,,,,,,,,0,81,81,81,,,,,2,0.200048730334,2018_may._08_1527,59.9855450325,Experimento Piloto1,001,112,
0.25,Stim\\02_078.jpg,Al78_9,Alegría,9,Marco colabora en la organización del evento.,Afirmación,Al78,78,,,,,,,,,,,,,0,82,82,82,,,,,3,0.600078361236,2018_may._08_1527,59.9855450325,Experimento Piloto1,001,112,
0.25,Stim\\05_019.jpg,En19_13,Enojo,13,Rocío consume alimentos nutritivos.,Afirmación,En19,19,,,,,,,,,,,,,0,83,83,83,,,,,2,0.23395290472,2018_may._08_1527,59.9855450325,Experimento Piloto1,001,112,
0.25,Stim\\03_078.jpg,Tr78_11,Tristeza,11,María asiste a la cena.,Afirmación,Tr78,78,,,,,,,,,,,,,0,84,84,84,,,,,4,2.75114373485,2018_may._08_1527,59.9855450325,Experimento Piloto1,001,112,
2.5,Stim\\05_028.jpg,En28_5,Enojo,5,Emilio revisa el formato del archivo.,Afirmación,En28,28,,,,,,,,,,,,,0,85,85,85,,,,,2,0.300034271884,2018_may._08_1527,59.9855450325,Experimento Piloto1,001,112,
0.25,Stim\\03_028.jpg,Tr28_10,Tristeza,10,Laura finaliza la obra.,Afirmación,Tr28,28,,,,,,,,,,,,,0,86,86,86,,,,,4,0.250402962378,2018_may._08_1527,59.9855450325,Experimento Piloto1,001,112,
0.25,Stim\\05_019.jpg,En19_11,Enojo,11,María asiste a la cena.,Afirmación,En19,19,,,,,,,,,,,,,0,87,87,87,,,,,2,0.750673388953,2018_may._08_1527,59.9855450325,Experimento Piloto1,001,112,
2.5,Stim\\03_028.jpg,Tr28_9,Tristeza,9,Marco colabora en la organización del evento.,Afirmación,Tr28,28,,,,,,,,,,,,,0,88,88,88,,,,,4,0.649881922654,2018_may._08_1527,59.9855450325,Experimento Piloto1,001,112,
2.5,Stim\\05_019.jpg,En19_8,Enojo,8,Estefanía despierta a las 7 a.m.,Afirmación,En19,19,,,,,,,,,,,,,0,89,89,89,,,,,2,0.333883557709,2018_may._08_1527,59.9855450325,Experimento Piloto1,001,112,
0.25,Stim\\03_075.jpg,Tr75_9,Tristeza,9,Marco colabora en la organización del evento.,Afirmación,Tr75,75,,,,,,,,,,,,,0,90,90,90,,,,,4,1.78311743832,2018_may._08_1527,59.9855450325,Experimento Piloto1,001,112,
2.5,Stim\\02_075.jpg,Al75_3,Alegría,3,Andrea diseña la portada del libro.,Afirmación,Al75,75,,,,,,,,,,,,,0,91,91,91,,,,,3,0.283365552474,2018_may._08_1527,59.9855450325,Experimento Piloto1,001,112,
0.25,Stim\\05_028.jpg,En28_12,Enojo,12,Ana compra el libro.,Afirmación,En28,28,,,,,,,,,,,,,0,92,92,92,,,,,2,0.184115874665,2018_may._08_1527,59.9855450325,Experimento Piloto1,001,112,
0.25,Stim\\03_028.jpg,Tr28_7,Tristeza,7,Roberto contesta los cuestionarios solicitados.,Afirmación,Tr28,28,,,,,,,,,,,,,0,93,93,93,,,,,4,0.183743703434,2018_may._08_1527,59.9855450325,Experimento Piloto1,001,112,
0.25,Stim\\03_019.jpg,Tr19_8,Tristeza,8,Estefanía despierta a las 7 a.m.,Afirmación,Tr19,19,,,,,,,,,,,,,0,94,94,94,,,,,2,0.25058681675,2018_may._08_1527,59.9855450325,Experimento Piloto1,001,112,
0.25,Stim\\02_019.jpg,Al19_4,Alegría,4,Jorge sustituye a Gustavo cada sábado.,Afirmación,Al19,19,,,,,,,,,,,,,0,95,95,95,,,,,3,0.25058994049,2018_may._08_1527,59.9855450325,Experimento Piloto1,001,112,
2.5,Stim\\05_019.jpg,En19_15,Enojo,15,Ángel envía una carta a la abuela.,Afirmación,En19,19,,,,,,,,,,,,,0,96,96,96,,,,,2,0.28348737831,2018_may._08_1527,59.9855450325,Experimento Piloto1,001,112,
0.25,Stim\\05_075.jpg,En75_13,Enojo,13,Rocío consume alimentos nutritivos.,Afirmación,En75,75,,,,,,,,,,,,,0,97,97,97,,,,,2,0.350071221255,2018_may._08_1527,59.9855450325,Experimento Piloto1,001,112,
0.25,Stim\\02_078.jpg,Al78_7,Alegría,7,Roberto contesta los cuestionarios solicitados.,Afirmación,Al78,78,,,,,,,,,,,,,0,98,98,98,,,,,2,0.333791630517,2018_may._08_1527,59.9855450325,Experimento Piloto1,001,112,
2.5,Stim\\03_028.jpg,Tr28_3,Tristeza,3,Andrea diseña la portada del libro.,Afirmación,Tr28,28,,,,,,,,,,,,,0,99,99,99,,,,,4,0.200256682125,2018_may._08_1527,59.9855450325,Experimento Piloto1,001,112,
2.5,Stim\\05_075.jpg,En75_15,Enojo,15,Ángel envía una carta a la abuela.,Afirmación,En75,75,,,,,,,,,,,,,0,100,100,100,,,,,3,6.99855147744,2018_may._08_1527,59.9855450325,Experimento Piloto1,001,112,
0.25,Stim\\02_028.jpg,Al28_13,Alegría,13,Rocío consume alimentos nutritivos.,Afirmación,Al28,28,,,,,,,,,,,,,0,101,101,101,,,,,3,0.183775387075,2018_may._08_1527,59.9855450325,Experimento Piloto1,001,112,
0.25,Stim\\03_028.jpg,Tr28_15,Tristeza,15,Ángel envía una carta a la abuela.,Afirmación,Tr28,28,,,,,,,,,,,,,0,102,102,102,,,,,4,0.283759589882,2018_may._08_1527,59.9855450325,Experimento Piloto1,001,112,
0.25,Stim\\05_019.jpg,En19_2,Enojo,2,Jonathan pasea al perro.,Afirmación,En19,19,,,,,,,,,,,,,0,103,103,103,,,,,2,0.300248471154,2018_may._08_1527,59.9855450325,Experimento Piloto1,001,112,
0.25,Stim\\03_078.jpg,Tr78_13,Tristeza,13,Rocío consume alimentos nutritivos.,Afirmación,Tr78,78,,,,,,,,,,,,,0,104,104,104,,,,,3,0.301067783359,2018_may._08_1527,59.9855450325,Experimento Piloto1,001,112,
2.5,Stim\\03_075.jpg,Tr75_2,Tristeza,2,Jonathan pasea al perro.,Afirmación,Tr75,75,,,,,,,,,,,,,0,105,105,105,,,,,4,0.233815906438,2018_may._08_1527,59.9855450325,Experimento Piloto1,001,112,
2.5,Stim\\05_075.jpg,En75_10,Enojo,10,Laura finaliza la obra.,Afirmación,En75,75,,,,,,,,,,,,,0,106,106,106,,,,,2,0.250477932117,2018_may._08_1527,59.9855450325,Experimento Piloto1,001,112,
2.5,Stim\\05_028.jpg,En28_3,Enojo,3,Andrea diseña la portada del libro.,Afirmación,En28,28,,,,,,,,,,,,,0,107,107,107,,,,,2,0.184118552155,2018_may._08_1527,59.9855450325,Experimento Piloto1,001,112,
2.5,Stim\\02_078.jpg,Al78_8,Alegría,8,Estefanía despierta a las 7 a.m.,Afirmación,Al78,78,,,,,,,,,,,,,0,108,108,108,,,,,3,0.33379475426,2018_may._08_1527,59.9855450325,Experimento Piloto1,001,112,
2.5,Stim\\05_075.jpg,En75_2,Enojo,2,Jonathan pasea al perro.,Afirmación,En75,75,,,,,,,,,,,,,0,109,109,109,,,,,2,0.300426078044,2018_may._08_1527,59.9855450325,Experimento Piloto1,001,112,
0.25,Stim\\05_078.jpg,En78_2,Enojo,2,Jonathan pasea al perro.,Afirmación,En78,78,,,,,,,,,,,,,0,110,110,110,,,,,2,1.26666291818,2018_may._08_1527,59.9855450325,Experimento Piloto1,001,112,
2.5,Stim\\05_078.jpg,En78_14,Enojo,14,Elizabeth elige la ropa un día antes.,Afirmación,En78,78,,,,,,,,,,,,,0,111,111,111,,,,,2,0.383664806704,2018_may._08_1527,59.9855450325,Experimento Piloto1,001,112,
2.5,Stim\\05_028.jpg,En28_1,Enojo,1,Juan colecciona monedas antiguas.,Afirmación,En28,28,,,,,,,,,,,,,0,112,112,112,,,,,2,0.33364838476,2018_may._08_1527,59.9855450325,Experimento Piloto1,001,112,
0.25,Stim\\05_019.jpg,En19_12,Enojo,12,Ana compra el libro.,Afirmación,En19,19,,,,,,,,,,,,,0,113,113,113,,,,,2,0.200014369202,2018_may._08_1527,59.9855450325,Experimento Piloto1,001,112,
0.25,Stim\\02_075.jpg,Al75_13,Alegría,13,Rocío consume alimentos nutritivos.,Afirmación,Al75,75,,,,,,,,,,,,,0,114,114,114,,,,,3,0.300455976696,2018_may._08_1527,59.9855450325,Experimento Piloto1,001,112,
2.5,Stim\\03_019.jpg,Tr19_6,Tristeza,6,Eduardo camina hacia la biblioteca.,Afirmación,Tr19,19,,,,,,,,,,,,,0,115,115,115,,,,,2,0.133849999824,2018_may._08_1527,59.9855450325,Experimento Piloto1,001,112,
2.5,Stim\\05_028.jpg,En28_14,Enojo,14,Elizabeth elige la ropa un día antes.,Afirmación,En28,28,,,,,,,,,,,,,0,116,116,116,,,,,2,0.183822243165,2018_may._08_1527,59.9855450325,Experimento Piloto1,001,112,
2.5,Stim\\02_028.jpg,Al28_5,Alegría,5,Emilio revisa el formato del archivo.,Afirmación,Al28,28,,,,,,,,,,,,,0,117,117,117,,,,,3,0.200431165278,2018_may._08_1527,59.9855450325,Experimento Piloto1,001,112,
2.5,Stim\\02_078.jpg,Al78_9,Alegría,9,Marco colabora en la organización del evento.,Afirmación,Al78,78,,,,,,,,,,,,,0,118,118,118,,,,,3,0.333792523015,2018_may._08_1527,59.9855450325,Experimento Piloto1,001,112,
0.25,Stim\\03_019.jpg,Tr19_3,Tristeza,3,Andrea diseña la portada del libro.,Afirmación,Tr19,19,,,,,,,,,,,,,0,119,119,119,,,,,2,0.200192422344,2018_may._08_1527,59.9855450325,Experimento Piloto1,001,112,
