Tiempo,ImagenesE,ClaveEn,Emocion,NumEn,Enunciado,ActoHabla,Clave,Cara,trials.thisRepN,trials.thisTrialN,trials.thisN,trials.thisIndex,Bloque1.thisRepN,Bloque1.thisTrialN,Bloque1.thisN,Bloque1.thisIndex,Bloque2.thisRepN,Bloque2.thisTrialN,Bloque2.thisN,Bloque2.thisIndex,Bloque3.thisRepN,Bloque3.thisTrialN,Bloque3.thisN,Bloque3.thisIndex,Resp_Bloque1.keys,Resp_Bloque1.rt,Resp_Bloque2.keys,Resp_Bloque2.rt,Resp_Bloque3.keys,Resp_Bloque3.rt,date,frameRate,expName,session,participant,
0.25,Stim\\03_028.jpg,Tr28_2,Tristeza,2,Jonathan pasea al perro.,Afirmación,Tr28,28,,,,,0,0,0,0,,,,,,,,,4,0.950079990004,,,,,2018_may._08_1811,60.0468122393,Experimento Piloto1,001,113,
2.5,Stim\\05_075.jpg,En75_12,Enojo,12,Ana compra el libro.,Afirmación,En75,75,,,,,0,1,1,1,,,,,,,,,2,2.49972622668,,,,,2018_may._08_1811,60.0468122393,Experimento Piloto1,001,113,
0.25,Stim\\02_078.jpg,Al78_11,Alegría,11,María asiste a la cena.,Afirmación,Al78,78,,,,,0,2,2,2,,,,,,,,,3,0.85080581283,,,,,2018_may._08_1811,60.0468122393,Experimento Piloto1,001,113,
0.25,Stim\\02_078.jpg,Al78_8,Alegría,8,Estefanía despierta a las 7 a.m.,Afirmación,Al78,78,,,,,0,3,3,3,,,,,,,,,3,0.500388459127,,,,,2018_may._08_1811,60.0468122393,Experimento Piloto1,001,113,
0.25,Stim\\05_028.jpg,En28_6,Enojo,6,Eduardo camina hacia la biblioteca.,Afirmación,En28,28,,,,,0,4,4,4,,,,,,,,,3,0.850421593062,,,,,2018_may._08_1811,60.0468122393,Experimento Piloto1,001,113,
0.25,Stim\\02_019.jpg,Al19_14,Alegría,14,Elizabeth elige la ropa un día antes.,Afirmación,Al19,19,,,,,0,5,5,5,,,,,,,,,3,0.600457404486,,,,,2018_may._08_1811,60.0468122393,Experimento Piloto1,001,113,
2.5,Stim\\05_078.jpg,En78_1,Enojo,1,Juan colecciona monedas antiguas.,Afirmación,En78,78,,,,,0,6,6,6,,,,,,,,,2,1.00002989863,,,,,2018_may._08_1811,60.0468122393,Experimento Piloto1,001,113,
2.5,Stim\\02_078.jpg,Al78_15,Alegría,15,Ángel envía una carta a la abuela.,Afirmación,Al78,78,,,,,0,7,7,7,,,,,,,,,3,0.449679482174,,,,,2018_may._08_1811,60.0468122393,Experimento Piloto1,001,113,
0.25,Stim\\02_075.jpg,Al75_14,Alegría,14,Elizabeth elige la ropa un día antes.,Afirmación,Al75,75,,,,,0,8,8,8,,,,,,,,,3,0.800401177203,,,,,2018_may._08_1811,60.0468122393,Experimento Piloto1,001,113,
2.5,Stim\\02_075.jpg,Al75_2,Alegría,2,Jonathan pasea al perro.,Afirmación,Al75,75,,,,,0,9,9,9,,,,,,,,,3,0.550497232145,,,,,2018_may._08_1811,60.0468122393,Experimento Piloto1,001,113,
0.25,Stim\\05_075.jpg,En75_12,Enojo,12,Ana compra el libro.,Afirmación,En75,75,,,,,0,10,10,10,,,,,,,,,2,1.56683705913,,,,,2018_may._08_1811,60.0468122393,Experimento Piloto1,001,113,
2.5,Stim\\03_078.jpg,Tr78_8,Tristeza,8,Estefanía despierta a las 7 a.m.,Afirmación,Tr78,78,,,,,0,11,11,11,,,,,,,,,4,0.717006745043,,,,,2018_may._08_1811,60.0468122393,Experimento Piloto1,001,113,
0.25,Stim\\03_078.jpg,Tr78_15,Tristeza,15,Ángel envía una carta a la abuela.,Afirmación,Tr78,78,,,,,0,12,12,12,,,,,,,,,4,1.81675082165,,,,,2018_may._08_1811,60.0468122393,Experimento Piloto1,001,113,
0.25,Stim\\03_078.jpg,Tr78_5,Tristeza,5,Emilio revisa el formato del archivo.,Afirmación,Tr78,78,,,,,0,13,13,13,,,,,,,,,4,0.849837007816,,,,,2018_may._08_1811,60.0468122393,Experimento Piloto1,001,113,
2.5,Stim\\02_019.jpg,Al19_5,Alegría,5,Emilio revisa el formato del archivo.,Afirmación,Al19,19,,,,,0,14,14,14,,,,,,,,,3,0.484282912484,,,,,2018_may._08_1811,60.0468122393,Experimento Piloto1,001,113,
2.5,Stim\\03_075.jpg,Tr75_10,Tristeza,10,Laura finaliza la obra.,Afirmación,Tr75,75,,,,,0,15,15,15,,,,,,,,,4,0.600538621673,,,,,2018_may._08_1811,60.0468122393,Experimento Piloto1,001,113,
2.5,Stim\\03_075.jpg,Tr75_4,Tristeza,4,Jorge sustituye a Gustavo cada sábado.,Afirmación,Tr75,75,,,,,0,16,16,16,,,,,,,,,3,0.551060843722,,,,,2018_may._08_1811,60.0468122393,Experimento Piloto1,001,113,
0.25,Stim\\03_028.jpg,Tr28_5,Tristeza,5,Emilio revisa el formato del archivo.,Afirmación,Tr28,28,,,,,0,17,17,17,,,,,,,,,4,3.31608925858,,,,,2018_may._08_1811,60.0468122393,Experimento Piloto1,001,113,
0.25,Stim\\05_075.jpg,En75_11,Enojo,11,María asiste a la cena.,Afirmación,En75,75,,,,,0,18,18,18,,,,,,,,,2,1.46682210982,,,,,2018_may._08_1811,60.0468122393,Experimento Piloto1,001,113,
0.25,Stim\\02_075.jpg,Al75_6,Alegría,6,Eduardo camina hacia la biblioteca.,Afirmación,Al75,75,,,,,0,19,19,19,,,,,,,,,3,0.650365365779,,,,,2018_may._08_1811,60.0468122393,Experimento Piloto1,001,113,
0.25,Stim\\05_078.jpg,En78_1,Enojo,1,Juan colecciona monedas antiguas.,Afirmación,En78,78,,,,,0,20,20,20,,,,,,,,,2,3.31614503962,,,,,2018_may._08_1811,60.0468122393,Experimento Piloto1,001,113,
2.5,Stim\\03_019.jpg,Tr19_4,Tristeza,4,Jorge sustituye a Gustavo cada sábado.,Afirmación,Tr19,19,,,,,0,21,21,21,,,,,,,,,3,1.41694226217,,,,,2018_may._08_1811,60.0468122393,Experimento Piloto1,001,113,
0.25,Stim\\03_028.jpg,Tr28_11,Tristeza,11,María asiste a la cena.,Afirmación,Tr28,28,,,,,0,22,22,22,,,,,,,,,4,0.433694422566,,,,,2018_may._08_1811,60.0468122393,Experimento Piloto1,001,113,
0.25,Stim\\02_019.jpg,Al19_7,Alegría,7,Roberto contesta los cuestionarios solicitados.,Afirmación,Al19,19,,,,,0,23,23,23,,,,,,,,,3,0.500234503471,,,,,2018_may._08_1811,60.0468122393,Experimento Piloto1,001,113,
0.25,Stim\\05_028.jpg,En28_1,Enojo,1,Juan colecciona monedas antiguas.,Afirmación,En28,28,,,,,0,24,24,24,,,,,,,,,2,1.36657064891,,,,,2018_may._08_1811,60.0468122393,Experimento Piloto1,001,113,
0.25,Stim\\03_019.jpg,Tr19_6,Tristeza,6,Eduardo camina hacia la biblioteca.,Afirmación,Tr19,19,,,,,0,25,25,25,,,,,,,,,2,1.4833975559,,,,,2018_may._08_1811,60.0468122393,Experimento Piloto1,001,113,
0.25,Stim\\03_078.jpg,Tr78_7,Tristeza,7,Roberto contesta los cuestionarios solicitados.,Afirmación,Tr78,78,,,,,0,26,26,26,,,,,,,,,4,0.550321410323,,,,,2018_may._08_1811,60.0468122393,Experimento Piloto1,001,113,
2.5,Stim\\03_019.jpg,Tr19_15,Tristeza,15,Ángel envía una carta a la abuela.,Afirmación,Tr19,19,,,,,0,27,27,27,,,,,,,,,3,0.40038109603,,,,,2018_may._08_1811,60.0468122393,Experimento Piloto1,001,113,
2.5,Stim\\02_028.jpg,Al28_4,Alegría,4,Jorge sustituye a Gustavo cada sábado.,Afirmación,Al28,28,,,,,0,28,28,28,,,,,,,,,3,0.483791593129,,,,,2018_may._08_1811,60.0468122393,Experimento Piloto1,001,113,
2.5,Stim\\03_078.jpg,Tr78_5,Tristeza,5,Emilio revisa el formato del archivo.,Afirmación,Tr78,78,,,,,0,29,29,29,,,,,,,,,4,0.400356552375,,,,,2018_may._08_1811,60.0468122393,Experimento Piloto1,001,113,
2.5,Stim\\03_028.jpg,Tr28_12,Tristeza,12,Ana compra el libro.,Afirmación,Tr28,28,,,,,0,30,30,30,,,,,,,,,4,0.500454503872,,,,,2018_may._08_1811,60.0468122393,Experimento Piloto1,001,113,
0.25,Stim\\02_028.jpg,Al28_2,Alegría,2,Jonathan pasea al perro.,Afirmación,Al28,28,,,,,0,31,31,31,,,,,,,,,3,0.450298874785,,,,,2018_may._08_1811,60.0468122393,Experimento Piloto1,001,113,
0.25,Stim\\05_019.jpg,En19_8,Enojo,8,Estefanía despierta a las 7 a.m.,Afirmación,En19,19,,,,,0,32,32,32,,,,,,,,,3,0.450292181061,,,,,2018_may._08_1811,60.0468122393,Experimento Piloto1,001,113,
0.25,Stim\\03_019.jpg,Tr19_9,Tristeza,9,Marco colabora en la organización del evento.,Afirmación,Tr19,19,,,,,0,33,33,33,,,,,,,,,3,0.383617779424,,,,,2018_may._08_1811,60.0468122393,Experimento Piloto1,001,113,
2.5,Stim\\02_078.jpg,Al78_10,Alegría,10,Laura finaliza la obra.,Afirmación,Al78,78,,,,,0,34,34,34,,,,,,,,,3,0.350379422599,,,,,2018_may._08_1811,60.0468122393,Experimento Piloto1,001,113,
2.5,Stim\\02_075.jpg,Al75_15,Alegría,15,Ángel envía una carta a la abuela.,Afirmación,Al75,75,,,,,0,35,35,35,,,,,,,,,3,0.383563337134,,,,,2018_may._08_1811,60.0468122393,Experimento Piloto1,001,113,
2.5,Stim\\03_028.jpg,Tr28_6,Tristeza,6,Eduardo camina hacia la biblioteca.,Afirmación,Tr28,28,,,,,0,36,36,36,,,,,,,,,4,1.10050671492,,,,,2018_may._08_1811,60.0468122393,Experimento Piloto1,001,113,
0.25,Stim\\03_075.jpg,Tr75_14,Tristeza,14,Elizabeth elige la ropa un día antes.,Afirmación,Tr75,75,,,,,0,37,37,37,,,,,,,,,3,0.400286491395,,,,,2018_may._08_1811,60.0468122393,Experimento Piloto1,001,113,
2.5,Stim\\05_075.jpg,En75_13,Enojo,13,Rocío consume alimentos nutritivos.,Afirmación,En75,75,,,,,0,38,38,38,,,,,,,,,2,0.916847880655,,,,,2018_may._08_1811,60.0468122393,Experimento Piloto1,001,113,
2.5,Stim\\03_075.jpg,Tr75_8,Tristeza,8,Estefanía despierta a las 7 a.m.,Afirmación,Tr75,75,,,,,0,39,39,39,,,,,,,,,4,0.333567018682,,,,,2018_may._08_1811,60.0468122393,Experimento Piloto1,001,113,
0.25,Stim\\05_075.jpg,En75_7,Enojo,7,Roberto contesta los cuestionarios solicitados.,Afirmación,En75,75,,,,,0,40,40,40,,,,,,,,,2,0.450165000301,,,,,2018_may._08_1811,60.0468122393,Experimento Piloto1,001,113,
2.5,Stim\\03_019.jpg,Tr19_10,Tristeza,10,Laura finaliza la obra.,Afirmación,Tr19,19,,,,,0,41,41,41,,,,,,,,,3,0.333628600945,,,,,2018_may._08_1811,60.0468122393,Experimento Piloto1,001,113,
2.5,Stim\\03_019.jpg,Tr19_2,Tristeza,2,Jonathan pasea al perro.,Afirmación,Tr19,19,,,,,0,42,42,42,,,,,,,,,3,0.283751877032,,,,,2018_may._08_1811,60.0468122393,Experimento Piloto1,001,113,
0.25,Stim\\03_075.jpg,Tr75_15,Tristeza,15,Ángel envía una carta a la abuela.,Afirmación,Tr75,75,,,,,0,43,43,43,,,,,,,,,4,0.400371278568,,,,,2018_may._08_1811,60.0468122393,Experimento Piloto1,001,113,
0.25,Stim\\05_019.jpg,En19_1,Enojo,1,Juan colecciona monedas antiguas.,Afirmación,En19,19,,,,,0,44,44,44,,,,,,,,,2,1.26667886412,,,,,2018_may._08_1811,60.0468122393,Experimento Piloto1,001,113,
0.25,Stim\\03_078.jpg,Tr78_2,Tristeza,2,Jonathan pasea al perro.,Afirmación,Tr78,78,,,,,0,45,45,45,,,,,,,,,4,0.383669097976,,,,,2018_may._08_1811,60.0468122393,Experimento Piloto1,001,113,
2.5,Stim\\02_019.jpg,Al19_9,Alegría,9,Marco colabora en la organización del evento.,Afirmación,Al19,19,,,,,0,46,46,46,,,,,,,,,3,0.450142687887,,,,,2018_may._08_1811,60.0468122393,Experimento Piloto1,001,113,
2.5,Stim\\03_028.jpg,Tr28_11,Tristeza,11,María asiste a la cena.,Afirmación,Tr28,28,,,,,0,47,47,47,,,,,,,,,4,0.333792374063,,,,,2018_may._08_1811,60.0468122393,Experimento Piloto1,001,113,
2.5,Stim\\05_078.jpg,En78_6,Enojo,6,Eduardo camina hacia la biblioteca.,Afirmación,En78,78,,,,,0,48,48,48,,,,,,,,,2,1.98351871231,,,,,2018_may._08_1811,60.0468122393,Experimento Piloto1,001,113,
2.5,Stim\\02_028.jpg,Al28_14,Alegría,14,Elizabeth elige la ropa un día antes.,Afirmación,Al28,28,,,,,0,49,49,49,,,,,,,,,3,0.450301998523,,,,,2018_may._08_1811,60.0468122393,Experimento Piloto1,001,113,
0.25,Stim\\03_019.jpg,Tr19_10,Tristeza,10,Laura finaliza la obra.,Afirmación,Tr19,19,,,,,0,50,50,50,,,,,,,,,3,0.350376298861,,,,,2018_may._08_1811,60.0468122393,Experimento Piloto1,001,113,
2.5,Stim\\05_019.jpg,En19_2,Enojo,2,Jonathan pasea al perro.,Afirmación,En19,19,,,,,0,51,51,51,,,,,,,,,2,0.65035465582,,,,,2018_may._08_1811,60.0468122393,Experimento Piloto1,001,113,
0.25,Stim\\05_078.jpg,En78_5,Enojo,5,Emilio revisa el formato del archivo.,Afirmación,En78,78,,,,,0,52,52,52,,,,,,,,,2,0.550357110185,,,,,2018_may._08_1811,60.0468122393,Experimento Piloto1,001,113,
2.5,Stim\\02_075.jpg,Al75_5,Alegría,5,Emilio revisa el formato del archivo.,Afirmación,Al75,75,,,,,0,53,53,53,,,,,,,,,3,0.450355994565,,,,,2018_may._08_1811,60.0468122393,Experimento Piloto1,001,113,
0.25,Stim\\05_028.jpg,En28_9,Enojo,9,Marco colabora en la organización del evento.,Afirmación,En28,28,,,,,0,54,54,54,,,,,,,,,2,0.400169128098,,,,,2018_may._08_1811,60.0468122393,Experimento Piloto1,001,113,
2.5,Stim\\03_019.jpg,Tr19_1,Tristeza,1,Juan colecciona monedas antiguas.,Afirmación,Tr19,19,,,,,0,55,55,55,,,,,,,,,3,0.283601491362,,,,,2018_may._08_1811,60.0468122393,Experimento Piloto1,001,113,
0.25,Stim\\02_028.jpg,Al28_3,Alegría,3,Andrea diseña la portada del libro.,Afirmación,Al28,28,,,,,0,56,56,56,,,,,,,,,3,0.550270091771,,,,,2018_may._08_1811,60.0468122393,Experimento Piloto1,001,113,
0.25,Stim\\05_028.jpg,En28_5,Enojo,5,Emilio revisa el formato del archivo.,Afirmación,En28,28,,,,,0,57,57,57,,,,,,,,,2,0.400356106127,,,,,2018_may._08_1811,60.0468122393,Experimento Piloto1,001,113,
2.5,Stim\\03_078.jpg,Tr78_15,Tristeza,15,Ángel envía una carta a la abuela.,Afirmación,Tr78,78,,,,,0,58,58,58,,,,,,,,,4,1.16667194727,,,,,2018_may._08_1811,60.0468122393,Experimento Piloto1,001,113,
0.25,Stim\\02_078.jpg,Al78_10,Alegría,10,Laura finaliza la obra.,Afirmación,Al78,78,,,,,0,59,59,59,,,,,,,,,3,0.300382657899,,,,,2018_may._08_1811,60.0468122393,Experimento Piloto1,001,113,
0.25,Stim\\03_075.jpg,Tr75_7,Tristeza,7,Roberto contesta los cuestionarios solicitados.,Afirmación,Tr75,75,,,,,0,60,60,60,,,,,,,,,4,0.350108996142,,,,,2018_may._08_1811,60.0468122393,Experimento Piloto1,001,113,
0.25,Stim\\03_075.jpg,Tr75_5,Tristeza,5,Emilio revisa el formato del archivo.,Afirmación,Tr75,75,,,,,0,61,61,61,,,,,,,,,4,0.400301663837,,,,,2018_may._08_1811,60.0468122393,Experimento Piloto1,001,113,
0.25,Stim\\05_075.jpg,En75_14,Enojo,14,Elizabeth elige la ropa un día antes.,Afirmación,En75,75,,,,,0,62,62,62,,,,,,,,,3,0.550327657799,,,,,2018_may._08_1811,60.0468122393,Experimento Piloto1,001,113,
0.25,Stim\\05_075.jpg,En75_2,Enojo,2,Jonathan pasea al perro.,Afirmación,En75,75,,,,,0,63,63,63,,,,,,,,,2,0.333929372285,,,,,2018_may._08_1811,60.0468122393,Experimento Piloto1,001,113,
0.25,Stim\\02_078.jpg,Al78_6,Alegría,6,Eduardo camina hacia la biblioteca.,Afirmación,Al78,78,,,,,0,64,64,64,,,,,,,,,3,0.900177829939,,,,,2018_may._08_1811,60.0468122393,Experimento Piloto1,001,113,
0.25,Stim\\03_075.jpg,Tr75_4,Tristeza,4,Jorge sustituye a Gustavo cada sábado.,Afirmación,Tr75,75,,,,,0,65,65,65,,,,,,,,,3,2.39974251474,,,,,2018_may._08_1811,60.0468122393,Experimento Piloto1,001,113,
0.25,Stim\\03_075.jpg,Tr75_3,Tristeza,3,Andrea diseña la portada del libro.,Afirmación,Tr75,75,,,,,0,66,66,66,,,,,,,,,4,0.300367931706,,,,,2018_may._08_1811,60.0468122393,Experimento Piloto1,001,113,
0.25,Stim\\02_028.jpg,Al28_10,Alegría,10,Laura finaliza la obra.,Afirmación,Al28,28,,,,,0,67,67,67,,,,,,,,,3,0.399750547212,,,,,2018_may._08_1811,60.0468122393,Experimento Piloto1,001,113,
0.25,Stim\\03_028.jpg,Tr28_12,Tristeza,12,Ana compra el libro.,Afirmación,Tr28,28,,,,,0,68,68,68,,,,,,,,,4,0.450345730854,,,,,2018_may._08_1811,60.0468122393,Experimento Piloto1,001,113,
0.25,Stim\\03_075.jpg,Tr75_10,Tristeza,10,Laura finaliza la obra.,Afirmación,Tr75,75,,,,,0,69,69,69,,,,,,,,,3,1.00014369195,,,,,2018_may._08_1811,60.0468122393,Experimento Piloto1,001,113,
0.25,Stim\\02_028.jpg,Al28_8,Alegría,8,Estefanía despierta a las 7 a.m.,Afirmación,Al28,28,,,,,0,70,70,70,,,,,,,,,3,0.45031583222,,,,,2018_may._08_1811,60.0468122393,Experimento Piloto1,001,113,
0.25,Stim\\05_078.jpg,En78_14,Enojo,14,Elizabeth elige la ropa un día antes.,Afirmación,En78,78,,,,,0,71,71,71,,,,,,,,,2,0.433652921476,,,,,2018_may._08_1811,60.0468122393,Experimento Piloto1,001,113,
2.5,Stim\\03_078.jpg,Tr78_9,Tristeza,9,Marco colabora en la organización del evento.,Afirmación,Tr78,78,,,,,0,72,72,72,,,,,,,,,4,0.800238296581,,,,,2018_may._08_1811,60.0468122393,Experimento Piloto1,001,113,
0.25,Stim\\02_019.jpg,Al19_3,Alegría,3,Andrea diseña la portada del libro.,Afirmación,Al19,19,,,,,0,73,73,73,,,,,,,,,3,0.2504635404,,,,,2018_may._08_1811,60.0468122393,Experimento Piloto1,001,113,
0.25,Stim\\03_078.jpg,Tr78_6,Tristeza,6,Eduardo camina hacia la biblioteca.,Afirmación,Tr78,78,,,,,0,74,74,74,,,,,,,,,4,0.333719635594,,,,,2018_may._08_1811,60.0468122393,Experimento Piloto1,001,113,
0.25,Stim\\03_028.jpg,Tr28_8,Tristeza,8,Estefanía despierta a las 7 a.m.,Afirmación,Tr28,28,,,,,0,75,75,75,,,,,,,,,4,1.16681787046,,,,,2018_may._08_1811,60.0468122393,Experimento Piloto1,001,113,
2.5,Stim\\05_078.jpg,En78_9,Enojo,9,Marco colabora en la organización del evento.,Afirmación,En78,78,,,,,0,76,76,76,,,,,,,,,2,0.700423266493,,,,,2018_may._08_1811,60.0468122393,Experimento Piloto1,001,113,
2.5,Stim\\02_028.jpg,Al28_6,Alegría,6,Eduardo camina hacia la biblioteca.,Afirmación,Al28,28,,,,,0,77,77,77,,,,,,,,,3,0.500261278368,,,,,2018_may._08_1811,60.0468122393,Experimento Piloto1,001,113,
2.5,Stim\\03_078.jpg,Tr78_6,Tristeza,6,Eduardo camina hacia la biblioteca.,Afirmación,Tr78,78,,,,,0,78,78,78,,,,,,,,,4,0.866540080905,,,,,2018_may._08_1811,60.0468122393,Experimento Piloto1,001,113,
2.5,Stim\\02_078.jpg,Al78_2,Alegría,2,Jonathan pasea al perro.,Afirmación,Al78,78,,,,,0,79,79,79,,,,,,,,,3,1.88321905659,,,,,2018_may._08_1811,60.0468122393,Experimento Piloto1,001,113,
2.5,Stim\\02_028.jpg,Al28_10,Alegría,10,Laura finaliza la obra.,Afirmación,Al28,28,,,,,0,80,80,80,,,,,,,,,3,0.333770061649,,,,,2018_may._08_1811,60.0468122393,Experimento Piloto1,001,113,
2.5,Stim\\02_019.jpg,Al19_15,Alegría,15,Ángel envía una carta a la abuela.,Afirmación,Al19,19,,,,,0,81,81,81,,,,,,,,,3,0.250373398248,,,,,2018_may._08_1811,60.0468122393,Experimento Piloto1,001,113,
0.25,Stim\\03_019.jpg,Tr19_5,Tristeza,5,Emilio revisa el formato del archivo.,Afirmación,Tr19,19,,,,,0,82,82,82,,,,,,,,,3,0.183838672322,,,,,2018_may._08_1811,60.0468122393,Experimento Piloto1,001,113,
0.25,Stim\\02_075.jpg,Al75_12,Alegría,12,Ana compra el libro.,Afirmación,Al75,75,,,,,0,83,83,83,,,,,,,,,3,0.550594068022,,,,,2018_may._08_1811,60.0468122393,Experimento Piloto1,001,113,
2.5,Stim\\05_078.jpg,En78_3,Enojo,3,Andrea diseña la portada del libro.,Afirmación,En78,78,,,,,0,84,84,84,,,,,,,,,2,0.399988843793,,,,,2018_may._08_1811,60.0468122393,Experimento Piloto1,001,113,
2.5,Stim\\03_075.jpg,Tr75_5,Tristeza,5,Emilio revisa el formato del archivo.,Afirmación,Tr75,75,,,,,0,85,85,85,,,,,,,,,4,1.56667908724,,,,,2018_may._08_1811,60.0468122393,Experimento Piloto1,001,113,
2.5,Stim\\05_028.jpg,En28_2,Enojo,2,Jonathan pasea al perro.,Afirmación,En28,28,,,,,0,86,86,86,,,,,,,,,2,0.450312262233,,,,,2018_may._08_1811,60.0468122393,Experimento Piloto1,001,113,
0.25,Stim\\03_028.jpg,Tr28_9,Tristeza,9,Marco colabora en la organización del evento.,Afirmación,Tr28,28,,,,,0,87,87,87,,,,,,,,,3,1.31692820535,,,,,2018_may._08_1811,60.0468122393,Experimento Piloto1,001,113,
0.25,Stim\\03_078.jpg,Tr78_9,Tristeza,9,Marco colabora en la organización del evento.,Afirmación,Tr78,78,,,,,0,88,88,88,,,,,,,,,4,0.55026518304,,,,,2018_may._08_1811,60.0468122393,Experimento Piloto1,001,113,
2.5,Stim\\03_075.jpg,Tr75_12,Tristeza,12,Ana compra el libro.,Afirmación,Tr75,75,,,,,0,89,89,89,,,,,,,,,4,1.00024499031,,,,,2018_may._08_1811,60.0468122393,Experimento Piloto1,001,113,
2.5,Stim\\05_078.jpg,En78_11,Enojo,11,María asiste a la cena.,Afirmación,En78,78,,,,,0,90,90,90,,,,,,,,,2,0.400315051285,,,,,2018_may._08_1811,60.0468122393,Experimento Piloto1,001,113,
2.5,Stim\\02_075.jpg,Al75_14,Alegría,14,Elizabeth elige la ropa un día antes.,Afirmación,Al75,75,,,,,0,91,91,91,,,,,,,,,3,0.283727779625,,,,,2018_may._08_1811,60.0468122393,Experimento Piloto1,001,113,
0.25,Stim\\03_019.jpg,Tr19_7,Tristeza,7,Roberto contesta los cuestionarios solicitados.,Afirmación,Tr19,19,,,,,0,92,92,92,,,,,,,,,3,0.233900143023,,,,,2018_may._08_1811,60.0468122393,Experimento Piloto1,001,113,
0.25,Stim\\05_075.jpg,En75_5,Enojo,5,Emilio revisa el formato del archivo.,Afirmación,En75,75,,,,,0,93,93,93,,,,,,,,,2,0.400239635326,,,,,2018_may._08_1811,60.0468122393,Experimento Piloto1,001,113,
2.5,Stim\\05_019.jpg,En19_14,Enojo,14,Elizabeth elige la ropa un día antes.,Afirmación,En19,19,,,,,0,94,94,94,,,,,,,,,2,0.549968874182,,,,,2018_may._08_1811,60.0468122393,Experimento Piloto1,001,113,
0.25,Stim\\02_075.jpg,Al75_2,Alegría,2,Jonathan pasea al perro.,Afirmación,Al75,75,,,,,0,95,95,95,,,,,,,,,3,0.233686390097,,,,,2018_may._08_1811,60.0468122393,Experimento Piloto1,001,113,
2.5,Stim\\03_028.jpg,Tr28_10,Tristeza,10,Laura finaliza la obra.,Afirmación,Tr28,28,,,,,0,96,96,96,,,,,,,,,4,0.50005064918,,,,,2018_may._08_1811,60.0468122393,Experimento Piloto1,001,113,
2.5,Stim\\02_078.jpg,Al78_3,Alegría,3,Andrea diseña la portada del libro.,Afirmación,Al78,78,,,,,0,97,97,97,,,,,,,,,3,0.916899199208,,,,,2018_may._08_1811,60.0468122393,Experimento Piloto1,001,113,
2.5,Stim\\05_075.jpg,En75_3,Enojo,3,Andrea diseña la portada del libro.,Afirmación,En75,75,,,,,0,98,98,98,,,,,,,,,2,1.20010977708,,,,,2018_may._08_1811,60.0468122393,Experimento Piloto1,001,113,
2.5,Stim\\03_075.jpg,Tr75_3,Tristeza,3,Andrea diseña la portada del libro.,Afirmación,Tr75,75,,,,,0,99,99,99,,,,,,,,,4,0.450330558413,,,,,2018_may._08_1811,60.0468122393,Experimento Piloto1,001,113,
2.5,Stim\\03_075.jpg,Tr75_7,Tristeza,7,Roberto contesta los cuestionarios solicitados.,Afirmación,Tr75,75,,,,,0,100,100,100,,,,,,,,,4,0.333721420587,,,,,2018_may._08_1811,60.0468122393,Experimento Piloto1,001,113,
2.5,Stim\\03_019.jpg,Tr19_14,Tristeza,14,Elizabeth elige la ropa un día antes.,Afirmación,Tr19,19,,,,,0,101,101,101,,,,,,,,,3,0.300317059402,,,,,2018_may._08_1811,60.0468122393,Experimento Piloto1,001,113,
2.5,Stim\\05_078.jpg,En78_5,Enojo,5,Emilio revisa el formato del archivo.,Afirmación,En78,78,,,,,0,102,102,102,,,,,,,,,2,1.41661739342,,,,,2018_may._08_1811,60.0468122393,Experimento Piloto1,001,113,
2.5,Stim\\02_078.jpg,Al78_12,Alegría,12,Ana compra el libro.,Afirmación,Al78,78,,,,,0,103,103,103,,,,,,,,,3,0.28365370241,,,,,2018_may._08_1811,60.0468122393,Experimento Piloto1,001,113,
2.5,Stim\\02_028.jpg,Al28_13,Alegría,13,Rocío consume alimentos nutritivos.,Afirmación,Al28,28,,,,,0,104,104,104,,,,,,,,,3,0.450337698385,,,,,2018_may._08_1811,60.0468122393,Experimento Piloto1,001,113,
2.5,Stim\\05_028.jpg,En28_4,Enojo,4,Jorge sustituye a Gustavo cada sábado.,Afirmación,En28,28,,,,,0,105,105,105,,,,,,,,,2,0.333654037097,,,,,2018_may._08_1811,60.0468122393,Experimento Piloto1,001,113,
0.25,Stim\\02_028.jpg,Al28_7,Alegría,7,Roberto contesta los cuestionarios solicitados.,Afirmación,Al28,28,,,,,0,106,106,106,,,,,,,,,3,0.383659280514,,,,,2018_may._08_1811,60.0468122393,Experimento Piloto1,001,113,
0.25,Stim\\02_078.jpg,Al78_12,Alegría,12,Ana compra el libro.,Afirmación,Al78,78,,,,,0,107,107,107,,,,,,,,,3,0.250364027034,,,,,2018_may._08_1811,60.0468122393,Experimento Piloto1,001,113,
2.5,Stim\\02_028.jpg,Al28_7,Alegría,7,Roberto contesta los cuestionarios solicitados.,Afirmación,Al28,28,,,,,0,108,108,108,,,,,,,,,3,0.300274665816,,,,,2018_may._08_1811,60.0468122393,Experimento Piloto1,001,113,
0.25,Stim\\02_075.jpg,Al75_7,Alegría,7,Roberto contesta los cuestionarios solicitados.,Afirmación,Al75,75,,,,,0,109,109,109,,,,,,,,,3,0.250351085834,,,,,2018_may._08_1811,60.0468122393,Experimento Piloto1,001,113,
0.25,Stim\\05_075.jpg,En75_10,Enojo,10,Laura finaliza la obra.,Afirmación,En75,75,,,,,0,110,110,110,,,,,,,,,2,0.483804534329,,,,,2018_may._08_1811,60.0468122393,Experimento Piloto1,001,113,
2.5,Stim\\05_028.jpg,En28_8,Enojo,8,Estefanía despierta a las 7 a.m.,Afirmación,En28,28,,,,,0,111,111,111,,,,,,,,,2,0.300341603058,,,,,2018_may._08_1811,60.0468122393,Experimento Piloto1,001,113,
0.25,Stim\\03_075.jpg,Tr75_6,Tristeza,6,Eduardo camina hacia la biblioteca.,Afirmación,Tr75,75,,,,,0,112,112,112,,,,,,,,,4,0.283821938011,,,,,2018_may._08_1811,60.0468122393,Experimento Piloto1,001,113,
0.25,Stim\\02_078.jpg,Al78_4,Alegría,4,Jorge sustituye a Gustavo cada sábado.,Afirmación,Al78,78,,,,,0,113,113,113,,,,,,,,,3,0.250301552275,,,,,2018_may._08_1811,60.0468122393,Experimento Piloto1,001,113,
2.5,Stim\\02_019.jpg,Al19_13,Alegría,13,Rocío consume alimentos nutritivos.,Afirmación,Al19,19,,,,,0,114,114,114,,,,,,,,,3,0.283743844563,,,,,2018_may._08_1811,60.0468122393,Experimento Piloto1,001,113,
0.25,Stim\\02_078.jpg,Al78_15,Alegría,15,Ángel envía una carta a la abuela.,Afirmación,Al78,78,,,,,0,115,115,115,,,,,,,,,3,0.283999098579,,,,,2018_may._08_1811,60.0468122393,Experimento Piloto1,001,113,
2.5,Stim\\05_019.jpg,En19_4,Enojo,4,Jorge sustituye a Gustavo cada sábado.,Afirmación,En19,19,,,,,0,116,116,116,,,,,,,,,2,0.700356775499,,,,,2018_may._08_1811,60.0468122393,Experimento Piloto1,001,113,
2.5,Stim\\05_075.jpg,En75_9,Enojo,9,Marco colabora en la organización del evento.,Afirmación,En75,75,,,,,0,117,117,117,,,,,,,,,2,1.1667174646,,,,,2018_may._08_1811,60.0468122393,Experimento Piloto1,001,113,
0.25,Stim\\05_078.jpg,En78_8,Enojo,8,Estefanía despierta a las 7 a.m.,Afirmación,En78,78,,,,,0,118,118,118,,,,,,,,,2,2.34965426915,,,,,2018_may._08_1811,60.0468122393,Experimento Piloto1,001,113,
0.25,Stim\\03_075.jpg,Tr75_12,Tristeza,12,Ana compra el libro.,Afirmación,Tr75,75,,,,,0,119,119,119,,,,,,,,,4,0.400303895078,,,,,2018_may._08_1811,60.0468122393,Experimento Piloto1,001,113,
2.5,Stim\\03_028.jpg,Tr28_1,Tristeza,1,Juan colecciona monedas antiguas.,Afirmación,Tr28,28,,,,,,,,,0,0,0,0,,,,,,,4,0.283818814274,,,2018_may._08_1811,60.0468122393,Experimento Piloto1,001,113,
0.25,Stim\\03_019.jpg,Tr19_1,Tristeza,1,Juan colecciona monedas antiguas.,Afirmación,Tr19,19,,,,,,,,,0,1,1,1,,,,,,,3,0.200377526044,,,2018_may._08_1811,60.0468122393,Experimento Piloto1,001,113,
2.5,Stim\\03_078.jpg,Tr78_10,Tristeza,10,Laura finaliza la obra.,Afirmación,Tr78,78,,,,,,,,,0,2,2,2,,,,,,,4,0.283818814274,,,2018_may._08_1811,60.0468122393,Experimento Piloto1,001,113,
0.25,Stim\\02_075.jpg,Al75_5,Alegría,5,Emilio revisa el formato del archivo.,Afirmación,Al75,75,,,,,,,,,0,3,3,3,,,,,,,3,0.183731572735,,,2018_may._08_1811,60.0468122393,Experimento Piloto1,001,113,
0.25,Stim\\02_019.jpg,Al19_15,Alegría,15,Ángel envía una carta a la abuela.,Afirmación,Al19,19,,,,,,,,,0,4,4,4,,,,,,,3,0.950066156307,,,2018_may._08_1811,60.0468122393,Experimento Piloto1,001,113,
2.5,Stim\\02_075.jpg,Al75_7,Alegría,7,Roberto contesta los cuestionarios solicitados.,Afirmación,Al75,75,,,,,,,,,0,5,5,5,,,,,,,3,0.283412282091,,,2018_may._08_1811,60.0468122393,Experimento Piloto1,001,113,
0.25,Stim\\03_075.jpg,Tr75_8,Tristeza,8,Estefanía despierta a las 7 a.m.,Afirmación,Tr75,75,,,,,,,,,0,6,6,6,,,,,,,4,0.283813459294,,,2018_may._08_1811,60.0468122393,Experimento Piloto1,001,113,
0.25,Stim\\02_019.jpg,Al19_11,Alegría,11,María asiste a la cena.,Afirmación,Al19,19,,,,,,,,,0,7,7,7,,,,,,,3,0.133698215676,,,2018_may._08_1811,60.0468122393,Experimento Piloto1,001,113,
2.5,Stim\\02_019.jpg,Al19_2,Alegría,2,Jonathan pasea al perro.,Afirmación,Al19,19,,,,,,,,,0,8,8,8,,,,,,,3,0.183725325259,,,2018_may._08_1811,60.0468122393,Experimento Piloto1,001,113,
2.5,Stim\\05_075.jpg,En75_5,Enojo,5,Emilio revisa el formato del archivo.,Afirmación,En75,75,,,,,,,,,0,9,9,9,,,,,,,2,0.650300659778,,,2018_may._08_1811,60.0468122393,Experimento Piloto1,001,113,
0.25,Stim\\03_078.jpg,Tr78_10,Tristeza,10,Laura finaliza la obra.,Afirmación,Tr78,78,,,,,,,,,0,10,10,10,,,,,,,4,0.350320964075,,,2018_may._08_1811,60.0468122393,Experimento Piloto1,001,113,
0.25,Stim\\02_019.jpg,Al19_6,Alegría,6,Eduardo camina hacia la biblioteca.,Afirmación,Al19,19,,,,,,,,,0,11,11,11,,,,,,,3,0.183765041356,,,2018_may._08_1811,60.0468122393,Experimento Piloto1,001,113,
2.5,Stim\\05_019.jpg,En19_3,Enojo,3,Andrea diseña la portada del libro.,Afirmación,En19,19,,,,,,,,,0,12,12,12,,,,,,,2,1.16634841727,,,2018_may._08_1811,60.0468122393,Experimento Piloto1,001,113,
0.25,Stim\\05_019.jpg,En19_3,Enojo,3,Andrea diseña la portada del libro.,Afirmación,En19,19,,,,,,,,,0,13,13,13,,,,,,,2,0.283801410591,,,2018_may._08_1811,60.0468122393,Experimento Piloto1,001,113,
2.5,Stim\\02_028.jpg,Al28_1,Alegría,1,Juan colecciona monedas antiguas.,Afirmación,Al28,28,,,,,,,,,0,14,14,14,,,,,,,3,0.250208732633,,,2018_may._08_1811,60.0468122393,Experimento Piloto1,001,113,
0.25,Stim\\02_019.jpg,Al19_2,Alegría,2,Jonathan pasea al perro.,Afirmación,Al19,19,,,,,,,,,0,15,15,15,,,,,,,3,0.550285264213,,,2018_may._08_1811,60.0468122393,Experimento Piloto1,001,113,
0.25,Stim\\05_028.jpg,En28_11,Enojo,11,María asiste a la cena.,Afirmación,En28,28,,,,,,,,,0,16,16,16,,,,,,,2,0.80029050763,,,2018_may._08_1811,60.0468122393,Experimento Piloto1,001,113,
0.25,Stim\\03_028.jpg,Tr28_1,Tristeza,1,Juan colecciona monedas antiguas.,Afirmación,Tr28,28,,,,,,,,,0,17,17,17,,,,,,,4,0.400288722637,,,2018_may._08_1811,60.0468122393,Experimento Piloto1,001,113,
0.25,Stim\\03_078.jpg,Tr78_1,Tristeza,1,Juan colecciona monedas antiguas.,Afirmación,Tr78,78,,,,,,,,,0,18,18,18,,,,,,,4,1.46675606507,,,2018_may._08_1811,60.0468122393,Experimento Piloto1,001,113,
0.25,Stim\\02_019.jpg,Al19_1,Alegría,1,Juan colecciona monedas antiguas.,Afirmación,Al19,19,,,,,,,,,0,19,19,19,,,,,,,3,0.35034550773,,,2018_may._08_1811,60.0468122393,Experimento Piloto1,001,113,
0.25,Stim\\02_019.jpg,Al19_10,Alegría,10,Laura finaliza la obra.,Afirmación,Al19,19,,,,,,,,,0,20,20,20,,,,,,,3,0.233660061449,,,2018_may._08_1811,60.0468122393,Experimento Piloto1,001,113,
2.5,Stim\\03_019.jpg,Tr19_13,Tristeza,13,Rocío consume alimentos nutritivos.,Afirmación,Tr19,19,,,,,,,,,0,21,21,21,,,,,,,3,0.18383911857,,,2018_may._08_1811,60.0468122393,Experimento Piloto1,001,113,
2.5,Stim\\05_075.jpg,En75_6,Enojo,6,Eduardo camina hacia la biblioteca.,Afirmación,En75,75,,,,,,,,,0,22,22,22,,,,,,,2,1.01677268782,,,2018_may._08_1811,60.0468122393,Experimento Piloto1,001,113,
0.25,Stim\\05_078.jpg,En78_10,Enojo,10,Laura finaliza la obra.,Afirmación,En78,78,,,,,,,,,0,23,23,23,,,,,,,2,0.399826855668,,,2018_may._08_1811,60.0468122393,Experimento Piloto1,001,113,
2.5,Stim\\05_075.jpg,En75_14,Enojo,14,Elizabeth elige la ropa un día antes.,Afirmación,En75,75,,,,,,,,,0,24,24,24,,,,,,,2,0.300455842617,,,2018_may._08_1811,60.0468122393,Experimento Piloto1,001,113,
0.25,Stim\\05_019.jpg,En19_7,Enojo,7,Roberto contesta los cuestionarios solicitados.,Afirmación,En19,19,,,,,,,,,0,25,25,25,,,,,,,2,0.450351085834,,,2018_may._08_1811,60.0468122393,Experimento Piloto1,001,113,
0.25,Stim\\02_078.jpg,Al78_14,Alegría,14,Elizabeth elige la ropa un día antes.,Afirmación,Al78,78,,,,,,,,,0,26,26,26,,,,,,,3,0.183756562639,,,2018_may._08_1811,60.0468122393,Experimento Piloto1,001,113,
0.25,Stim\\03_028.jpg,Tr28_13,Tristeza,13,Rocío consume alimentos nutritivos.,Afirmación,Tr28,28,,,,,,,,,0,27,27,27,,,,,,,4,0.300467445072,,,2018_may._08_1811,60.0468122393,Experimento Piloto1,001,113,
2.5,Stim\\03_019.jpg,Tr19_8,Tristeza,8,Estefanía despierta a las 7 a.m.,Afirmación,Tr19,19,,,,,,,,,0,28,28,28,,,,,,,3,0.333593347331,,,2018_may._08_1811,60.0468122393,Experimento Piloto1,001,113,
2.5,Stim\\02_019.jpg,Al19_8,Alegría,8,Estefanía despierta a las 7 a.m.,Afirmación,Al19,19,,,,,,,,,0,29,29,29,,,,,,,3,0.233663631435,,,2018_may._08_1811,60.0468122393,Experimento Piloto1,001,113,
2.5,Stim\\02_028.jpg,Al28_9,Alegría,9,Marco colabora en la organización del evento.,Afirmación,Al28,28,,,,,,,,,0,30,30,30,,,,,,,3,0.450322972192,,,2018_may._08_1811,60.0468122393,Experimento Piloto1,001,113,
2.5,Stim\\03_075.jpg,Tr75_1,Tristeza,1,Juan colecciona monedas antiguas.,Afirmación,Tr75,75,,,,,,,,,0,31,31,31,,,,,,,4,0.400357444872,,,2018_may._08_1811,60.0468122393,Experimento Piloto1,001,113,
2.5,Stim\\05_078.jpg,En78_8,Enojo,8,Estefanía despierta a las 7 a.m.,Afirmación,En78,78,,,,,,,,,0,32,32,32,,,,,,,2,0.233736816152,,,2018_may._08_1811,60.0468122393,Experimento Piloto1,001,113,
0.25,Stim\\02_028.jpg,Al28_12,Alegría,12,Ana compra el libro.,Afirmación,Al28,28,,,,,,,,,0,33,33,33,,,,,,,3,0.350334797771,,,2018_may._08_1811,60.0468122393,Experimento Piloto1,001,113,
0.25,Stim\\05_075.jpg,En75_1,Enojo,1,Juan colecciona monedas antiguas.,Afirmación,En75,75,,,,,,,,,0,34,34,34,,,,,,,4,0.450270314895,,,2018_may._08_1811,60.0468122393,Experimento Piloto1,001,113,
0.25,Stim\\03_028.jpg,Tr28_4,Tristeza,4,Jorge sustituye a Gustavo cada sábado.,Afirmación,Tr28,28,,,,,,,,,0,35,35,35,,,,,,,4,2.03327851917,,,2018_may._08_1811,60.0468122393,Experimento Piloto1,001,113,
2.5,Stim\\03_078.jpg,Tr78_3,Tristeza,3,Andrea diseña la portada del libro.,Afirmación,Tr78,78,,,,,,,,,0,36,36,36,,,,,,,4,0.333880731223,,,2018_may._08_1811,60.0468122393,Experimento Piloto1,001,113,
0.25,Stim\\05_078.jpg,En78_4,Enojo,4,Jorge sustituye a Gustavo cada sábado.,Afirmación,En78,78,,,,,,,,,0,37,37,37,,,,,,,2,0.71683895569,,,2018_may._08_1811,60.0468122393,Experimento Piloto1,001,113,
2.5,Stim\\03_019.jpg,Tr19_7,Tristeza,7,Roberto contesta los cuestionarios solicitados.,Afirmación,Tr19,19,,,,,,,,,0,38,38,38,,,,,,,3,0.250159645322,,,2018_may._08_1811,60.0468122393,Experimento Piloto1,001,113,
0.25,Stim\\02_078.jpg,Al78_2,Alegría,2,Jonathan pasea al perro.,Afirmación,Al78,78,,,,,,,,,0,39,39,39,,,,,,,3,0.183688286652,,,2018_may._08_1811,60.0468122393,Experimento Piloto1,001,113,
0.25,Stim\\02_078.jpg,Al78_5,Alegría,5,Emilio revisa el formato del archivo.,Afirmación,Al78,78,,,,,,,,,0,40,40,40,,,,,,,3,0.23378144098,,,2018_may._08_1811,60.0468122393,Experimento Piloto1,001,113,
2.5,Stim\\05_019.jpg,En19_11,Enojo,11,María asiste a la cena.,Afirmación,En19,19,,,,,,,,,0,41,41,41,,,,,,,2,0.750277231743,,,2018_may._08_1811,60.0468122393,Experimento Piloto1,001,113,
2.5,Stim\\02_028.jpg,Al28_15,Alegría,15,Ángel envía una carta a la abuela.,Afirmación,Al28,28,,,,,,,,,0,42,42,42,,,,,,,3,0.233640872772,,,2018_may._08_1811,60.0468122393,Experimento Piloto1,001,113,
0.25,Stim\\03_019.jpg,Tr19_4,Tristeza,4,Jorge sustituye a Gustavo cada sábado.,Afirmación,Tr19,19,,,,,,,,,0,43,43,43,,,,,,,3,0.200654199977,,,2018_may._08_1811,60.0468122393,Experimento Piloto1,001,113,
2.5,Stim\\02_075.jpg,Al75_12,Alegría,12,Ana compra el libro.,Afirmación,Al75,75,,,,,,,,,0,44,44,44,,,,,,,3,0.350376298861,,,2018_may._08_1811,60.0468122393,Experimento Piloto1,001,113,
2.5,Stim\\05_028.jpg,En28_12,Enojo,12,Ana compra el libro.,Afirmación,En28,28,,,,,,,,,0,45,45,45,,,,,,,2,0.70011803267,,,2018_may._08_1811,60.0468122393,Experimento Piloto1,001,113,
0.25,Stim\\02_028.jpg,Al28_14,Alegría,14,Elizabeth elige la ropa un día antes.,Afirmación,Al28,28,,,,,,,,,0,46,46,46,,,,,,,3,0.200291400126,,,2018_may._08_1811,60.0468122393,Experimento Piloto1,001,113,
2.5,Stim\\03_075.jpg,Tr75_6,Tristeza,6,Eduardo camina hacia la biblioteca.,Afirmación,Tr75,75,,,,,,,,,0,47,47,47,,,,,,,4,0.850100740549,,,2018_may._08_1811,60.0468122393,Experimento Piloto1,001,113,
0.25,Stim\\05_028.jpg,En28_8,Enojo,8,Estefanía despierta a las 7 a.m.,Afirmación,En28,28,,,,,,,,,0,48,48,48,,,,,,,3,0.70027109583,,,2018_may._08_1811,60.0468122393,Experimento Piloto1,001,113,
2.5,Stim\\05_019.jpg,En19_7,Enojo,7,Roberto contesta los cuestionarios solicitados.,Afirmación,En19,19,,,,,,,,,0,49,49,49,,,,,,,2,0.400792536944,,,2018_may._08_1811,60.0468122393,Experimento Piloto1,001,113,
2.5,Stim\\02_019.jpg,Al19_10,Alegría,10,Laura finaliza la obra.,Afirmación,Al19,19,,,,,,,,,0,50,50,50,,,,,,,3,0.183810558681,,,2018_may._08_1811,60.0468122393,Experimento Piloto1,001,113,
0.25,Stim\\05_028.jpg,En28_14,Enojo,14,Elizabeth elige la ropa un día antes.,Afirmación,En28,28,,,,,,,,,0,51,51,51,,,,,,,2,0.300311704423,,,2018_may._08_1811,60.0468122393,Experimento Piloto1,001,113,
2.5,Stim\\03_028.jpg,Tr28_8,Tristeza,8,Estefanía despierta a las 7 a.m.,Afirmación,Tr28,28,,,,,,,,,0,52,52,52,,,,,,,4,0.500314381913,,,2018_may._08_1811,60.0468122393,Experimento Piloto1,001,113,
0.25,Stim\\02_075.jpg,Al75_3,Alegría,3,Andrea diseña la portada del libro.,Afirmación,Al75,75,,,,,,,,,0,53,53,53,,,,,,,3,1.51655558803,,,2018_may._08_1811,60.0468122393,Experimento Piloto1,001,113,
0.25,Stim\\02_028.jpg,Al28_1,Alegría,1,Juan colecciona monedas antiguas.,Afirmación,Al28,28,,,,,,,,,0,54,54,54,,,,,,,3,0.250555913794,,,2018_may._08_1811,60.0468122393,Experimento Piloto1,001,113,
0.25,Stim\\03_028.jpg,Tr28_3,Tristeza,3,Andrea diseña la portada del libro.,Afirmación,Tr28,28,,,,,,,,,0,55,55,55,,,,,,,4,0.183721309025,,,2018_may._08_1811,60.0468122393,Experimento Piloto1,001,113,
2.5,Stim\\02_078.jpg,Al78_11,Alegría,11,María asiste a la cena.,Afirmación,Al78,78,,,,,,,,,0,56,56,56,,,,,,,3,0.200170913091,,,2018_may._08_1811,60.0468122393,Experimento Piloto1,001,113,
0.25,Stim\\03_019.jpg,Tr19_12,Tristeza,12,Ana compra el libro.,Afirmación,Tr19,19,,,,,,,,,0,57,57,57,,,,,,,3,0.133770061649,,,2018_may._08_1811,60.0468122393,Experimento Piloto1,001,113,
2.5,Stim\\02_078.jpg,Al78_14,Alegría,14,Elizabeth elige la ropa un día antes.,Afirmación,Al78,78,,,,,,,,,0,58,58,58,,,,,,,3,0.23365693771,,,2018_may._08_1811,60.0468122393,Experimento Piloto1,001,113,
0.25,Stim\\03_019.jpg,Tr19_2,Tristeza,2,Jonathan pasea al perro.,Afirmación,Tr19,19,,,,,,,,,0,59,59,59,,,,,,,3,0.300294746988,,,2018_may._08_1811,60.0468122393,Experimento Piloto1,001,113,
2.5,Stim\\03_078.jpg,Tr78_1,Tristeza,1,Juan colecciona monedas antiguas.,Afirmación,Tr78,78,,,,,,,,,0,60,60,60,,,,,,,4,0.250351085833,,,2018_may._08_1811,60.0468122393,Experimento Piloto1,001,113,
0.25,Stim\\03_078.jpg,Tr78_4,Tristeza,4,Jorge sustituye a Gustavo cada sábado.,Afirmación,Tr78,78,,,,,,,,,0,61,61,61,,,,,,,4,0.400272657699,,,2018_may._08_1811,60.0468122393,Experimento Piloto1,001,113,
0.25,Stim\\05_019.jpg,En19_14,Enojo,14,Elizabeth elige la ropa un día antes.,Afirmación,En19,19,,,,,,,,,0,62,62,62,,,,,,,2,0.70025012216,,,2018_may._08_1811,60.0468122393,Experimento Piloto1,001,113,
0.25,Stim\\02_075.jpg,Al75_15,Alegría,15,Ángel envía una carta a la abuela.,Afirmación,Al75,75,,,,,,,,,0,63,63,63,,,,,,,3,0.183989057992,,,2018_may._08_1811,60.0468122393,Experimento Piloto1,001,113,
2.5,Stim\\03_028.jpg,Tr28_2,Tristeza,2,Jonathan pasea al perro.,Afirmación,Tr28,28,,,,,,,,,0,64,64,64,,,,,,,4,0.233704686276,,,2018_may._08_1811,60.0468122393,Experimento Piloto1,001,113,
0.25,Stim\\05_028.jpg,En28_3,Enojo,3,Andrea diseña la portada del libro.,Afirmación,En28,28,,,,,,,,,0,65,65,65,,,,,,,2,1.16682858042,,,2018_may._08_1811,60.0468122393,Experimento Piloto1,001,113,
0.25,Stim\\05_078.jpg,En78_3,Enojo,3,Andrea diseña la portada del libro.,Afirmación,En78,78,,,,,,,,,0,66,66,66,,,,,,,2,0.649921348741,,,2018_may._08_1811,60.0468122393,Experimento Piloto1,001,113,
0.25,Stim\\05_075.jpg,En75_9,Enojo,9,Marco colabora en la organización del evento.,Afirmación,En75,75,,,,,,,,,0,67,67,67,,,,,,,2,0.283887090261,,,2018_may._08_1811,60.0468122393,Experimento Piloto1,001,113,
2.5,Stim\\05_075.jpg,En75_7,Enojo,7,Roberto contesta los cuestionarios solicitados.,Afirmación,En75,75,,,,,,,,,0,68,68,68,,,,,,,2,0.283771958204,,,2018_may._08_1811,60.0468122393,Experimento Piloto1,001,113,
0.25,Stim\\03_078.jpg,Tr78_14,Tristeza,14,Elizabeth elige la ropa un día antes.,Afirmación,Tr78,78,,,,,,,,,0,69,69,69,,,,,,,4,0.450213195115,,,2018_may._08_1811,60.0468122393,Experimento Piloto1,001,113,
2.5,Stim\\03_019.jpg,Tr19_5,Tristeza,5,Emilio revisa el formato del archivo.,Afirmación,Tr19,19,,,,,,,,,0,70,70,70,,,,,,,3,0.50033847932,,,2018_may._08_1811,60.0468122393,Experimento Piloto1,001,113,
2.5,Stim\\05_028.jpg,En28_13,Enojo,13,Rocío consume alimentos nutritivos.,Afirmación,En28,28,,,,,,,,,0,71,71,71,,,,,,,2,0.300255030892,,,2018_may._08_1811,60.0468122393,Experimento Piloto1,001,113,
0.25,Stim\\05_075.jpg,En75_15,Enojo,15,Ángel envía una carta a la abuela.,Afirmación,En75,75,,,,,,,,,0,72,72,72,,,,,,,2,0.333908844864,,,2018_may._08_1811,60.0468122393,Experimento Piloto1,001,113,
2.5,Stim\\05_019.jpg,En19_6,Enojo,6,Eduardo camina hacia la biblioteca.,Afirmación,En19,19,,,,,,,,,0,73,73,73,,,,,,,2,0.38371729279,,,2018_may._08_1811,60.0468122393,Experimento Piloto1,001,113,
2.5,Stim\\05_078.jpg,En78_10,Enojo,10,Laura finaliza la obra.,Afirmación,En78,78,,,,,,,,,0,74,74,74,,,,,,,2,0.65022747506,,,2018_may._08_1811,60.0468122393,Experimento Piloto1,001,113,
2.5,Stim\\05_019.jpg,En19_9,Enojo,9,Marco colabora en la organización del evento.,Afirmación,En19,19,,,,,,,,,0,75,75,75,,,,,,,2,0.200131643242,,,2018_may._08_1811,60.0468122393,Experimento Piloto1,001,113,
2.5,Stim\\02_078.jpg,Al78_6,Alegría,6,Eduardo camina hacia la biblioteca.,Afirmación,Al78,78,,,,,,,,,0,76,76,76,,,,,,,3,1.00021776916,,,2018_may._08_1811,60.0468122393,Experimento Piloto1,001,113,
2.5,Stim\\05_078.jpg,En78_13,Enojo,13,Rocío consume alimentos nutritivos.,Afirmación,En78,78,,,,,,,,,0,77,77,77,,,,,,,2,0.283726887128,,,2018_may._08_1811,60.0468122393,Experimento Piloto1,001,113,
0.25,Stim\\05_028.jpg,En28_2,Enojo,2,Jonathan pasea al perro.,Afirmación,En28,28,,,,,,,,,0,78,78,78,,,,,,,2,0.300231379733,,,2018_may._08_1811,60.0468122393,Experimento Piloto1,001,113,
0.25,Stim\\05_019.jpg,En19_6,Enojo,6,Eduardo camina hacia la biblioteca.,Afirmación,En19,19,,,,,,,,,0,79,79,79,,,,,,,2,0.300398276589,,,2018_may._08_1811,60.0468122393,Experimento Piloto1,001,113,
2.5,Stim\\03_019.jpg,Tr19_11,Tristeza,11,María asiste a la cena.,Afirmación,Tr19,19,,,,,,,,,0,80,80,80,,,,,,,3,0.349999219066,,,2018_may._08_1811,60.0468122393,Experimento Piloto1,001,113,
2.5,Stim\\05_028.jpg,En28_11,Enojo,11,María asiste a la cena.,Afirmación,En28,28,,,,,,,,,0,81,81,81,,,,,,,2,0.283694757252,,,2018_may._08_1811,60.0468122393,Experimento Piloto1,001,113,
0.25,Stim\\02_078.jpg,Al78_9,Alegría,9,Marco colabora en la organización del evento.,Afirmación,Al78,78,,,,,,,,,0,82,82,82,,,,,,,3,1.21680749519,,,2018_may._08_1811,60.0468122393,Experimento Piloto1,001,113,
0.25,Stim\\05_019.jpg,En19_13,Enojo,13,Rocío consume alimentos nutritivos.,Afirmación,En19,19,,,,,,,,,0,83,83,83,,,,,,,2,0.650172586522,,,2018_may._08_1811,60.0468122393,Experimento Piloto1,001,113,
0.25,Stim\\03_078.jpg,Tr78_11,Tristeza,11,María asiste a la cena.,Afirmación,Tr78,78,,,,,,,,,0,84,84,84,,,,,,,4,0.750266521785,,,2018_may._08_1811,60.0468122393,Experimento Piloto1,001,113,
2.5,Stim\\05_028.jpg,En28_5,Enojo,5,Emilio revisa el formato del archivo.,Afirmación,En28,28,,,,,,,,,0,85,85,85,,,,,,,2,0.250409990607,,,2018_may._08_1811,60.0468122393,Experimento Piloto1,001,113,
0.25,Stim\\03_028.jpg,Tr28_10,Tristeza,10,Laura finaliza la obra.,Afirmación,Tr28,28,,,,,,,,,0,86,86,86,,,,,,,4,0.233821603325,,,2018_may._08_1811,60.0468122393,Experimento Piloto1,001,113,
0.25,Stim\\05_019.jpg,En19_11,Enojo,11,María asiste a la cena.,Afirmación,En19,19,,,,,,,,,0,87,87,87,,,,,,,2,0.350357556434,,,2018_may._08_1811,60.0468122393,Experimento Piloto1,001,113,
2.5,Stim\\03_028.jpg,Tr28_9,Tristeza,9,Marco colabora en la organización del evento.,Afirmación,Tr28,28,,,,,,,,,0,88,88,88,,,,,,,4,0.283774635694,,,2018_may._08_1811,60.0468122393,Experimento Piloto1,001,113,
2.5,Stim\\05_019.jpg,En19_8,Enojo,8,Estefanía despierta a las 7 a.m.,Afirmación,En19,19,,,,,,,,,0,89,89,89,,,,,,,2,0.283608185086,,,2018_may._08_1811,60.0468122393,Experimento Piloto1,001,113,
0.25,Stim\\03_075.jpg,Tr75_9,Tristeza,9,Marco colabora en la organización del evento.,Afirmación,Tr75,75,,,,,,,,,0,90,90,90,,,,,,,4,0.333745517994,,,2018_may._08_1811,60.0468122393,Experimento Piloto1,001,113,
2.5,Stim\\02_075.jpg,Al75_3,Alegría,3,Andrea diseña la portada del libro.,Afirmación,Al75,75,,,,,,,,,0,91,91,91,,,,,,,3,0.650271207392,,,2018_may._08_1811,60.0468122393,Experimento Piloto1,001,113,
0.25,Stim\\05_028.jpg,En28_12,Enojo,12,Ana compra el libro.,Afirmación,En28,28,,,,,,,,,0,92,92,92,,,,,,,2,0.400323083754,,,2018_may._08_1811,60.0468122393,Experimento Piloto1,001,113,
0.25,Stim\\03_028.jpg,Tr28_7,Tristeza,7,Roberto contesta los cuestionarios solicitados.,Afirmación,Tr28,28,,,,,,,,,0,93,93,93,,,,,,,4,1.31635477631,,,2018_may._08_1811,60.0468122393,Experimento Piloto1,001,113,
0.25,Stim\\03_019.jpg,Tr19_8,Tristeza,8,Estefanía despierta a las 7 a.m.,Afirmación,Tr19,19,,,,,,,,,0,94,94,94,,,,,,,3,0.333799067787,,,2018_may._08_1811,60.0468122393,Experimento Piloto1,001,113,
0.25,Stim\\02_019.jpg,Al19_4,Alegría,4,Jorge sustituye a Gustavo cada sábado.,Afirmación,Al19,19,,,,,,,,,0,95,95,95,,,,,,,2,0.350268753026,,,2018_may._08_1811,60.0468122393,Experimento Piloto1,001,113,
2.5,Stim\\05_019.jpg,En19_15,Enojo,15,Ángel envía una carta a la abuela.,Afirmación,En19,19,,,,,,,,,0,96,96,96,,,,,,,3,0.200081217187,,,2018_may._08_1811,60.0468122393,Experimento Piloto1,001,113,
0.25,Stim\\05_075.jpg,En75_13,Enojo,13,Rocío consume alimentos nutritivos.,Afirmación,En75,75,,,,,,,,,0,97,97,97,,,,,,,2,0.550345061482,,,2018_may._08_1811,60.0468122393,Experimento Piloto1,001,113,
0.25,Stim\\02_078.jpg,Al78_7,Alegría,7,Roberto contesta los cuestionarios solicitados.,Afirmación,Al78,78,,,,,,,,,0,98,98,98,,,,,,,3,0.333688398214,,,2018_may._08_1811,60.0468122393,Experimento Piloto1,001,113,
2.5,Stim\\03_028.jpg,Tr28_3,Tristeza,3,Andrea diseña la portada del libro.,Afirmación,Tr28,28,,,,,,,,,0,99,99,99,,,,,,,4,0.183811004929,,,2018_may._08_1811,60.0468122393,Experimento Piloto1,001,113,
2.5,Stim\\05_075.jpg,En75_15,Enojo,15,Ángel envía una carta a la abuela.,Afirmación,En75,75,,,,,,,,,0,100,100,100,,,,,,,2,0.600253022774,,,2018_may._08_1811,60.0468122393,Experimento Piloto1,001,113,
0.25,Stim\\02_028.jpg,Al28_13,Alegría,13,Rocío consume alimentos nutritivos.,Afirmación,Al28,28,,,,,,,,,0,101,101,101,,,,,,,3,0.283759463253,,,2018_may._08_1811,60.0468122393,Experimento Piloto1,001,113,
0.25,Stim\\03_028.jpg,Tr28_15,Tristeza,15,Ángel envía una carta a la abuela.,Afirmación,Tr28,28,,,,,,,,,0,102,102,102,,,,,,,4,0.650397941903,,,2018_may._08_1811,60.0468122393,Experimento Piloto1,001,113,
0.25,Stim\\05_019.jpg,En19_2,Enojo,2,Jonathan pasea al perro.,Afirmación,En19,19,,,,,,,,,0,103,103,103,,,,,,,2,2.03319640949,,,2018_may._08_1811,60.0468122393,Experimento Piloto1,001,113,
0.25,Stim\\03_078.jpg,Tr78_13,Tristeza,13,Rocío consume alimentos nutritivos.,Afirmación,Tr78,78,,,,,,,,,0,104,104,104,,,,,,,4,0.333740609263,,,2018_may._08_1811,60.0468122393,Experimento Piloto1,001,113,
2.5,Stim\\03_075.jpg,Tr75_2,Tristeza,2,Jonathan pasea al perro.,Afirmación,Tr75,75,,,,,,,,,0,105,105,105,,,,,,,4,0.233728337435,,,2018_may._08_1811,60.0468122393,Experimento Piloto1,001,113,
2.5,Stim\\05_075.jpg,En75_10,Enojo,10,Laura finaliza la obra.,Afirmación,En75,75,,,,,,,,,0,106,106,106,,,,,,,2,0.700220669774,,,2018_may._08_1811,60.0468122393,Experimento Piloto1,001,113,
2.5,Stim\\05_028.jpg,En28_3,Enojo,3,Andrea diseña la portada del libro.,Afirmación,En28,28,,,,,,,,,0,107,107,107,,,,,,,2,0.600279797671,,,2018_may._08_1811,60.0468122393,Experimento Piloto1,001,113,
2.5,Stim\\02_078.jpg,Al78_8,Alegría,8,Estefanía despierta a las 7 a.m.,Afirmación,Al78,78,,,,,,,,,0,108,108,108,,,,,,,3,0.300354544258,,,2018_may._08_1811,60.0468122393,Experimento Piloto1,001,113,
2.5,Stim\\05_075.jpg,En75_2,Enojo,2,Jonathan pasea al perro.,Afirmación,En75,75,,,,,,,,,0,109,109,109,,,,,,,2,1.78323043592,,,2018_may._08_1811,60.0468122393,Experimento Piloto1,001,113,
0.25,Stim\\05_078.jpg,En78_2,Enojo,2,Jonathan pasea al perro.,Afirmación,En78,78,,,,,,,,,0,110,110,110,,,,,,,2,0.300329554354,,,2018_may._08_1811,60.0468122393,Experimento Piloto1,001,113,
2.5,Stim\\05_078.jpg,En78_14,Enojo,14,Elizabeth elige la ropa un día antes.,Afirmación,En78,78,,,,,,,,,0,111,111,111,,,,,,,2,0.300391582865,,,2018_may._08_1811,60.0468122393,Experimento Piloto1,001,113,
2.5,Stim\\05_028.jpg,En28_1,Enojo,1,Juan colecciona monedas antiguas.,Afirmación,En28,28,,,,,,,,,0,112,112,112,,,,,,,2,0.900148377553,,,2018_may._08_1811,60.0468122393,Experimento Piloto1,001,113,
0.25,Stim\\05_019.jpg,En19_12,Enojo,12,Ana compra el libro.,Afirmación,En19,19,,,,,,,,,0,113,113,113,,,,,,,2,0.233774301008,,,2018_may._08_1811,60.0468122393,Experimento Piloto1,001,113,
0.25,Stim\\02_075.jpg,Al75_13,Alegría,13,Rocío consume alimentos nutritivos.,Afirmación,Al75,75,,,,,,,,,0,114,114,114,,,,,,,3,0.400262393988,,,2018_may._08_1811,60.0468122393,Experimento Piloto1,001,113,
2.5,Stim\\03_019.jpg,Tr19_6,Tristeza,6,Eduardo camina hacia la biblioteca.,Afirmación,Tr19,19,,,,,,,,,0,115,115,115,,,,,,,3,0.3004214815,,,2018_may._08_1811,60.0468122393,Experimento Piloto1,001,113,
2.5,Stim\\05_028.jpg,En28_14,Enojo,14,Elizabeth elige la ropa un día antes.,Afirmación,En28,28,,,,,,,,,0,116,116,116,,,,,,,2,0.28369788099,,,2018_may._08_1811,60.0468122393,Experimento Piloto1,001,113,
2.5,Stim\\02_028.jpg,Al28_5,Alegría,5,Emilio revisa el formato del archivo.,Afirmación,Al28,28,,,,,,,,,0,117,117,117,,,,,,,3,0.383744513935,,,2018_may._08_1811,60.0468122393,Experimento Piloto1,001,113,
2.5,Stim\\02_078.jpg,Al78_9,Alegría,9,Marco colabora en la organización del evento.,Afirmación,Al78,78,,,,,,,,,0,118,118,118,,,,,,,3,0.233690406331,,,2018_may._08_1811,60.0468122393,Experimento Piloto1,001,113,
0.25,Stim\\03_019.jpg,Tr19_3,Tristeza,3,Andrea diseña la portada del libro.,Afirmación,Tr19,19,,,,,,,,,0,119,119,119,,,,,,,3,0.250291734812,,,2018_may._08_1811,60.0468122393,Experimento Piloto1,001,113,
0.25,Stim\\02_075.jpg,Al75_11,Alegría,11,María asiste a la cena.,Afirmación,Al75,75,,,,,,,,,,,,,0,0,0,0,,,,,3,0.133996755775,2018_may._08_1811,60.0468122393,Experimento Piloto1,001,113,
2.5,Stim\\03_019.jpg,Tr19_9,Tristeza,9,Marco colabora en la organización del evento.,Afirmación,Tr19,19,,,,,,,,,,,,,0,1,1,1,,,,,3,0.183927029481,2018_may._08_1811,60.0468122393,Experimento Piloto1,001,113,
2.5,Stim\\02_075.jpg,Al75_8,Alegría,8,Estefanía despierta a las 7 a.m.,Afirmación,Al75,75,,,,,,,,,,,,,0,2,2,2,,,,,3,0.0838165830323,2018_may._08_1811,60.0468122393,Experimento Piloto1,001,113,
2.5,Stim\\03_075.jpg,Tr75_13,Tristeza,13,Rocío consume alimentos nutritivos.,Afirmación,Tr75,75,,,,,,,,,,,,,0,3,3,3,,,,,4,0.583743621439,2018_may._08_1811,60.0468122393,Experimento Piloto1,001,113,
0.25,Stim\\03_019.jpg,Tr19_15,Tristeza,15,Ángel envía una carta a la abuela.,Afirmación,Tr19,19,,,,,,,,,,,,,0,4,4,4,,,,,4,1.11676443223,2018_may._08_1811,60.0468122393,Experimento Piloto1,001,113,
2.5,Stim\\05_075.jpg,En75_11,Enojo,11,María asiste a la cena.,Afirmación,En75,75,,,,,,,,,,,,,0,5,5,5,,,,,2,0.400358337368,2018_may._08_1811,60.0468122393,Experimento Piloto1,001,113,
0.25,Stim\\05_028.jpg,En28_4,Enojo,4,Jorge sustituye a Gustavo cada sábado.,Afirmación,En28,28,,,,,,,,,,,,,0,6,6,6,,,,,2,0.583646785562,2018_may._08_1811,60.0468122393,Experimento Piloto1,001,113,
2.5,Stim\\05_028.jpg,En28_9,Enojo,9,Marco colabora en la organización del evento.,Afirmación,En28,28,,,,,,,,,,,,,0,7,7,7,,,,,2,0.300327769361,2018_may._08_1811,60.0468122393,Experimento Piloto1,001,113,
2.5,Stim\\03_075.jpg,Tr75_9,Tristeza,9,Marco colabora en la organización del evento.,Afirmación,Tr75,75,,,,,,,,,,,,,0,8,8,8,,,,,4,0.916856805621,2018_may._08_1811,60.0468122393,Experimento Piloto1,001,113,
2.5,Stim\\05_028.jpg,En28_15,Enojo,15,Ángel envía una carta a la abuela.,Afirmación,En28,28,,,,,,,,,,,,,0,9,9,9,,,,,2,0.90019567987,2018_may._08_1811,60.0468122393,Experimento Piloto1,001,113,
0.25,Stim\\03_078.jpg,Tr78_8,Tristeza,8,Estefanía despierta a las 7 a.m.,Afirmación,Tr78,78,,,,,,,,,,,,,0,10,10,10,,,,,4,0.600387789755,2018_may._08_1811,60.0468122393,Experimento Piloto1,001,113,
0.25,Stim\\02_075.jpg,Al75_1,Alegría,1,Juan colecciona monedas antiguas.,Afirmación,Al75,75,,,,,,,,,,,,,0,11,11,11,,,,,3,0.200452049507,2018_may._08_1811,60.0468122393,Experimento Piloto1,001,113,
0.25,Stim\\05_078.jpg,En78_11,Enojo,11,María asiste a la cena.,Afirmación,En78,78,,,,,,,,,,,,,0,12,12,12,,,,,2,0.450242201254,2018_may._08_1811,60.0468122393,Experimento Piloto1,001,113,
2.5,Stim\\03_028.jpg,Tr28_15,Tristeza,15,Ángel envía una carta a la abuela.,Afirmación,Tr28,28,,,,,,,,,,,,,0,13,13,13,,,,,4,0.550365588903,2018_may._08_1811,60.0468122393,Experimento Piloto1,001,113,
2.5,Stim\\02_019.jpg,Al19_3,Alegría,3,Andrea diseña la portada del libro.,Afirmación,Al19,19,,,,,,,,,,,,,0,14,14,14,,,,,3,0.450314047227,2018_may._08_1811,60.0468122393,Experimento Piloto1,001,113,
2.5,Stim\\05_019.jpg,En19_5,Enojo,5,Emilio revisa el formato del archivo.,Afirmación,En19,19,,,,,,,,,,,,,0,15,15,15,,,,,2,0.300356329251,2018_may._08_1811,60.0468122393,Experimento Piloto1,001,113,
0.25,Stim\\02_028.jpg,Al28_11,Alegría,11,María asiste a la cena.,Afirmación,Al28,28,,,,,,,,,,,,,0,16,16,16,,,,,3,1.0006479525,2018_may._08_1811,60.0468122393,Experimento Piloto1,001,113,
0.25,Stim\\03_019.jpg,Tr19_11,Tristeza,11,María asiste a la cena.,Afirmación,Tr19,19,,,,,,,,,,,,,0,17,17,17,,,,,3,0.183748976418,2018_may._08_1811,60.0468122393,Experimento Piloto1,001,113,
2.5,Stim\\03_078.jpg,Tr78_14,Tristeza,14,Elizabeth elige la ropa un día antes.,Afirmación,Tr78,78,,,,,,,,,,,,,0,18,18,18,,,,,4,0.550008144031,2018_may._08_1811,60.0468122393,Experimento Piloto1,001,113,
0.25,Stim\\02_019.jpg,Al19_9,Alegría,9,Marco colabora en la organización del evento.,Afirmación,Al19,19,,,,,,,,,,,,,0,19,19,19,,,,,3,0.250658997146,2018_may._08_1811,60.0468122393,Experimento Piloto1,001,113,
2.5,Stim\\02_075.jpg,Al75_11,Alegría,11,María asiste a la cena.,Afirmación,Al75,75,,,,,,,,,,,,,0,20,20,20,,,,,3,0.200309696306,2018_may._08_1811,60.0468122393,Experimento Piloto1,001,113,
0.25,Stim\\02_028.jpg,Al28_4,Alegría,4,Jorge sustituye a Gustavo cada sábado.,Afirmación,Al28,28,,,,,,,,,,,,,0,21,21,21,,,,,3,0.200411887162,2018_may._08_1811,60.0468122393,Experimento Piloto1,001,113,
2.5,Stim\\02_075.jpg,Al75_10,Alegría,10,Laura finaliza la obra.,Afirmación,Al75,75,,,,,,,,,,,,,0,22,22,22,,,,,3,0.150368266392,2018_may._08_1811,60.0468122393,Experimento Piloto1,001,113,
0.25,Stim\\05_075.jpg,En75_4,Enojo,4,Jorge sustituye a Gustavo cada sábado.,Afirmación,En75,75,,,,,,,,,,,,,0,23,23,23,,,,,2,0.450505933987,2018_may._08_1811,60.0468122393,Experimento Piloto1,001,113,
2.5,Stim\\02_028.jpg,Al28_11,Alegría,11,María asiste a la cena.,Afirmación,Al28,28,,,,,,,,,,,,,0,24,24,24,,,,,3,0.183780213798,2018_may._08_1811,60.0468122393,Experimento Piloto1,001,113,
0.25,Stim\\02_078.jpg,Al78_1,Alegría,1,Juan colecciona monedas antiguas.,Afirmación,Al78,78,,,,,,,,,,,,,0,25,25,25,,,,,3,0.183794939991,2018_may._08_1811,60.0468122393,Experimento Piloto1,001,113,
2.5,Stim\\02_019.jpg,Al19_7,Alegría,7,Roberto contesta los cuestionarios solicitados.,Afirmación,Al19,19,,,,,,,,,,,,,0,26,26,26,,,,,3,0.183628489382,2018_may._08_1811,60.0468122393,Experimento Piloto1,001,113,
0.25,Stim\\05_028.jpg,En28_15,Enojo,15,Ángel envía una carta a la abuela.,Afirmación,En28,28,,,,,,,,,,,,,0,27,27,27,,,,,2,0.28369788099,2018_may._08_1811,60.0468122393,Experimento Piloto1,001,113,
0.25,Stim\\03_075.jpg,Tr75_2,Tristeza,2,Jonathan pasea al perro.,Afirmación,Tr75,75,,,,,,,,,,,,,0,28,28,28,,,,,4,0.35024956435,2018_may._08_1811,60.0468122393,Experimento Piloto1,001,113,
0.25,Stim\\05_075.jpg,En75_3,Enojo,3,Andrea diseña la portada del libro.,Afirmación,En75,75,,,,,,,,,,,,,0,29,29,29,,,,,3,0.233632840303,2018_may._08_1811,60.0468122393,Experimento Piloto1,001,113,
2.5,Stim\\05_028.jpg,En28_10,Enojo,10,Laura finaliza la obra.,Afirmación,En28,28,,,,,,,,,,,,,0,30,30,30,,,,,2,0.550353093951,2018_may._08_1811,60.0468122393,Experimento Piloto1,001,113,
0.25,Stim\\05_019.jpg,En19_4,Enojo,4,Jorge sustituye a Gustavo cada sábado.,Afirmación,En19,19,,,,,,,,,,,,,0,31,31,31,,,,,2,0.23375555858,2018_may._08_1811,60.0468122393,Experimento Piloto1,001,113,
2.5,Stim\\02_078.jpg,Al78_1,Alegría,1,Juan colecciona monedas antiguas.,Afirmación,Al78,78,,,,,,,,,,,,,0,32,32,32,,,,,3,0.900552678494,2018_may._08_1811,60.0468122393,Experimento Piloto1,001,113,
0.25,Stim\\05_075.jpg,En75_6,Enojo,6,Eduardo camina hacia la biblioteca.,Afirmación,En75,75,,,,,,,,,,,,,0,33,33,33,,,,,2,0.350480720959,2018_may._08_1811,60.0468122393,Experimento Piloto1,001,113,
2.5,Stim\\02_019.jpg,Al19_12,Alegría,12,Ana compra el libro.,Afirmación,Al19,19,,,,,,,,,,,,,0,34,34,34,,,,,3,0.250439889241,2018_may._08_1811,60.0468122393,Experimento Piloto1,001,113,
0.25,Stim\\05_075.jpg,En75_8,Enojo,8,Estefanía despierta a las 7 a.m.,Afirmación,En75,75,,,,,,,,,,,,,0,35,35,35,,,,,2,0.183896684598,2018_may._08_1811,60.0468122393,Experimento Piloto1,001,113,
2.5,Stim\\03_028.jpg,Tr28_4,Tristeza,4,Jorge sustituye a Gustavo cada sábado.,Afirmación,Tr28,28,,,,,,,,,,,,,0,36,36,36,,,,,4,0.183709260321,2018_may._08_1811,60.0468122393,Experimento Piloto1,001,113,
0.25,Stim\\03_078.jpg,Tr78_12,Tristeza,12,Ana compra el libro.,Afirmación,Tr78,78,,,,,,,,,,,,,0,37,37,37,,,,,4,0.133880284974,2018_may._08_1811,60.0468122393,Experimento Piloto1,001,113,
2.5,Stim\\03_019.jpg,Tr19_3,Tristeza,3,Andrea diseña la portada del libro.,Afirmación,Tr19,19,,,,,,,,,,,,,0,38,38,38,,,,,3,0.950271430516,2018_may._08_1811,60.0468122393,Experimento Piloto1,001,113,
2.5,Stim\\05_075.jpg,En75_4,Enojo,4,Jorge sustituye a Gustavo cada sábado.,Afirmación,En75,75,,,,,,,,,,,,,0,39,39,39,,,,,2,0.300375964175,2018_may._08_1811,60.0468122393,Experimento Piloto1,001,113,
0.25,Stim\\05_078.jpg,En78_6,Enojo,6,Eduardo camina hacia la biblioteca.,Afirmación,En78,78,,,,,,,,,,,,,0,40,40,40,,,,,2,0.350367820144,2018_may._08_1811,60.0468122393,Experimento Piloto1,001,113,
0.25,Stim\\03_078.jpg,Tr78_3,Tristeza,3,Andrea diseña la portada del libro.,Afirmación,Tr78,78,,,,,,,,,,,,,0,41,41,41,,,,,4,0.450063701942,2018_may._08_1811,60.0468122393,Experimento Piloto1,001,113,
0.25,Stim\\05_078.jpg,En78_15,Enojo,15,Ángel envía una carta a la abuela.,Afirmación,En78,78,,,,,,,,,,,,,0,42,42,42,,,,,2,0.850028894576,2018_may._08_1811,60.0468122393,Experimento Piloto1,001,113,
2.5,Stim\\05_078.jpg,En78_2,Enojo,2,Jonathan pasea al perro.,Afirmación,En78,78,,,,,,,,,,,,,0,43,43,43,,,,,2,0.250442566731,2018_may._08_1811,60.0468122393,Experimento Piloto1,001,113,
2.5,Stim\\02_078.jpg,Al78_4,Alegría,4,Jorge sustituye a Gustavo cada sábado.,Afirmación,Al78,78,,,,,,,,,,,,,0,44,44,44,,,,,3,0.200420365879,2018_may._08_1811,60.0468122393,Experimento Piloto1,001,113,
2.5,Stim\\05_078.jpg,En78_4,Enojo,4,Jorge sustituye a Gustavo cada sábado.,Afirmación,En78,78,,,,,,,,,,,,,0,45,45,45,,,,,2,0.500352313016,2018_may._08_1811,60.0468122393,Experimento Piloto1,001,113,
0.25,Stim\\05_019.jpg,En19_9,Enojo,9,Marco colabora en la organización del evento.,Afirmación,En19,19,,,,,,,,,,,,,0,46,46,46,,,,,2,0.23372699869,2018_may._08_1811,60.0468122393,Experimento Piloto1,001,113,
0.25,Stim\\05_019.jpg,En19_15,Enojo,15,Ángel envía una carta a la abuela.,Afirmación,En19,19,,,,,,,,,,,,,0,47,47,47,,,,,2,0.383786907522,2018_may._08_1811,60.0468122393,Experimento Piloto1,001,113,
2.5,Stim\\02_028.jpg,Al28_2,Alegría,2,Jonathan pasea al perro.,Afirmación,Al28,28,,,,,,,,,,,,,0,48,48,48,,,,,3,0.150465994765,2018_may._08_1811,60.0468122393,Experimento Piloto1,001,113,
0.25,Stim\\03_075.jpg,Tr75_1,Tristeza,1,Juan colecciona monedas antiguas.,Afirmación,Tr75,75,,,,,,,,,,,,,0,49,49,49,,,,,3,0.183736927715,2018_may._08_1811,60.0468122393,Experimento Piloto1,001,113,
2.5,Stim\\02_028.jpg,Al28_12,Alegría,12,Ana compra el libro.,Afirmación,Al28,28,,,,,,,,,,,,,0,50,50,50,,,,,3,0.200433753327,2018_may._08_1811,60.0468122393,Experimento Piloto1,001,113,
0.25,Stim\\05_019.jpg,En19_5,Enojo,5,Emilio revisa el formato del archivo.,Afirmación,En19,19,,,,,,,,,,,,,0,51,51,51,,,,,2,0.234117019686,2018_may._08_1811,60.0468122393,Experimento Piloto1,001,113,
0.25,Stim\\02_075.jpg,Al75_9,Alegría,9,Marco colabora en la organización del evento.,Afirmación,Al75,75,,,,,,,,,,,,,0,52,52,52,,,,,3,0.433588215476,2018_may._08_1811,60.0468122393,Experimento Piloto1,001,113,
2.5,Stim\\03_019.jpg,Tr19_12,Tristeza,12,Ana compra el libro.,Afirmación,Tr19,19,,,,,,,,,,,,,0,53,53,53,,,,,3,0.233785903463,2018_may._08_1811,60.0468122393,Experimento Piloto1,001,113,
2.5,Stim\\02_019.jpg,Al19_4,Alegría,4,Jorge sustituye a Gustavo cada sábado.,Afirmación,Al19,19,,,,,,,,,,,,,0,54,54,54,,,,,3,0.233656491462,2018_may._08_1811,60.0468122393,Experimento Piloto1,001,113,
0.25,Stim\\02_019.jpg,Al19_12,Alegría,12,Ana compra el libro.,Afirmación,Al19,19,,,,,,,,,,,,,0,55,55,55,,,,,3,0.150401735013,2018_may._08_1811,60.0468122393,Experimento Piloto1,001,113,
2.5,Stim\\02_078.jpg,Al78_7,Alegría,7,Roberto contesta los cuestionarios solicitados.,Afirmación,Al78,78,,,,,,,,,,,,,0,56,56,56,,,,,3,0.233696653807,2018_may._08_1811,60.0468122393,Experimento Piloto1,001,113,
2.5,Stim\\03_078.jpg,Tr78_13,Tristeza,13,Rocío consume alimentos nutritivos.,Afirmación,Tr78,78,,,,,,,,,,,,,0,57,57,57,,,,,4,0.233792150939,2018_may._08_1811,60.0468122393,Experimento Piloto1,001,113,
2.5,Stim\\02_075.jpg,Al75_9,Alegría,9,Marco colabora en la organización del evento.,Afirmación,Al75,75,,,,,,,,,,,,,0,58,58,58,,,,,3,0.283808104315,2018_may._08_1811,60.0468122393,Experimento Piloto1,001,113,
0.25,Stim\\02_028.jpg,Al28_5,Alegría,5,Emilio revisa el formato del archivo.,Afirmación,Al28,28,,,,,,,,,,,,,0,59,59,59,,,,,3,0.183645446817,2018_may._08_1811,60.0468122393,Experimento Piloto1,001,113,
2.5,Stim\\03_028.jpg,Tr28_7,Tristeza,7,Roberto contesta los cuestionarios solicitados.,Afirmación,Tr28,28,,,,,,,,,,,,,0,60,60,60,,,,,4,0.333798621539,2018_may._08_1811,60.0468122393,Experimento Piloto1,001,113,
0.25,Stim\\05_078.jpg,En78_7,Enojo,7,Roberto contesta los cuestionarios solicitados.,Afirmación,En78,78,,,,,,,,,,,,,0,61,61,61,,,,,2,0.400324868747,2018_may._08_1811,60.0468122393,Experimento Piloto1,001,113,
2.5,Stim\\03_028.jpg,Tr28_5,Tristeza,5,Emilio revisa el formato del archivo.,Afirmación,Tr28,28,,,,,,,,,,,,,0,62,62,62,,,,,4,0.400236957836,2018_may._08_1811,60.0468122393,Experimento Piloto1,001,113,
0.25,Stim\\02_019.jpg,Al19_13,Alegría,13,Rocío consume alimentos nutritivos.,Afirmación,Al19,19,,,,,,,,,,,,,0,63,63,63,,,,,3,0.133766937911,2018_may._08_1811,60.0468122393,Experimento Piloto1,001,113,
2.5,Stim\\05_019.jpg,En19_13,Enojo,13,Rocío consume alimentos nutritivos.,Afirmación,En19,19,,,,,,,,,,,,,0,64,64,64,,,,,2,0.650401065641,2018_may._08_1811,60.0468122393,Experimento Piloto1,001,113,
2.5,Stim\\03_078.jpg,Tr78_4,Tristeza,4,Jorge sustituye a Gustavo cada sábado.,Afirmación,Tr78,78,,,,,,,,,,,,,0,65,65,65,,,,,4,0.700065375373,2018_may._08_1811,60.0468122393,Experimento Piloto1,001,113,
0.25,Stim\\05_028.jpg,En28_13,Enojo,13,Rocío consume alimentos nutritivos.,Afirmación,En28,28,,,,,,,,,,,,,0,66,66,66,,,,,2,0.300342049306,2018_may._08_1811,60.0468122393,Experimento Piloto1,001,113,
0.25,Stim\\02_075.jpg,Al75_4,Alegría,4,Jorge sustituye a Gustavo cada sábado.,Afirmación,Al75,75,,,,,,,,,,,,,0,67,67,67,,,,,3,0.250393033172,2018_may._08_1811,60.0468122393,Experimento Piloto1,001,113,
0.25,Stim\\03_019.jpg,Tr19_14,Tristeza,14,Elizabeth elige la ropa un día antes.,Afirmación,Tr19,19,,,,,,,,,,,,,0,68,68,68,,,,,3,0.183825731122,2018_may._08_1811,60.0468122393,Experimento Piloto1,001,113,
2.5,Stim\\02_075.jpg,Al75_4,Alegría,4,Jorge sustituye a Gustavo cada sábado.,Afirmación,Al75,75,,,,,,,,,,,,,0,69,69,69,,,,,3,0.13384235387,2018_may._08_1811,60.0468122393,Experimento Piloto1,001,113,
2.5,Stim\\05_078.jpg,En78_7,Enojo,7,Roberto contesta los cuestionarios solicitados.,Afirmación,En78,78,,,,,,,,,,,,,0,70,70,70,,,,,2,0.183958713109,2018_may._08_1811,60.0468122393,Experimento Piloto1,001,113,
2.5,Stim\\05_028.jpg,En28_6,Enojo,6,Eduardo camina hacia la biblioteca.,Afirmación,En28,28,,,,,,,,,,,,,0,71,71,71,,,,,2,0.650248894978,2018_may._08_1811,60.0468122393,Experimento Piloto1,001,113,
2.5,Stim\\05_028.jpg,En28_7,Enojo,7,Roberto contesta los cuestionarios solicitados.,Afirmación,En28,28,,,,,,,,,,,,,0,72,72,72,,,,,2,0.400032129876,2018_may._08_1811,60.0468122393,Experimento Piloto1,001,113,
2.5,Stim\\03_028.jpg,Tr28_14,Tristeza,14,Elizabeth elige la ropa un día antes.,Afirmación,Tr28,28,,,,,,,,,,,,,0,73,73,73,,,,,4,0.549951916748,2018_may._08_1811,60.0468122393,Experimento Piloto1,001,113,
2.5,Stim\\02_019.jpg,Al19_11,Alegría,11,María asiste a la cena.,Afirmación,Al19,19,,,,,,,,,,,,,0,74,74,74,,,,,3,0.433684605104,2018_may._08_1811,60.0468122393,Experimento Piloto1,001,113,
0.25,Stim\\05_028.jpg,En28_7,Enojo,7,Roberto contesta los cuestionarios solicitados.,Afirmación,En28,28,,,,,,,,,,,,,0,75,75,75,,,,,2,0.350261166805,2018_may._08_1811,60.0468122393,Experimento Piloto1,001,113,
0.25,Stim\\05_078.jpg,En78_13,Enojo,13,Rocío consume alimentos nutritivos.,Afirmación,En78,78,,,,,,,,,,,,,0,76,76,76,,,,,2,0.283448428202,2018_may._08_1811,60.0468122393,Experimento Piloto1,001,113,
0.25,Stim\\03_028.jpg,Tr28_14,Tristeza,14,Elizabeth elige la ropa un día antes.,Afirmación,Tr28,28,,,,,,,,,,,,,0,77,77,77,,,,,4,0.433582414248,2018_may._08_1811,60.0468122393,Experimento Piloto1,001,113,
2.5,Stim\\03_075.jpg,Tr75_14,Tristeza,14,Elizabeth elige la ropa un día antes.,Afirmación,Tr75,75,,,,,,,,,,,,,0,78,78,78,,,,,4,0.900793206316,2018_may._08_1811,60.0468122393,Experimento Piloto1,001,113,
0.25,Stim\\05_019.jpg,En19_10,Enojo,10,Laura finaliza la obra.,Afirmación,En19,19,,,,,,,,,,,,,0,79,79,79,,,,,2,0.349730577602,2018_may._08_1811,60.0468122393,Experimento Piloto1,001,113,
0.25,Stim\\05_078.jpg,En78_9,Enojo,9,Marco colabora en la organización del evento.,Afirmación,En78,78,,,,,,,,,,,,,0,80,80,80,,,,,2,1.31611647973,2018_may._08_1811,60.0468122393,Experimento Piloto1,001,113,
0.25,Stim\\02_028.jpg,Al28_6,Alegría,6,Eduardo camina hacia la biblioteca.,Afirmación,Al28,28,,,,,,,,,,,,,0,81,81,81,,,,,3,0.283823276756,2018_may._08_1811,60.0468122393,Experimento Piloto1,001,113,
0.25,Stim\\05_078.jpg,En78_12,Enojo,12,Ana compra el libro.,Afirmación,En78,78,,,,,,,,,,,,,0,82,82,82,,,,,2,0.300363022975,2018_may._08_1811,60.0468122393,Experimento Piloto1,001,113,
2.5,Stim\\05_075.jpg,En75_1,Enojo,1,Juan colecciona monedas antiguas.,Afirmación,En75,75,,,,,,,,,,,,,0,83,83,83,,,,,2,0.233660061449,2018_may._08_1811,60.0468122393,Experimento Piloto1,001,113,
0.25,Stim\\03_019.jpg,Tr19_13,Tristeza,13,Rocío consume alimentos nutritivos.,Afirmación,Tr19,19,,,,,,,,,,,,,0,84,84,84,,,,,3,0.250368935765,2018_may._08_1811,60.0468122393,Experimento Piloto1,001,113,
2.5,Stim\\03_078.jpg,Tr78_11,Tristeza,11,María asiste a la cena.,Afirmación,Tr78,78,,,,,,,,,,,,,0,85,85,85,,,,,4,0.25035733331,2018_may._08_1811,60.0468122393,Experimento Piloto1,001,113,
2.5,Stim\\05_019.jpg,En19_1,Enojo,1,Juan colecciona monedas antiguas.,Afirmación,En19,19,,,,,,,,,,,,,0,86,86,86,,,,,2,0.35032230282,2018_may._08_1811,60.0468122393,Experimento Piloto1,001,113,
0.25,Stim\\02_075.jpg,Al75_10,Alegría,10,Laura finaliza la obra.,Afirmación,Al75,75,,,,,,,,,,,,,0,87,87,87,,,,,3,0.233772516015,2018_may._08_1811,60.0468122393,Experimento Piloto1,001,113,
2.5,Stim\\02_019.jpg,Al19_14,Alegría,14,Elizabeth elige la ropa un día antes.,Afirmación,Al19,19,,,,,,,,,,,,,0,88,88,88,,,,,3,0.233779209739,2018_may._08_1811,60.0468122393,Experimento Piloto1,001,113,
0.25,Stim\\03_028.jpg,Tr28_6,Tristeza,6,Eduardo camina hacia la biblioteca.,Afirmación,Tr28,28,,,,,,,,,,,,,0,89,89,89,,,,,4,0.183685609162,2018_may._08_1811,60.0468122393,Experimento Piloto1,001,113,
0.25,Stim\\02_075.jpg,Al75_8,Alegría,8,Estefanía despierta a las 7 a.m.,Afirmación,Al75,75,,,,,,,,,,,,,0,90,90,90,,,,,3,0.183782445039,2018_may._08_1811,60.0468122393,Experimento Piloto1,001,113,
2.5,Stim\\02_019.jpg,Al19_6,Alegría,6,Eduardo camina hacia la biblioteca.,Afirmación,Al19,19,,,,,,,,,,,,,0,91,91,91,,,,,3,0.200497120583,2018_may._08_1811,60.0468122393,Experimento Piloto1,001,113,
2.5,Stim\\03_078.jpg,Tr78_7,Tristeza,7,Roberto contesta los cuestionarios solicitados.,Afirmación,Tr78,78,,,,,,,,,,,,,0,92,92,92,,,,,4,0.233722536207,2018_may._08_1811,60.0468122393,Experimento Piloto1,001,113,
2.5,Stim\\02_028.jpg,Al28_8,Alegría,8,Estefanía despierta a las 7 a.m.,Afirmación,Al28,28,,,,,,,,,,,,,0,93,93,93,,,,,3,0.183644108072,2018_may._08_1811,60.0468122393,Experimento Piloto1,001,113,
0.25,Stim\\03_075.jpg,Tr75_13,Tristeza,13,Rocío consume alimentos nutritivos.,Afirmación,Tr75,75,,,,,,,,,,,,,0,94,94,94,,,,,4,0.300257708381,2018_may._08_1811,60.0468122393,Experimento Piloto1,001,113,
2.5,Stim\\02_075.jpg,Al75_6,Alegría,6,Eduardo camina hacia la biblioteca.,Afirmación,Al75,75,,,,,,,,,,,,,0,95,95,95,,,,,3,0.183972546806,2018_may._08_1811,60.0468122393,Experimento Piloto1,001,113,
0.25,Stim\\02_028.jpg,Al28_9,Alegría,9,Marco colabora en la organización del evento.,Afirmación,Al28,28,,,,,,,,,,,,,0,96,96,96,,,,,3,2.64967725093,2018_may._08_1811,60.0468122393,Experimento Piloto1,001,113,
0.25,Stim\\02_019.jpg,Al19_8,Alegría,8,Estefanía despierta a las 7 a.m.,Afirmación,Al19,19,,,,,,,,,,,,,0,97,97,97,,,,,3,0.300111785194,2018_may._08_1811,60.0468122393,Experimento Piloto1,001,113,
2.5,Stim\\02_019.jpg,Al19_1,Alegría,1,Juan colecciona monedas antiguas.,Afirmación,Al19,19,,,,,,,,,,,,,0,98,98,98,,,,,3,0.233697546304,2018_may._08_1811,60.0468122393,Experimento Piloto1,001,113,
0.25,Stim\\02_019.jpg,Al19_5,Alegría,5,Emilio revisa el formato del archivo.,Afirmación,Al19,19,,,,,,,,,,,,,0,99,99,99,,,,,3,0.500333124341,2018_may._08_1811,60.0468122393,Experimento Piloto1,001,113,
2.5,Stim\\02_078.jpg,Al78_13,Alegría,13,Rocío consume alimentos nutritivos.,Afirmación,Al78,78,,,,,,,,,,,,,0,100,100,100,,,,,3,0.250364919531,2018_may._08_1811,60.0468122393,Experimento Piloto1,001,113,
2.5,Stim\\05_078.jpg,En78_12,Enojo,12,Ana compra el libro.,Afirmación,En78,78,,,,,,,,,,,,,0,101,101,101,,,,,2,0.283611755072,2018_may._08_1811,60.0468122393,Experimento Piloto1,001,113,
2.5,Stim\\03_075.jpg,Tr75_11,Tristeza,11,María asiste a la cena.,Afirmación,Tr75,75,,,,,,,,,,,,,0,102,102,102,,,,,4,0.450376075737,2018_may._08_1811,60.0468122393,Experimento Piloto1,001,113,
0.25,Stim\\02_078.jpg,Al78_13,Alegría,13,Rocío consume alimentos nutritivos.,Afirmación,Al78,78,,,,,,,,,,,,,0,103,103,103,,,,,3,1.11669214001,2018_may._08_1811,60.0468122393,Experimento Piloto1,001,113,
0.25,Stim\\03_075.jpg,Tr75_11,Tristeza,11,María asiste a la cena.,Afirmación,Tr75,75,,,,,,,,,,,,,0,104,104,104,,,,,4,0.550212971991,2018_may._08_1811,60.0468122393,Experimento Piloto1,001,113,
2.5,Stim\\05_075.jpg,En75_8,Enojo,8,Estefanía despierta a las 7 a.m.,Afirmación,En75,75,,,,,,,,,,,,,0,105,105,105,,,,,2,0.750181734612,2018_may._08_1811,60.0468122393,Experimento Piloto1,001,113,
2.5,Stim\\03_078.jpg,Tr78_2,Tristeza,2,Jonathan pasea al perro.,Afirmación,Tr78,78,,,,,,,,,,,,,0,106,106,106,,,,,4,0.600260608995,2018_may._08_1811,60.0468122393,Experimento Piloto1,001,113,
2.5,Stim\\03_078.jpg,Tr78_12,Tristeza,12,Ana compra el libro.,Afirmación,Tr78,78,,,,,,,,,,,,,0,107,107,107,,,,,4,0.383709260321,2018_may._08_1811,60.0468122393,Experimento Piloto1,001,113,
2.5,Stim\\05_019.jpg,En19_10,Enojo,10,Laura finaliza la obra.,Afirmación,En19,19,,,,,,,,,,,,,0,108,108,108,,,,,3,0.0341589670247,2018_may._08_1811,60.0468122393,Experimento Piloto1,001,113,
2.5,Stim\\05_078.jpg,En78_15,Enojo,15,Ángel envía una carta a la abuela.,Afirmación,En78,78,,,,,,,,,,,,,0,109,109,109,,,,,2,2.28317130802,2018_may._08_1811,60.0468122393,Experimento Piloto1,001,113,
0.25,Stim\\02_028.jpg,Al28_15,Alegría,15,Ángel envía una carta a la abuela.,Afirmación,Al28,28,,,,,,,,,,,,,0,110,110,110,,,,,3,1.01681061892,2018_may._08_1811,60.0468122393,Experimento Piloto1,001,113,
2.5,Stim\\02_075.jpg,Al75_13,Alegría,13,Rocío consume alimentos nutritivos.,Afirmación,Al75,75,,,,,,,,,,,,,0,111,111,111,,,,,3,0.916907231676,2018_may._08_1811,60.0468122393,Experimento Piloto1,001,113,
2.5,Stim\\02_078.jpg,Al78_5,Alegría,5,Emilio revisa el formato del archivo.,Afirmación,Al78,78,,,,,,,,,,,,,0,112,112,112,,,,,3,0.3003826579,2018_may._08_1811,60.0468122393,Experimento Piloto1,001,113,
2.5,Stim\\05_019.jpg,En19_12,Enojo,12,Ana compra el libro.,Afirmación,En19,19,,,,,,,,,,,,,0,113,113,113,,,,,2,0.450327434675,2018_may._08_1811,60.0468122393,Experimento Piloto1,001,113,
2.5,Stim\\03_028.jpg,Tr28_13,Tristeza,13,Rocío consume alimentos nutritivos.,Afirmación,Tr28,28,,,,,,,,,,,,,0,114,114,114,,,,,4,0.500022535538,2018_may._08_1811,60.0468122393,Experimento Piloto1,001,113,
2.5,Stim\\02_075.jpg,Al75_1,Alegría,1,Juan colecciona monedas antiguas.,Afirmación,Al75,75,,,,,,,,,,,,,0,115,115,115,,,,,3,0.23352484822,2018_may._08_1811,60.0468122393,Experimento Piloto1,001,113,
2.5,Stim\\02_028.jpg,Al28_3,Alegría,3,Andrea diseña la portada del libro.,Afirmación,Al28,28,,,,,,,,,,,,,0,116,116,116,,,,,2,0.916763985979,2018_may._08_1811,60.0468122393,Experimento Piloto1,001,113,
0.25,Stim\\05_028.jpg,En28_10,Enojo,10,Laura finaliza la obra.,Afirmación,En28,28,,,,,,,,,,,,,0,117,117,117,,,,,2,0.333601826048,2018_may._08_1811,60.0468122393,Experimento Piloto1,001,113,
0.25,Stim\\02_078.jpg,Al78_3,Alegría,3,Andrea diseña la portada del libro.,Afirmación,Al78,78,,,,,,,,,,,,,0,118,118,118,,,,,3,0.450259604936,2018_may._08_1811,60.0468122393,Experimento Piloto1,001,113,
2.5,Stim\\03_075.jpg,Tr75_15,Tristeza,15,Ángel envía una carta a la abuela.,Afirmación,Tr75,75,,,,,,,,,,,,,0,119,119,119,,,,,4,0.233688621338,2018_may._08_1811,60.0468122393,Experimento Piloto1,001,113,
