Tiempo,ImagenesE,ClaveEn,Emocion,NumEn,Enunciado,ActoHabla,Clave,Cara,trials.thisRepN,trials.thisTrialN,trials.thisN,trials.thisIndex,Bloque2.thisRepN,Bloque2.thisTrialN,Bloque2.thisN,Bloque2.thisIndex,Bloque3.thisRepN,Bloque3.thisTrialN,Bloque3.thisN,Bloque3.thisIndex,Bloque1.thisRepN,Bloque1.thisTrialN,Bloque1.thisN,Bloque1.thisIndex,Resp_Bloque2.keys,Resp_Bloque2.rt,Resp_Bloque3.keys,Resp_Bloque3.rt,Resp_Bloque1.keys,Resp_Bloque1.rt,date,frameRate,expName,session,participant,
2.5,Stim\\03_028.jpg,Tr28_1,Tristeza,1,Juan colecciona monedas antiguas.,Afirmación,Tr28,28,,,,,0,0,0,0,,,,,,,,,4,2.79963746838,,,,,2018_may._09_0027,60.0057303674,Experimento Piloto1,001,114,
0.25,Stim\\03_019.jpg,Tr19_1,Tristeza,1,Juan colecciona monedas antiguas.,Afirmación,Tr19,19,,,,,0,1,1,1,,,,,,,,,3,1.16664851926,,,,,2018_may._09_0027,60.0057303674,Experimento Piloto1,001,114,
2.5,Stim\\03_078.jpg,Tr78_10,Tristeza,10,Laura finaliza la obra.,Afirmación,Tr78,78,,,,,0,2,2,2,,,,,,,,,4,6.86500070507,,,,,2018_may._09_0027,60.0057303674,Experimento Piloto1,001,114,
0.25,Stim\\02_075.jpg,Al75_5,Alegría,5,Emilio revisa el formato del archivo.,Afirmación,Al75,75,,,,,0,3,3,3,,,,,,,,,3,0.550230085305,,,,,2018_may._09_0027,60.0057303674,Experimento Piloto1,001,114,
0.25,Stim\\02_019.jpg,Al19_15,Alegría,15,Ángel envía una carta a la abuela.,Afirmación,Al19,19,,,,,0,4,4,4,,,,,,,,,3,1.16688369179,,,,,2018_may._09_0027,60.0057303674,Experimento Piloto1,001,114,
2.5,Stim\\02_075.jpg,Al75_7,Alegría,7,Roberto contesta los cuestionarios solicitados.,Afirmación,Al75,75,,,,,0,5,5,5,,,,,,,,,2,2.48309569157,,,,,2018_may._09_0027,60.0057303674,Experimento Piloto1,001,114,
0.25,Stim\\03_075.jpg,Tr75_8,Tristeza,8,Estefanía despierta a las 7 a.m.,Afirmación,Tr75,75,,,,,0,6,6,6,,,,,,,,,3,1.51679230026,,,,,2018_may._09_0027,60.0057303674,Experimento Piloto1,001,114,
0.25,Stim\\02_019.jpg,Al19_11,Alegría,11,María asiste a la cena.,Afirmación,Al19,19,,,,,0,7,7,7,,,,,,,,,2,2.14939346015,,,,,2018_may._09_0027,60.0057303674,Experimento Piloto1,001,114,
2.5,Stim\\02_019.jpg,Al19_2,Alegría,2,Jonathan pasea al perro.,Afirmación,Al19,19,,,,,0,8,8,8,,,,,,,,,3,3.86604180091,,,,,2018_may._09_0027,60.0057303674,Experimento Piloto1,001,114,
2.5,Stim\\05_075.jpg,En75_5,Enojo,5,Emilio revisa el formato del archivo.,Afirmación,En75,75,,,,,0,9,9,9,,,,,,,,,2,1.21648546036,,,,,2018_may._09_0027,60.0057303674,Experimento Piloto1,001,114,
0.25,Stim\\03_078.jpg,Tr78_10,Tristeza,10,Laura finaliza la obra.,Afirmación,Tr78,78,,,,,0,10,10,10,,,,,,,,,4,1.93311193498,,,,,2018_may._09_0027,60.0057303674,Experimento Piloto1,001,114,
0.25,Stim\\02_019.jpg,Al19_6,Alegría,6,Eduardo camina hacia la biblioteca.,Afirmación,Al19,19,,,,,0,11,11,11,,,,,,,,,3,0.850279886546,,,,,2018_may._09_0027,60.0057303674,Experimento Piloto1,001,114,
2.5,Stim\\05_019.jpg,En19_3,Enojo,3,Andrea diseña la portada del libro.,Afirmación,En19,19,,,,,0,12,12,12,,,,,,,,,3,1.63341466941,,,,,2018_may._09_0027,60.0057303674,Experimento Piloto1,001,114,
0.25,Stim\\05_019.jpg,En19_3,Enojo,3,Andrea diseña la portada del libro.,Afirmación,En19,19,,,,,0,13,13,13,,,,,,,,,3,2.71601422281,,,,,2018_may._09_0027,60.0057303674,Experimento Piloto1,001,114,
2.5,Stim\\02_028.jpg,Al28_1,Alegría,1,Juan colecciona monedas antiguas.,Afirmación,Al28,28,,,,,0,14,14,14,,,,,,,,,3,2.91664584177,,,,,2018_may._09_0027,60.0057303674,Experimento Piloto1,001,114,
0.25,Stim\\02_019.jpg,Al19_2,Alegría,2,Jonathan pasea al perro.,Afirmación,Al19,19,,,,,0,15,15,15,,,,,,,,,3,1.43308426763,,,,,2018_may._09_0027,60.0057303674,Experimento Piloto1,001,114,
0.25,Stim\\05_028.jpg,En28_11,Enojo,11,María asiste a la cena.,Afirmación,En28,28,,,,,0,16,16,16,,,,,,,,,2,1.51685879117,,,,,2018_may._09_0027,60.0057303674,Experimento Piloto1,001,114,
0.25,Stim\\03_028.jpg,Tr28_1,Tristeza,1,Juan colecciona monedas antiguas.,Afirmación,Tr28,28,,,,,0,17,17,17,,,,,,,,,4,0.800517022564,,,,,2018_may._09_0027,60.0057303674,Experimento Piloto1,001,114,
0.25,Stim\\03_078.jpg,Tr78_1,Tristeza,1,Juan colecciona monedas antiguas.,Afirmación,Tr78,78,,,,,0,18,18,18,,,,,,,,,4,3.73257982925,,,,,2018_may._09_0027,60.0057303674,Experimento Piloto1,001,114,
0.25,Stim\\02_019.jpg,Al19_1,Alegría,1,Juan colecciona monedas antiguas.,Afirmación,Al19,19,,,,,0,19,19,19,,,,,,,,,3,0.650288633,,,,,2018_may._09_0027,60.0057303674,Experimento Piloto1,001,114,
0.25,Stim\\02_019.jpg,Al19_10,Alegría,10,Laura finaliza la obra.,Afirmación,Al19,19,,,,,0,20,20,20,,,,,,,,,3,1.56670287223,,,,,2018_may._09_0027,60.0057303674,Experimento Piloto1,001,114,
2.5,Stim\\03_019.jpg,Tr19_13,Tristeza,13,Rocío consume alimentos nutritivos.,Afirmación,Tr19,19,,,,,0,21,21,21,,,,,,,,,2,1.51657944012,,,,,2018_may._09_0027,60.0057303674,Experimento Piloto1,001,114,
2.5,Stim\\05_075.jpg,En75_6,Enojo,6,Eduardo camina hacia la biblioteca.,Afirmación,En75,75,,,,,0,22,22,22,,,,,,,,,2,1.73305329804,,,,,2018_may._09_0027,60.0057303674,Experimento Piloto1,001,114,
0.25,Stim\\05_078.jpg,En78_10,Enojo,10,Laura finaliza la obra.,Afirmación,En78,78,,,,,0,23,23,23,,,,,,,,,4,0.450130482822,,,,,2018_may._09_0027,60.0057303674,Experimento Piloto1,001,114,
2.5,Stim\\05_075.jpg,En75_14,Enojo,14,Elizabeth elige la ropa un día antes.,Afirmación,En75,75,,,,,0,24,24,24,,,,,,,,,3,0.966096332379,,,,,2018_may._09_0027,60.0057303674,Experimento Piloto1,001,114,
0.25,Stim\\05_019.jpg,En19_7,Enojo,7,Roberto contesta los cuestionarios solicitados.,Afirmación,En19,19,,,,,0,25,25,25,,,,,,,,,4,1.01643619461,,,,,2018_may._09_0027,60.0057303674,Experimento Piloto1,001,114,
0.25,Stim\\02_078.jpg,Al78_14,Alegría,14,Elizabeth elige la ropa un día antes.,Afirmación,Al78,78,,,,,0,26,26,26,,,,,,,,,3,1.36691198389,,,,,2018_may._09_0027,60.0057303674,Experimento Piloto1,001,114,
0.25,Stim\\03_028.jpg,Tr28_13,Tristeza,13,Rocío consume alimentos nutritivos.,Afirmación,Tr28,28,,,,,0,27,27,27,,,,,,,,,2,0.800149314474,,,,,2018_may._09_0027,60.0057303674,Experimento Piloto1,001,114,
2.5,Stim\\03_019.jpg,Tr19_8,Tristeza,8,Estefanía despierta a las 7 a.m.,Afirmación,Tr19,19,,,,,0,28,28,28,,,,,,,,,2,1.26666511967,,,,,2018_may._09_0027,60.0057303674,Experimento Piloto1,001,114,
2.5,Stim\\02_019.jpg,Al19_8,Alegría,8,Estefanía despierta a las 7 a.m.,Afirmación,Al19,19,,,,,0,29,29,29,,,,,,,,,3,0.70035806914,,,,,2018_may._09_0027,60.0057303674,Experimento Piloto1,001,114,
2.5,Stim\\02_028.jpg,Al28_9,Alegría,9,Marco colabora en la organización del evento.,Afirmación,Al28,28,,,,,0,30,30,30,,,,,,,,,3,1.51671465317,,,,,2018_may._09_0027,60.0057303674,Experimento Piloto1,001,114,
2.5,Stim\\03_075.jpg,Tr75_1,Tristeza,1,Juan colecciona monedas antiguas.,Afirmación,Tr75,75,,,,,0,31,31,31,,,,,,,,,4,1.2168330873,,,,,2018_may._09_0027,60.0057303674,Experimento Piloto1,001,114,
2.5,Stim\\05_078.jpg,En78_8,Enojo,8,Estefanía despierta a las 7 a.m.,Afirmación,En78,78,,,,,0,32,32,32,,,,,,,,,2,2.54955937504,,,,,2018_may._09_0027,60.0057303674,Experimento Piloto1,001,114,
0.25,Stim\\02_028.jpg,Al28_12,Alegría,12,Ana compra el libro.,Afirmación,Al28,28,,,,,0,33,33,33,,,,,,,,,3,0.650428308525,,,,,2018_may._09_0027,60.0057303674,Experimento Piloto1,001,114,
0.25,Stim\\05_075.jpg,En75_1,Enojo,1,Juan colecciona monedas antiguas.,Afirmación,En75,75,,,,,0,34,34,34,,,,,,,,,4,2.69979535081,,,,,2018_may._09_0027,60.0057303674,Experimento Piloto1,001,114,
0.25,Stim\\03_028.jpg,Tr28_4,Tristeza,4,Jorge sustituye a Gustavo cada sábado.,Afirmación,Tr28,28,,,,,0,35,35,35,,,,,,,,,2,0.866838799273,,,,,2018_may._09_0027,60.0057303674,Experimento Piloto1,001,114,
2.5,Stim\\03_078.jpg,Tr78_3,Tristeza,3,Andrea diseña la portada del libro.,Afirmación,Tr78,78,,,,,0,36,36,36,,,,,,,,,4,4.19912553304,,,,,2018_may._09_0027,60.0057303674,Experimento Piloto1,001,114,
0.25,Stim\\05_078.jpg,En78_4,Enojo,4,Jorge sustituye a Gustavo cada sábado.,Afirmación,En78,78,,,,,0,37,37,37,,,,,,,,,2,0.600119237381,,,,,2018_may._09_0027,60.0057303674,Experimento Piloto1,001,114,
2.5,Stim\\03_019.jpg,Tr19_7,Tristeza,7,Roberto contesta los cuestionarios solicitados.,Afirmación,Tr19,19,,,,,0,38,38,38,,,,,,,,,3,0.550338077244,,,,,2018_may._09_0027,60.0057303674,Experimento Piloto1,001,114,
0.25,Stim\\02_078.jpg,Al78_2,Alegría,2,Jonathan pasea al perro.,Afirmación,Al78,78,,,,,0,39,39,39,,,,,,,,,3,1.1168334443,,,,,2018_may._09_0027,60.0057303674,Experimento Piloto1,001,114,
0.25,Stim\\02_078.jpg,Al78_5,Alegría,5,Emilio revisa el formato del archivo.,Afirmación,Al78,78,,,,,0,40,40,40,,,,,,,,,3,0.550143513254,,,,,2018_may._09_0027,60.0057303674,Experimento Piloto1,001,114,
2.5,Stim\\05_019.jpg,En19_11,Enojo,11,María asiste a la cena.,Afirmación,En19,19,,,,,0,41,41,41,,,,,,,,,4,0.900346645199,,,,,2018_may._09_0027,60.0057303674,Experimento Piloto1,001,114,
2.5,Stim\\02_028.jpg,Al28_15,Alegría,15,Ángel envía una carta a la abuela.,Afirmación,Al28,28,,,,,0,42,42,42,,,,,,,,,3,0.450390198973,,,,,2018_may._09_0027,60.0057303674,Experimento Piloto1,001,114,
0.25,Stim\\03_019.jpg,Tr19_4,Tristeza,4,Jorge sustituye a Gustavo cada sábado.,Afirmación,Tr19,19,,,,,0,43,43,43,,,,,,,,,2,0.600170109616,,,,,2018_may._09_0027,60.0057303674,Experimento Piloto1,001,114,
2.5,Stim\\02_075.jpg,Al75_12,Alegría,12,Ana compra el libro.,Afirmación,Al75,75,,,,,0,44,44,44,,,,,,,,,3,1.51666244219,,,,,2018_may._09_0027,60.0057303674,Experimento Piloto1,001,114,
2.5,Stim\\05_028.jpg,En28_12,Enojo,12,Ana compra el libro.,Afirmación,En28,28,,,,,0,45,45,45,,,,,,,,,2,2.54991949692,,,,,2018_may._09_0027,60.0057303674,Experimento Piloto1,001,114,
0.25,Stim\\02_028.jpg,Al28_14,Alegría,14,Elizabeth elige la ropa un día antes.,Afirmación,Al28,28,,,,,0,46,46,46,,,,,,,,,3,0.650331472778,,,,,2018_may._09_0027,60.0057303674,Experimento Piloto1,001,114,
2.5,Stim\\03_075.jpg,Tr75_6,Tristeza,6,Eduardo camina hacia la biblioteca.,Afirmación,Tr75,75,,,,,0,47,47,47,,,,,,,,,4,1.36633900187,,,,,2018_may._09_0027,60.0057303674,Experimento Piloto1,001,114,
0.25,Stim\\05_028.jpg,En28_8,Enojo,8,Estefanía despierta a las 7 a.m.,Afirmación,En28,28,,,,,0,48,48,48,,,,,,,,,2,3.00004997974,,,,,2018_may._09_0027,60.0057303674,Experimento Piloto1,001,114,
2.5,Stim\\05_019.jpg,En19_7,Enojo,7,Roberto contesta los cuestionarios solicitados.,Afirmación,En19,19,,,,,0,49,49,49,,,,,,,,,2,0.600311123884,,,,,2018_may._09_0027,60.0057303674,Experimento Piloto1,001,114,
2.5,Stim\\02_019.jpg,Al19_10,Alegría,10,Laura finaliza la obra.,Afirmación,Al19,19,,,,,0,50,50,50,,,,,,,,,3,0.450292916978,,,,,2018_may._09_0027,60.0057303674,Experimento Piloto1,001,114,
0.25,Stim\\05_028.jpg,En28_14,Enojo,14,Elizabeth elige la ropa un día antes.,Afirmación,En28,28,,,,,0,51,51,51,,,,,,,,,2,1.10017412585,,,,,2018_may._09_0027,60.0057303674,Experimento Piloto1,001,114,
2.5,Stim\\03_028.jpg,Tr28_8,Tristeza,8,Estefanía despierta a las 7 a.m.,Afirmación,Tr28,28,,,,,0,52,52,52,,,,,,,,,4,0.600215180632,,,,,2018_may._09_0027,60.0057303674,Experimento Piloto1,001,114,
0.25,Stim\\02_075.jpg,Al75_3,Alegría,3,Andrea diseña la portada del libro.,Afirmación,Al75,75,,,,,0,53,53,53,,,,,,,,,3,0.449923423898,,,,,2018_may._09_0027,60.0057303674,Experimento Piloto1,001,114,
0.25,Stim\\02_028.jpg,Al28_1,Alegría,1,Juan colecciona monedas antiguas.,Afirmación,Al28,28,,,,,0,54,54,54,,,,,,,,,3,0.433799156413,,,,,2018_may._09_0027,60.0057303674,Experimento Piloto1,001,114,
0.25,Stim\\03_028.jpg,Tr28_3,Tristeza,3,Andrea diseña la portada del libro.,Afirmación,Tr28,28,,,,,0,55,55,55,,,,,,,,,4,0.700246507219,,,,,2018_may._09_0027,60.0057303674,Experimento Piloto1,001,114,
2.5,Stim\\02_078.jpg,Al78_11,Alegría,11,María asiste a la cena.,Afirmación,Al78,78,,,,,0,56,56,56,,,,,,,,,3,1.3167363408,,,,,2018_may._09_0027,60.0057303674,Experimento Piloto1,001,114,
0.25,Stim\\03_019.jpg,Tr19_12,Tristeza,12,Ana compra el libro.,Afirmación,Tr19,19,,,,,0,57,57,57,,,,,,,,,2,2.69965879902,,,,,2018_may._09_0027,60.0057303674,Experimento Piloto1,001,114,
2.5,Stim\\02_078.jpg,Al78_14,Alegría,14,Elizabeth elige la ropa un día antes.,Afirmación,Al78,78,,,,,0,58,58,58,,,,,,,,,2,4.3991431152,,,,,2018_may._09_0027,60.0057303674,Experimento Piloto1,001,114,
0.25,Stim\\03_019.jpg,Tr19_2,Tristeza,2,Jonathan pasea al perro.,Afirmación,Tr19,19,,,,,0,59,59,59,,,,,,,,,3,4.64922745601,,,,,2018_may._09_0027,60.0057303674,Experimento Piloto1,001,114,
2.5,Stim\\03_078.jpg,Tr78_1,Tristeza,1,Juan colecciona monedas antiguas.,Afirmación,Tr78,78,,,,,0,60,60,60,,,,,,,,,4,2.14936936278,,,,,2018_may._09_0027,60.0057303674,Experimento Piloto1,001,114,
0.25,Stim\\03_078.jpg,Tr78_4,Tristeza,4,Jorge sustituye a Gustavo cada sábado.,Afirmación,Tr78,78,,,,,0,61,61,61,,,,,,,,,4,1.2167366978,,,,,2018_may._09_0027,60.0057303674,Experimento Piloto1,001,114,
0.25,Stim\\05_019.jpg,En19_14,Enojo,14,Elizabeth elige la ropa un día antes.,Afirmación,En19,19,,,,,0,62,62,62,,,,,,,,,2,2.13303759012,,,,,2018_may._09_0027,60.0057303674,Experimento Piloto1,001,114,
0.25,Stim\\02_075.jpg,Al75_15,Alegría,15,Ángel envía una carta a la abuela.,Afirmación,Al75,75,,,,,0,63,63,63,,,,,,,,,3,0.350128608582,,,,,2018_may._09_0027,60.0057303674,Experimento Piloto1,001,114,
2.5,Stim\\03_028.jpg,Tr28_2,Tristeza,2,Jonathan pasea al perro.,Afirmación,Tr28,28,,,,,0,64,64,64,,,,,,,,,4,2.18316548471,,,,,2018_may._09_0027,60.0057303674,Experimento Piloto1,001,114,
0.25,Stim\\05_028.jpg,En28_3,Enojo,3,Andrea diseña la portada del libro.,Afirmación,En28,28,,,,,0,65,65,65,,,,,,,,,2,1.51673562681,,,,,2018_may._09_0027,60.0057303674,Experimento Piloto1,001,114,
0.25,Stim\\05_078.jpg,En78_3,Enojo,3,Andrea diseña la portada del libro.,Afirmación,En78,78,,,,,0,66,66,66,,,,,,,,,2,0.666600770759,,,,,2018_may._09_0027,60.0057303674,Experimento Piloto1,001,114,
0.25,Stim\\05_075.jpg,En75_9,Enojo,9,Marco colabora en la organización del evento.,Afirmación,En75,75,,,,,0,67,67,67,,,,,,,,,2,1.26668653956,,,,,2018_may._09_0027,60.0057303674,Experimento Piloto1,001,114,
2.5,Stim\\05_075.jpg,En75_7,Enojo,7,Roberto contesta los cuestionarios solicitados.,Afirmación,En75,75,,,,,0,68,68,68,,,,,,,,,2,0.700222409845,,,,,2018_may._09_0027,60.0057303674,Experimento Piloto1,001,114,
0.25,Stim\\03_078.jpg,Tr78_14,Tristeza,14,Elizabeth elige la ropa un día antes.,Afirmación,Tr78,78,,,,,0,69,69,69,,,,,,,,,4,3.26597879074,,,,,2018_may._09_0027,60.0057303674,Experimento Piloto1,001,114,
2.5,Stim\\03_019.jpg,Tr19_5,Tristeza,5,Emilio revisa el formato del archivo.,Afirmación,Tr19,19,,,,,0,70,70,70,,,,,,,,,3,1.31680907918,,,,,2018_may._09_0027,60.0057303674,Experimento Piloto1,001,114,
2.5,Stim\\05_028.jpg,En28_13,Enojo,13,Rocío consume alimentos nutritivos.,Afirmación,En28,28,,,,,0,71,71,71,,,,,,,,,2,2.13345661669,,,,,2018_may._09_0027,60.0057303674,Experimento Piloto1,001,114,
0.25,Stim\\05_075.jpg,En75_15,Enojo,15,Ángel envía una carta a la abuela.,Afirmación,En75,75,,,,,0,72,72,72,,,,,,,,,2,0.600412422107,,,,,2018_may._09_0027,60.0057303674,Experimento Piloto1,001,114,
2.5,Stim\\05_019.jpg,En19_6,Enojo,6,Eduardo camina hacia la biblioteca.,Afirmación,En19,19,,,,,0,73,73,73,,,,,,,,,2,0.750296308461,,,,,2018_may._09_0027,60.0057303674,Experimento Piloto1,001,114,
2.5,Stim\\05_078.jpg,En78_10,Enojo,10,Laura finaliza la obra.,Afirmación,En78,78,,,,,0,74,74,74,,,,,,,,,2,0.900325671558,,,,,2018_may._09_0027,60.0057303674,Experimento Piloto1,001,114,
2.5,Stim\\05_019.jpg,En19_9,Enojo,9,Marco colabora en la organización del evento.,Afirmación,En19,19,,,,,0,75,75,75,,,,,,,,,2,1.36677900208,,,,,2018_may._09_0027,60.0057303674,Experimento Piloto1,001,114,
2.5,Stim\\02_078.jpg,Al78_6,Alegría,6,Eduardo camina hacia la biblioteca.,Afirmación,Al78,78,,,,,0,76,76,76,,,,,,,,,3,0.85020982566,,,,,2018_may._09_0027,60.0057303674,Experimento Piloto1,001,114,
2.5,Stim\\05_078.jpg,En78_13,Enojo,13,Rocío consume alimentos nutritivos.,Afirmación,En78,78,,,,,0,77,77,77,,,,,,,,,2,0.700244275981,,,,,2018_may._09_0027,60.0057303674,Experimento Piloto1,001,114,
0.25,Stim\\05_028.jpg,En28_2,Enojo,2,Jonathan pasea al perro.,Afirmación,En28,28,,,,,0,78,78,78,,,,,,,,,2,1.05040189066,,,,,2018_may._09_0027,60.0057303674,Experimento Piloto1,001,114,
0.25,Stim\\05_019.jpg,En19_6,Enojo,6,Eduardo camina hacia la biblioteca.,Afirmación,En19,19,,,,,0,79,79,79,,,,,,,,,2,1.58340279922,,,,,2018_may._09_0027,60.0057303674,Experimento Piloto1,001,114,
2.5,Stim\\03_019.jpg,Tr19_11,Tristeza,11,María asiste a la cena.,Afirmación,Tr19,19,,,,,0,80,80,80,,,,,,,,,3,0.750376633043,,,,,2018_may._09_0027,60.0057303674,Experimento Piloto1,001,114,
2.5,Stim\\05_028.jpg,En28_11,Enojo,11,María asiste a la cena.,Afirmación,En28,28,,,,,0,81,81,81,,,,,,,,,2,0.700221071102,,,,,2018_may._09_0027,60.0057303674,Experimento Piloto1,001,114,
0.25,Stim\\02_078.jpg,Al78_9,Alegría,9,Marco colabora en la organización del evento.,Afirmación,Al78,78,,,,,0,82,82,82,,,,,,,,,3,1.7338025479,,,,,2018_may._09_0027,60.0057303674,Experimento Piloto1,001,114,
0.25,Stim\\05_019.jpg,En19_13,Enojo,13,Rocío consume alimentos nutritivos.,Afirmación,En19,19,,,,,0,83,83,83,,,,,,,,,2,0.817003196918,,,,,2018_may._09_0027,60.0057303674,Experimento Piloto1,001,114,
0.25,Stim\\03_078.jpg,Tr78_11,Tristeza,11,María asiste a la cena.,Afirmación,Tr78,78,,,,,0,84,84,84,,,,,,,,,4,2.54981284372,,,,,2018_may._09_0027,60.0057303674,Experimento Piloto1,001,114,
2.5,Stim\\05_028.jpg,En28_5,Enojo,5,Emilio revisa el formato del archivo.,Afirmación,En28,28,,,,,0,85,85,85,,,,,,,,,2,1.1002606979,,,,,2018_may._09_0027,60.0057303674,Experimento Piloto1,001,114,
0.25,Stim\\03_028.jpg,Tr28_10,Tristeza,10,Laura finaliza la obra.,Afirmación,Tr28,28,,,,,0,86,86,86,,,,,,,,,4,0.916771237373,,,,,2018_may._09_0027,60.0057303674,Experimento Piloto1,001,114,
0.25,Stim\\05_019.jpg,En19_11,Enojo,11,María asiste a la cena.,Afirmación,En19,19,,,,,0,87,87,87,,,,,,,,,2,1.3829541418,,,,,2018_may._09_0027,60.0057303674,Experimento Piloto1,001,114,
2.5,Stim\\03_028.jpg,Tr28_9,Tristeza,9,Marco colabora en la organización del evento.,Afirmación,Tr28,28,,,,,0,88,88,88,,,,,,,,,4,0.966764365159,,,,,2018_may._09_0027,60.0057303674,Experimento Piloto1,001,114,
2.5,Stim\\05_019.jpg,En19_8,Enojo,8,Estefanía despierta a las 7 a.m.,Afirmación,En19,19,,,,,0,89,89,89,,,,,,,,,2,0.750020527393,,,,,2018_may._09_0027,60.0057303674,Experimento Piloto1,001,114,
0.25,Stim\\03_075.jpg,Tr75_9,Tristeza,9,Marco colabora en la organización del evento.,Afirmación,Tr75,75,,,,,0,90,90,90,,,,,,,,,4,1.00041010162,,,,,2018_may._09_0027,60.0057303674,Experimento Piloto1,001,114,
2.5,Stim\\02_075.jpg,Al75_3,Alegría,3,Andrea diseña la portada del libro.,Afirmación,Al75,75,,,,,0,91,91,91,,,,,,,,,3,1.15012262886,,,,,2018_may._09_0027,60.0057303674,Experimento Piloto1,001,114,
0.25,Stim\\05_028.jpg,En28_12,Enojo,12,Ana compra el libro.,Afirmación,En28,28,,,,,0,92,92,92,,,,,,,,,2,1.31664218254,,,,,2018_may._09_0027,60.0057303674,Experimento Piloto1,001,114,
0.25,Stim\\03_028.jpg,Tr28_7,Tristeza,7,Roberto contesta los cuestionarios solicitados.,Afirmación,Tr28,28,,,,,0,93,93,93,,,,,,,,,4,0.700449996162,,,,,2018_may._09_0027,60.0057303674,Experimento Piloto1,001,114,
0.25,Stim\\03_019.jpg,Tr19_8,Tristeza,8,Estefanía despierta a las 7 a.m.,Afirmación,Tr19,19,,,,,0,94,94,94,,,,,,,,,2,2.54960712354,,,,,2018_may._09_0027,60.0057303674,Experimento Piloto1,001,114,
0.25,Stim\\02_019.jpg,Al19_4,Alegría,4,Jorge sustituye a Gustavo cada sábado.,Afirmación,Al19,19,,,,,0,95,95,95,,,,,,,,,3,2.69962086797,,,,,2018_may._09_0027,60.0057303674,Experimento Piloto1,001,114,
2.5,Stim\\05_019.jpg,En19_15,Enojo,15,Ángel envía una carta a la abuela.,Afirmación,En19,19,,,,,0,96,96,96,,,,,,,,,2,0.850347716193,,,,,2018_may._09_0027,60.0057303674,Experimento Piloto1,001,114,
0.25,Stim\\05_075.jpg,En75_13,Enojo,13,Rocío consume alimentos nutritivos.,Afirmación,En75,75,,,,,0,97,97,97,,,,,,,,,2,2.33295119657,,,,,2018_may._09_0027,60.0057303674,Experimento Piloto1,001,114,
0.25,Stim\\02_078.jpg,Al78_7,Alegría,7,Roberto contesta los cuestionarios solicitados.,Afirmación,Al78,78,,,,,0,98,98,98,,,,,,,,,3,0.600151367214,,,,,2018_may._09_0027,60.0057303674,Experimento Piloto1,001,114,
2.5,Stim\\03_028.jpg,Tr28_3,Tristeza,3,Andrea diseña la portada del libro.,Afirmación,Tr28,28,,,,,0,99,99,99,,,,,,,,,4,1.53331506693,,,,,2018_may._09_0027,60.0057303674,Experimento Piloto1,001,114,
2.5,Stim\\05_075.jpg,En75_15,Enojo,15,Ángel envía una carta a la abuela.,Afirmación,En75,75,,,,,0,100,100,100,,,,,,,,,2,1.21694688046,,,,,2018_may._09_0027,60.0057303674,Experimento Piloto1,001,114,
0.25,Stim\\02_028.jpg,Al28_13,Alegría,13,Rocío consume alimentos nutritivos.,Afirmación,Al28,28,,,,,0,101,101,101,,,,,,,,,3,0.550420633065,,,,,2018_may._09_0027,60.0057303674,Experimento Piloto1,001,114,
0.25,Stim\\03_028.jpg,Tr28_15,Tristeza,15,Ángel envía una carta a la abuela.,Afirmación,Tr28,28,,,,,0,102,102,102,,,,,,,,,4,2.13332675862,,,,,2018_may._09_0027,60.0057303674,Experimento Piloto1,001,114,
0.25,Stim\\05_019.jpg,En19_2,Enojo,2,Jonathan pasea al perro.,Afirmación,En19,19,,,,,0,103,103,103,,,,,,,,,2,3.16650081128,,,,,2018_may._09_0027,60.0057303674,Experimento Piloto1,001,114,
0.25,Stim\\03_078.jpg,Tr78_13,Tristeza,13,Rocío consume alimentos nutritivos.,Afirmación,Tr78,78,,,,,0,104,104,104,,,,,,,,,3,1.68298207691,,,,,2018_may._09_0027,60.0057303674,Experimento Piloto1,001,114,
2.5,Stim\\03_075.jpg,Tr75_2,Tristeza,2,Jonathan pasea al perro.,Afirmación,Tr75,75,,,,,0,105,105,105,,,,,,,,,4,1.05015065322,,,,,2018_may._09_0027,60.0057303674,Experimento Piloto1,001,114,
2.5,Stim\\05_075.jpg,En75_10,Enojo,10,Laura finaliza la obra.,Afirmación,En75,75,,,,,0,106,106,106,,,,,,,,,2,4.43285623506,,,,,2018_may._09_0027,60.0057303674,Experimento Piloto1,001,114,
2.5,Stim\\05_028.jpg,En28_3,Enojo,3,Andrea diseña la portada del libro.,Afirmación,En28,28,,,,,0,107,107,107,,,,,,,,,2,0.600341468726,,,,,2018_may._09_0027,60.0057303674,Experimento Piloto1,001,114,
2.5,Stim\\02_078.jpg,Al78_8,Alegría,8,Estefanía despierta a las 7 a.m.,Afirmación,Al78,78,,,,,0,108,108,108,,,,,,,,,3,0.450217054872,,,,,2018_may._09_0027,60.0057303674,Experimento Piloto1,001,114,
2.5,Stim\\05_075.jpg,En75_2,Enojo,2,Jonathan pasea al perro.,Afirmación,En75,75,,,,,0,109,109,109,,,,,,,,,2,0.500400284171,,,,,2018_may._09_0027,60.0057303674,Experimento Piloto1,001,114,
0.25,Stim\\05_078.jpg,En78_2,Enojo,2,Jonathan pasea al perro.,Afirmación,En78,78,,,,,0,110,110,110,,,,,,,,,2,0.649820519182,,,,,2018_may._09_0027,60.0057303674,Experimento Piloto1,001,114,
2.5,Stim\\05_078.jpg,En78_14,Enojo,14,Elizabeth elige la ropa un día antes.,Afirmación,En78,78,,,,,0,111,111,111,,,,,,,,,2,1.16667083165,,,,,2018_may._09_0027,60.0057303674,Experimento Piloto1,001,114,
2.5,Stim\\05_028.jpg,En28_1,Enojo,1,Juan colecciona monedas antiguas.,Afirmación,En28,28,,,,,0,112,112,112,,,,,,,,,2,1.4667862313,,,,,2018_may._09_0027,60.0057303674,Experimento Piloto1,001,114,
0.25,Stim\\05_019.jpg,En19_12,Enojo,12,Ana compra el libro.,Afirmación,En19,19,,,,,0,113,113,113,,,,,,,,,3,1.46673402032,,,,,2018_may._09_0027,60.0057303674,Experimento Piloto1,001,114,
0.25,Stim\\02_075.jpg,Al75_13,Alegría,13,Rocío consume alimentos nutritivos.,Afirmación,Al75,75,,,,,0,114,114,114,,,,,,,,,3,0.700192957498,,,,,2018_may._09_0027,60.0057303674,Experimento Piloto1,001,114,
2.5,Stim\\03_019.jpg,Tr19_6,Tristeza,6,Eduardo camina hacia la biblioteca.,Afirmación,Tr19,19,,,,,0,115,115,115,,,,,,,,,3,1.11698115228,,,,,2018_may._09_0027,60.0057303674,Experimento Piloto1,001,114,
2.5,Stim\\05_028.jpg,En28_14,Enojo,14,Elizabeth elige la ropa un día antes.,Afirmación,En28,28,,,,,0,116,116,116,,,,,,,,,2,1.98307784166,,,,,2018_may._09_0027,60.0057303674,Experimento Piloto1,001,114,
2.5,Stim\\02_028.jpg,Al28_5,Alegría,5,Emilio revisa el formato del archivo.,Afirmación,Al28,28,,,,,0,117,117,117,,,,,,,,,3,0.96687592708,,,,,2018_may._09_0027,60.0057303674,Experimento Piloto1,001,114,
2.5,Stim\\02_078.jpg,Al78_9,Alegría,9,Marco colabora en la organización del evento.,Afirmación,Al78,78,,,,,0,118,118,118,,,,,,,,,3,1.83329703852,,,,,2018_may._09_0027,60.0057303674,Experimento Piloto1,001,114,
0.25,Stim\\03_019.jpg,Tr19_3,Tristeza,3,Andrea diseña la portada del libro.,Afirmación,Tr19,19,,,,,0,119,119,119,,,,,,,,,3,2.89977232443,,,,,2018_may._09_0027,60.0057303674,Experimento Piloto1,001,114,
0.25,Stim\\02_075.jpg,Al75_11,Alegría,11,María asiste a la cena.,Afirmación,Al75,75,,,,,,,,,0,0,0,0,,,,,,,3,0.916783732308,,,2018_may._09_0027,60.0057303674,Experimento Piloto1,001,114,
2.5,Stim\\03_019.jpg,Tr19_9,Tristeza,9,Marco colabora en la organización del evento.,Afirmación,Tr19,19,,,,,,,,,0,1,1,1,,,,,,,3,0.800106474697,,,2018_may._09_0027,60.0057303674,Experimento Piloto1,001,114,
2.5,Stim\\02_075.jpg,Al75_8,Alegría,8,Estefanía despierta a las 7 a.m.,Afirmación,Al75,75,,,,,,,,,0,2,2,2,,,,,,,3,0.700241152247,,,2018_may._09_0027,60.0057303674,Experimento Piloto1,001,114,
2.5,Stim\\03_075.jpg,Tr75_13,Tristeza,13,Rocío consume alimentos nutritivos.,Afirmación,Tr75,75,,,,,,,,,0,3,3,3,,,,,,,4,1.11603778468,,,2018_may._09_0027,60.0057303674,Experimento Piloto1,001,114,
0.25,Stim\\03_019.jpg,Tr19_15,Tristeza,15,Ángel envía una carta a la abuela.,Afirmación,Tr19,19,,,,,,,,,0,4,4,4,,,,,,,3,2.18340244222,,,2018_may._09_0027,60.0057303674,Experimento Piloto1,001,114,
2.5,Stim\\05_075.jpg,En75_11,Enojo,11,María asiste a la cena.,Afirmación,En75,75,,,,,,,,,0,5,5,5,,,,,,,2,1.68370856813,,,2018_may._09_0027,60.0057303674,Experimento Piloto1,001,114,
0.25,Stim\\05_028.jpg,En28_4,Enojo,4,Jorge sustituye a Gustavo cada sábado.,Afirmación,En28,28,,,,,,,,,0,6,6,6,,,,,,,2,1.53280545208,,,2018_may._09_0027,60.0057303674,Experimento Piloto1,001,114,
2.5,Stim\\05_028.jpg,En28_9,Enojo,9,Marco colabora en la organización del evento.,Afirmación,En28,28,,,,,,,,,0,7,7,7,,,,,,,2,1.31657479914,,,2018_may._09_0027,60.0057303674,Experimento Piloto1,001,114,
2.5,Stim\\03_075.jpg,Tr75_9,Tristeza,9,Marco colabora en la organización del evento.,Afirmación,Tr75,75,,,,,,,,,0,8,8,8,,,,,,,4,1.31669617851,,,2018_may._09_0027,60.0057303674,Experimento Piloto1,001,114,
2.5,Stim\\05_028.jpg,En28_15,Enojo,15,Ángel envía una carta a la abuela.,Afirmación,En28,28,,,,,,,,,0,9,9,9,,,,,,,2,1.98332907911,,,2018_may._09_0027,60.0057303674,Experimento Piloto1,001,114,
0.25,Stim\\03_078.jpg,Tr78_8,Tristeza,8,Estefanía despierta a las 7 a.m.,Afirmación,Tr78,78,,,,,,,,,0,10,10,10,,,,,,,3,3.36731271431,,,2018_may._09_0027,60.0057303674,Experimento Piloto1,001,114,
0.25,Stim\\02_075.jpg,Al75_1,Alegría,1,Juan colecciona monedas antiguas.,Afirmación,Al75,75,,,,,,,,,0,11,11,11,,,,,,,3,2.08296547649,,,2018_may._09_0027,60.0057303674,Experimento Piloto1,001,114,
0.25,Stim\\05_078.jpg,En78_11,Enojo,11,María asiste a la cena.,Afirmación,En78,78,,,,,,,,,0,12,12,12,,,,,,,2,1.16616166304,,,2018_may._09_0027,60.0057303674,Experimento Piloto1,001,114,
2.5,Stim\\03_028.jpg,Tr28_15,Tristeza,15,Ángel envía una carta a la abuela.,Afirmación,Tr28,28,,,,,,,,,0,13,13,13,,,,,,,4,2.03304017836,,,2018_may._09_0027,60.0057303674,Experimento Piloto1,001,114,
2.5,Stim\\02_019.jpg,Al19_3,Alegría,3,Andrea diseña la portada del libro.,Afirmación,Al19,19,,,,,,,,,0,14,14,14,,,,,,,4,1.2169977527,,,2018_may._09_0027,60.0057303674,Experimento Piloto1,001,114,
2.5,Stim\\05_019.jpg,En19_5,Enojo,5,Emilio revisa el formato del archivo.,Afirmación,En19,19,,,,,,,,,0,15,15,15,,,,,,,2,0.600344146212,,,2018_may._09_0027,60.0057303674,Experimento Piloto1,001,114,
0.25,Stim\\02_028.jpg,Al28_11,Alegría,11,María asiste a la cena.,Afirmación,Al28,28,,,,,,,,,0,16,16,16,,,,,,,2,0.700339772985,,,2018_may._09_0027,60.0057303674,Experimento Piloto1,001,114,
0.25,Stim\\03_019.jpg,Tr19_11,Tristeza,11,María asiste a la cena.,Afirmación,Tr19,19,,,,,,,,,0,17,17,17,,,,,,,3,3.16581046611,,,2018_may._09_0027,60.0057303674,Experimento Piloto1,001,114,
2.5,Stim\\03_078.jpg,Tr78_14,Tristeza,14,Elizabeth elige la ropa un día antes.,Afirmación,Tr78,78,,,,,,,,,0,18,18,18,,,,,,,4,3.36607080701,,,2018_may._09_0027,60.0057303674,Experimento Piloto1,001,114,
0.25,Stim\\02_019.jpg,Al19_9,Alegría,9,Marco colabora en la organización del evento.,Afirmación,Al19,19,,,,,,,,,0,19,19,19,,,,,,,3,0.499877728135,,,2018_may._09_0027,60.0057303674,Experimento Piloto1,001,114,
2.5,Stim\\02_075.jpg,Al75_11,Alegría,11,María asiste a la cena.,Afirmación,Al75,75,,,,,,,,,0,20,20,20,,,,,,,3,0.750343164467,,,2018_may._09_0027,60.0057303674,Experimento Piloto1,001,114,
0.25,Stim\\02_028.jpg,Al28_4,Alegría,4,Jorge sustituye a Gustavo cada sábado.,Afirmación,Al28,28,,,,,,,,,0,21,21,21,,,,,,,3,0.450224641083,,,2018_may._09_0027,60.0057303674,Experimento Piloto1,001,114,
2.5,Stim\\02_075.jpg,Al75_10,Alegría,10,Laura finaliza la obra.,Afirmación,Al75,75,,,,,,,,,0,22,22,22,,,,,,,3,0.333774523541,,,2018_may._09_0027,60.0057303674,Experimento Piloto1,001,114,
0.25,Stim\\05_075.jpg,En75_4,Enojo,4,Jorge sustituye a Gustavo cada sábado.,Afirmación,En75,75,,,,,,,,,0,23,23,23,,,,,,,2,0.600734612934,,,2018_may._09_0027,60.0057303674,Experimento Piloto1,001,114,
2.5,Stim\\02_028.jpg,Al28_11,Alegría,11,María asiste a la cena.,Afirmación,Al28,28,,,,,,,,,0,24,24,24,,,,,,,3,0.650255610672,,,2018_may._09_0027,60.0057303674,Experimento Piloto1,001,114,
0.25,Stim\\02_078.jpg,Al78_1,Alegría,1,Juan colecciona monedas antiguas.,Afirmación,Al78,78,,,,,,,,,0,25,25,25,,,,,,,3,0.433659927136,,,2018_may._09_0027,60.0057303674,Experimento Piloto1,001,114,
2.5,Stim\\02_019.jpg,Al19_7,Alegría,7,Roberto contesta los cuestionarios solicitados.,Afirmación,Al19,19,,,,,,,,,0,26,26,26,,,,,,,3,0.500108884434,,,2018_may._09_0027,60.0057303674,Experimento Piloto1,001,114,
0.25,Stim\\05_028.jpg,En28_15,Enojo,15,Ángel envía una carta a la abuela.,Afirmación,En28,28,,,,,,,,,0,27,27,27,,,,,,,2,3.16607999971,,,2018_may._09_0027,60.0057303674,Experimento Piloto1,001,114,
0.25,Stim\\03_075.jpg,Tr75_2,Tristeza,2,Jonathan pasea al perro.,Afirmación,Tr75,75,,,,,,,,,0,28,28,28,,,,,,,3,2.08301456374,,,2018_may._09_0027,60.0057303674,Experimento Piloto1,001,114,
0.25,Stim\\05_075.jpg,En75_3,Enojo,3,Andrea diseña la portada del libro.,Afirmación,En75,75,,,,,,,,,0,29,29,29,,,,,,,2,0.600291935233,,,2018_may._09_0027,60.0057303674,Experimento Piloto1,001,114,
2.5,Stim\\05_028.jpg,En28_10,Enojo,10,Laura finaliza la obra.,Afirmación,En28,28,,,,,,,,,0,30,30,30,,,,,,,2,1.10025355793,,,2018_may._09_0027,60.0057303674,Experimento Piloto1,001,114,
0.25,Stim\\05_019.jpg,En19_4,Enojo,4,Jorge sustituye a Gustavo cada sábado.,Afirmación,En19,19,,,,,,,,,0,31,31,31,,,,,,,2,1.4174883574,,,2018_may._09_0027,60.0057303674,Experimento Piloto1,001,114,
2.5,Stim\\02_078.jpg,Al78_1,Alegría,1,Juan colecciona monedas antiguas.,Afirmación,Al78,78,,,,,,,,,0,32,32,32,,,,,,,3,3.88261231608,,,2018_may._09_0027,60.0057303674,Experimento Piloto1,001,114,
0.25,Stim\\05_075.jpg,En75_6,Enojo,6,Eduardo camina hacia la biblioteca.,Afirmación,En75,75,,,,,,,,,0,33,33,33,,,,,,,2,0.650280154295,,,2018_may._09_0027,60.0057303674,Experimento Piloto1,001,114,
2.5,Stim\\02_019.jpg,Al19_12,Alegría,12,Ana compra el libro.,Afirmación,Al19,19,,,,,,,,,0,34,34,34,,,,,,,3,5.4155529812,,,2018_may._09_0027,60.0057303674,Experimento Piloto1,001,114,
0.25,Stim\\05_075.jpg,En75_8,Enojo,8,Estefanía despierta a las 7 a.m.,Afirmación,En75,75,,,,,,,,,0,35,35,35,,,,,,,2,0.650251594443,,,2018_may._09_0027,60.0057303674,Experimento Piloto1,001,114,
2.5,Stim\\03_028.jpg,Tr28_4,Tristeza,4,Jorge sustituye a Gustavo cada sábado.,Afirmación,Tr28,28,,,,,,,,,0,36,36,36,,,,,,,4,0.650237760765,,,2018_may._09_0027,60.0057303674,Experimento Piloto1,001,114,
0.25,Stim\\03_078.jpg,Tr78_12,Tristeza,12,Ana compra el libro.,Afirmación,Tr78,78,,,,,,,,,0,37,37,37,,,,,,,4,1.73315281127,,,2018_may._09_0027,60.0057303674,Experimento Piloto1,001,114,
2.5,Stim\\03_019.jpg,Tr19_3,Tristeza,3,Andrea diseña la portada del libro.,Afirmación,Tr19,19,,,,,,,,,0,38,38,38,,,,,,,4,6.69845660777,,,2018_may._09_0027,60.0057303674,Experimento Piloto1,001,114,
2.5,Stim\\05_075.jpg,En75_4,Enojo,4,Jorge sustituye a Gustavo cada sábado.,Afirmación,En75,75,,,,,,,,,0,39,39,39,,,,,,,2,3.78259973189,,,2018_may._09_0027,60.0057303674,Experimento Piloto1,001,114,
0.25,Stim\\05_078.jpg,En78_6,Enojo,6,Eduardo camina hacia la biblioteca.,Afirmación,En78,78,,,,,,,,,0,40,40,40,,,,,,,2,1.83308239339,,,2018_may._09_0027,60.0057303674,Experimento Piloto1,001,114,
0.25,Stim\\03_078.jpg,Tr78_3,Tristeza,3,Andrea diseña la portada del libro.,Afirmación,Tr78,78,,,,,,,,,0,41,41,41,,,,,,,4,1.00018697778,,,2018_may._09_0027,60.0057303674,Experimento Piloto1,001,114,
0.25,Stim\\05_078.jpg,En78_15,Enojo,15,Ángel envía una carta a la abuela.,Afirmación,En78,78,,,,,,,,,0,42,42,42,,,,,,,2,1.31711609758,,,2018_may._09_0027,60.0057303674,Experimento Piloto1,001,114,
2.5,Stim\\05_078.jpg,En78_2,Enojo,2,Jonathan pasea al perro.,Afirmación,En78,78,,,,,,,,,0,43,43,43,,,,,,,2,1.83316941168,,,2018_may._09_0027,60.0057303674,Experimento Piloto1,001,114,
2.5,Stim\\02_078.jpg,Al78_4,Alegría,4,Jorge sustituye a Gustavo cada sábado.,Afirmación,Al78,78,,,,,,,,,0,44,44,44,,,,,,,3,1.78290094908,,,2018_may._09_0027,60.0057303674,Experimento Piloto1,001,114,
2.5,Stim\\05_078.jpg,En78_4,Enojo,4,Jorge sustituye a Gustavo cada sábado.,Afirmación,En78,78,,,,,,,,,0,45,45,45,,,,,,,2,3.6826469449,,,2018_may._09_0027,60.0057303674,Experimento Piloto1,001,114,
0.25,Stim\\05_019.jpg,En19_9,Enojo,9,Marco colabora en la organización del evento.,Afirmación,En19,19,,,,,,,,,0,46,46,46,,,,,,,2,1.01679587025,,,2018_may._09_0027,60.0057303674,Experimento Piloto1,001,114,
0.25,Stim\\05_019.jpg,En19_15,Enojo,15,Ángel envía una carta a la abuela.,Afirmación,En19,19,,,,,,,,,0,47,47,47,,,,,,,2,0.700241598495,,,2018_may._09_0027,60.0057303674,Experimento Piloto1,001,114,
2.5,Stim\\02_028.jpg,Al28_2,Alegría,2,Jonathan pasea al perro.,Afirmación,Al28,28,,,,,,,,,0,48,48,48,,,,,,,3,1.31662254765,,,2018_may._09_0027,60.0057303674,Experimento Piloto1,001,114,
0.25,Stim\\03_075.jpg,Tr75_1,Tristeza,1,Juan colecciona monedas antiguas.,Afirmación,Tr75,75,,,,,,,,,0,49,49,49,,,,,,,4,2.84958820264,,,2018_may._09_0027,60.0057303674,Experimento Piloto1,001,114,
2.5,Stim\\02_028.jpg,Al28_12,Alegría,12,Ana compra el libro.,Afirmación,Al28,28,,,,,,,,,0,50,50,50,,,,,,,3,0.60024641797,,,2018_may._09_0027,60.0057303674,Experimento Piloto1,001,114,
0.25,Stim\\05_019.jpg,En19_5,Enojo,5,Emilio revisa el formato del archivo.,Afirmación,En19,19,,,,,,,,,0,51,51,51,,,,,,,3,8.3979021004,,,2018_may._09_0027,60.0057303674,Experimento Piloto1,001,114,
0.25,Stim\\02_075.jpg,Al75_9,Alegría,9,Marco colabora en la organización del evento.,Afirmación,Al75,75,,,,,,,,,0,52,52,52,,,,,,,3,2.6996146205,,,2018_may._09_0027,60.0057303674,Experimento Piloto1,001,114,
2.5,Stim\\03_019.jpg,Tr19_12,Tristeza,12,Ana compra el libro.,Afirmación,Tr19,19,,,,,,,,,0,53,53,53,,,,,,,2,1.00019545648,,,2018_may._09_0027,60.0057303674,Experimento Piloto1,001,114,
2.5,Stim\\02_019.jpg,Al19_4,Alegría,4,Jorge sustituye a Gustavo cada sábado.,Afirmación,Al19,19,,,,,,,,,0,54,54,54,,,,,,,3,0.80024838146,,,2018_may._09_0027,60.0057303674,Experimento Piloto1,001,114,
0.25,Stim\\02_019.jpg,Al19_12,Alegría,12,Ana compra el libro.,Afirmación,Al19,19,,,,,,,,,0,55,55,55,,,,,,,3,0.716571586161,,,2018_may._09_0027,60.0057303674,Experimento Piloto1,001,114,
2.5,Stim\\02_078.jpg,Al78_7,Alegría,7,Roberto contesta los cuestionarios solicitados.,Afirmación,Al78,78,,,,,,,,,0,56,56,56,,,,,,,3,1.20011888038,,,2018_may._09_0027,60.0057303674,Experimento Piloto1,001,114,
2.5,Stim\\03_078.jpg,Tr78_13,Tristeza,13,Rocío consume alimentos nutritivos.,Afirmación,Tr78,78,,,,,,,,,0,57,57,57,,,,,,,4,1.16655837723,,,2018_may._09_0027,60.0057303674,Experimento Piloto1,001,114,
2.5,Stim\\02_075.jpg,Al75_9,Alegría,9,Marco colabora en la organización del evento.,Afirmación,Al75,75,,,,,,,,,0,58,58,58,,,,,,,3,0.650262304388,,,2018_may._09_0027,60.0057303674,Experimento Piloto1,001,114,
0.25,Stim\\02_028.jpg,Al28_5,Alegría,5,Emilio revisa el formato del archivo.,Afirmación,Al28,28,,,,,,,,,0,59,59,59,,,,,,,3,0.650293541725,,,2018_may._09_0027,60.0057303674,Experimento Piloto1,001,114,
2.5,Stim\\03_028.jpg,Tr28_7,Tristeza,7,Roberto contesta los cuestionarios solicitados.,Afirmación,Tr28,28,,,,,,,,,0,60,60,60,,,,,,,4,0.716617549672,,,2018_may._09_0027,60.0057303674,Experimento Piloto1,001,114,
0.25,Stim\\05_078.jpg,En78_7,Enojo,7,Roberto contesta los cuestionarios solicitados.,Afirmación,En78,78,,,,,,,,,0,61,61,61,,,,,,,2,0.500287383507,,,2018_may._09_0027,60.0057303674,Experimento Piloto1,001,114,
2.5,Stim\\03_028.jpg,Tr28_5,Tristeza,5,Emilio revisa el formato del archivo.,Afirmación,Tr28,28,,,,,,,,,0,62,62,62,,,,,,,4,1.31688404879,,,2018_may._09_0027,60.0057303674,Experimento Piloto1,001,114,
0.25,Stim\\02_019.jpg,Al19_13,Alegría,13,Rocío consume alimentos nutritivos.,Afirmación,Al19,19,,,,,,,,,0,63,63,63,,,,,,,3,0.450300056941,,,2018_may._09_0027,60.0057303674,Experimento Piloto1,001,114,
2.5,Stim\\05_019.jpg,En19_13,Enojo,13,Rocío consume alimentos nutritivos.,Afirmación,En19,19,,,,,,,,,0,64,64,64,,,,,,,2,0.80025418268,,,2018_may._09_0027,60.0057303674,Experimento Piloto1,001,114,
2.5,Stim\\03_078.jpg,Tr78_4,Tristeza,4,Jorge sustituye a Gustavo cada sábado.,Afirmación,Tr78,78,,,,,,,,,0,65,65,65,,,,,,,4,1.26691948085,,,2018_may._09_0027,60.0057303674,Experimento Piloto1,001,114,
0.25,Stim\\05_028.jpg,En28_13,Enojo,13,Rocío consume alimentos nutritivos.,Afirmación,En28,28,,,,,,,,,0,66,66,66,,,,,,,2,1.26679230026,,,2018_may._09_0027,60.0057303674,Experimento Piloto1,001,114,
0.25,Stim\\02_075.jpg,Al75_4,Alegría,4,Jorge sustituye a Gustavo cada sábado.,Afirmación,Al75,75,,,,,,,,,0,67,67,67,,,,,,,3,0.4003176391,,,2018_may._09_0027,60.0057303674,Experimento Piloto1,001,114,
0.25,Stim\\03_019.jpg,Tr19_14,Tristeza,14,Elizabeth elige la ropa un día antes.,Afirmación,Tr19,19,,,,,,,,,0,68,68,68,,,,,,,2,3.51604126542,,,2018_may._09_0027,60.0057303674,Experimento Piloto1,001,114,
2.5,Stim\\02_075.jpg,Al75_4,Alegría,4,Jorge sustituye a Gustavo cada sábado.,Afirmación,Al75,75,,,,,,,,,0,69,69,69,,,,,,,3,0.550292113733,,,2018_may._09_0027,60.0057303674,Experimento Piloto1,001,114,
2.5,Stim\\05_078.jpg,En78_7,Enojo,7,Roberto contesta los cuestionarios solicitados.,Afirmación,En78,78,,,,,,,,,0,70,70,70,,,,,,,2,3.06613970765,,,2018_may._09_0027,60.0057303674,Experimento Piloto1,001,114,
2.5,Stim\\05_028.jpg,En28_6,Enojo,6,Eduardo camina hacia la biblioteca.,Afirmación,En28,28,,,,,,,,,0,71,71,71,,,,,,,2,4.08253930996,,,2018_may._09_0027,60.0057303674,Experimento Piloto1,001,114,
2.5,Stim\\05_028.jpg,En28_7,Enojo,7,Roberto contesta los cuestionarios solicitados.,Afirmación,En28,28,,,,,,,,,0,72,72,72,,,,,,,2,0.500053549722,,,2018_may._09_0027,60.0057303674,Experimento Piloto1,001,114,
2.5,Stim\\03_028.jpg,Tr28_14,Tristeza,14,Elizabeth elige la ropa un día antes.,Afirmación,Tr28,28,,,,,,,,,0,73,73,73,,,,,,,4,1.21665503448,,,2018_may._09_0027,60.0057303674,Experimento Piloto1,001,114,
2.5,Stim\\02_019.jpg,Al19_11,Alegría,11,María asiste a la cena.,Afirmación,Al19,19,,,,,,,,,0,74,74,74,,,,,,,3,0.750193671494,,,2018_may._09_0027,60.0057303674,Experimento Piloto1,001,114,
0.25,Stim\\05_028.jpg,En28_7,Enojo,7,Roberto contesta los cuestionarios solicitados.,Afirmación,En28,28,,,,,,,,,0,75,75,75,,,,,,,2,0.650476503275,,,2018_may._09_0027,60.0057303674,Experimento Piloto1,001,114,
0.25,Stim\\05_078.jpg,En78_13,Enojo,13,Rocío consume alimentos nutritivos.,Afirmación,En78,78,,,,,,,,,0,76,76,76,,,,,,,2,0.75036369186,,,2018_may._09_0027,60.0057303674,Experimento Piloto1,001,114,
0.25,Stim\\03_028.jpg,Tr28_14,Tristeza,14,Elizabeth elige la ropa un día antes.,Afirmación,Tr28,28,,,,,,,,,0,77,77,77,,,,,,,4,0.900209647161,,,2018_may._09_0027,60.0057303674,Experimento Piloto1,001,114,
2.5,Stim\\03_075.jpg,Tr75_14,Tristeza,14,Elizabeth elige la ropa un día antes.,Afirmación,Tr75,75,,,,,,,,,0,78,78,78,,,,,,,4,1.6667078702,,,2018_may._09_0027,60.0057303674,Experimento Piloto1,001,114,
0.25,Stim\\05_019.jpg,En19_10,Enojo,10,Laura finaliza la obra.,Afirmación,En19,19,,,,,,,,,0,79,79,79,,,,,,,3,0.700240705999,,,2018_may._09_0027,60.0057303674,Experimento Piloto1,001,114,
0.25,Stim\\05_078.jpg,En78_9,Enojo,9,Marco colabora en la organización del evento.,Afirmación,En78,78,,,,,,,,,0,80,80,80,,,,,,,2,2.59962211746,,,2018_may._09_0027,60.0057303674,Experimento Piloto1,001,114,
0.25,Stim\\02_028.jpg,Al28_6,Alegría,6,Eduardo camina hacia la biblioteca.,Afirmación,Al28,28,,,,,,,,,0,81,81,81,,,,,,,2,1.11674597975,,,2018_may._09_0027,60.0057303674,Experimento Piloto1,001,114,
0.25,Stim\\05_078.jpg,En78_12,Enojo,12,Ana compra el libro.,Afirmación,En78,78,,,,,,,,,0,82,82,82,,,,,,,2,1.26681639764,,,2018_may._09_0027,60.0057303674,Experimento Piloto1,001,114,
2.5,Stim\\05_075.jpg,En75_1,Enojo,1,Juan colecciona monedas antiguas.,Afirmación,En75,75,,,,,,,,,0,83,83,83,,,,,,,3,0.850163415901,,,2018_may._09_0027,60.0057303674,Experimento Piloto1,001,114,
0.25,Stim\\03_019.jpg,Tr19_13,Tristeza,13,Rocío consume alimentos nutritivos.,Afirmación,Tr19,19,,,,,,,,,0,84,84,84,,,,,,,2,1.88312103844,,,2018_may._09_0027,60.0057303674,Experimento Piloto1,001,114,
2.5,Stim\\03_078.jpg,Tr78_11,Tristeza,11,María asiste a la cena.,Afirmación,Tr78,78,,,,,,,,,0,85,85,85,,,,,,,4,4.89902932204,,,2018_may._09_0027,60.0057303674,Experimento Piloto1,001,114,
2.5,Stim\\05_019.jpg,En19_1,Enojo,1,Juan colecciona monedas antiguas.,Afirmación,En19,19,,,,,,,,,0,86,86,86,,,,,,,2,3.88258643371,,,2018_may._09_0027,60.0057303674,Experimento Piloto1,001,114,
0.25,Stim\\02_075.jpg,Al75_10,Alegría,10,Laura finaliza la obra.,Afirmación,Al75,75,,,,,,,,,0,87,87,87,,,,,,,3,0.433673314567,,,2018_may._09_0027,60.0057303674,Experimento Piloto1,001,114,
2.5,Stim\\02_019.jpg,Al19_14,Alegría,14,Elizabeth elige la ropa un día antes.,Afirmación,Al19,19,,,,,,,,,0,88,88,88,,,,,,,3,1.11670670996,,,2018_may._09_0027,60.0057303674,Experimento Piloto1,001,114,
0.25,Stim\\03_028.jpg,Tr28_6,Tristeza,6,Eduardo camina hacia la biblioteca.,Afirmación,Tr28,28,,,,,,,,,0,89,89,89,,,,,,,4,1.00017760658,,,2018_may._09_0027,60.0057303674,Experimento Piloto1,001,114,
0.25,Stim\\02_075.jpg,Al75_8,Alegría,8,Estefanía despierta a las 7 a.m.,Afirmación,Al75,75,,,,,,,,,0,90,90,90,,,,,,,3,0.433667959595,,,2018_may._09_0027,60.0057303674,Experimento Piloto1,001,114,
2.5,Stim\\02_019.jpg,Al19_6,Alegría,6,Eduardo camina hacia la biblioteca.,Afirmación,Al19,19,,,,,,,,,0,91,91,91,,,,,,,3,0.916774361107,,,2018_may._09_0027,60.0057303674,Experimento Piloto1,001,114,
2.5,Stim\\03_078.jpg,Tr78_7,Tristeza,7,Roberto contesta los cuestionarios solicitados.,Afirmación,Tr78,78,,,,,,,,,0,92,92,92,,,,,,,4,4.39918550873,,,2018_may._09_0027,60.0057303674,Experimento Piloto1,001,114,
2.5,Stim\\02_028.jpg,Al28_8,Alegría,8,Estefanía despierta a las 7 a.m.,Afirmación,Al28,28,,,,,,,,,0,93,93,93,,,,,,,2,2.96600440536,,,2018_may._09_0027,60.0057303674,Experimento Piloto1,001,114,
0.25,Stim\\03_075.jpg,Tr75_13,Tristeza,13,Rocío consume alimentos nutritivos.,Afirmación,Tr75,75,,,,,,,,,0,94,94,94,,,,,,,3,1.01685566743,,,2018_may._09_0027,60.0057303674,Experimento Piloto1,001,114,
2.5,Stim\\02_075.jpg,Al75_6,Alegría,6,Eduardo camina hacia la biblioteca.,Afirmación,Al75,75,,,,,,,,,0,95,95,95,,,,,,,3,0.400330580283,,,2018_may._09_0027,60.0057303674,Experimento Piloto1,001,114,
0.25,Stim\\02_028.jpg,Al28_9,Alegría,9,Marco colabora en la organización del evento.,Afirmación,Al28,28,,,,,,,,,0,96,96,96,,,,,,,3,0.800160916914,,,2018_may._09_0027,60.0057303674,Experimento Piloto1,001,114,
0.25,Stim\\02_019.jpg,Al19_8,Alegría,8,Estefanía despierta a las 7 a.m.,Afirmación,Al19,19,,,,,,,,,0,97,97,97,,,,,,,3,0.850221874347,,,2018_may._09_0027,60.0057303674,Experimento Piloto1,001,114,
2.5,Stim\\02_019.jpg,Al19_1,Alegría,1,Juan colecciona monedas antiguas.,Afirmación,Al19,19,,,,,,,,,0,98,98,98,,,,,,,3,0.550401890662,,,2018_may._09_0027,60.0057303674,Experimento Piloto1,001,114,
0.25,Stim\\02_019.jpg,Al19_5,Alegría,5,Emilio revisa el formato del archivo.,Afirmación,Al19,19,,,,,,,,,0,99,99,99,,,,,,,3,0.700161273912,,,2018_may._09_0027,60.0057303674,Experimento Piloto1,001,114,
2.5,Stim\\02_078.jpg,Al78_13,Alegría,13,Rocío consume alimentos nutritivos.,Afirmación,Al78,78,,,,,,,,,0,100,100,100,,,,,,,3,1.6833694199,,,2018_may._09_0027,60.0057303674,Experimento Piloto1,001,114,
2.5,Stim\\05_078.jpg,En78_12,Enojo,12,Ana compra el libro.,Afirmación,En78,78,,,,,,,,,0,101,101,101,,,,,,,2,2.96619539937,,,2018_may._09_0027,60.0057303674,Experimento Piloto1,001,114,
2.5,Stim\\03_075.jpg,Tr75_11,Tristeza,11,María asiste a la cena.,Afirmación,Tr75,75,,,,,,,,,0,102,102,102,,,,,,,4,1.36675267347,,,2018_may._09_0027,60.0057303674,Experimento Piloto1,001,114,
0.25,Stim\\02_078.jpg,Al78_13,Alegría,13,Rocío consume alimentos nutritivos.,Afirmación,Al78,78,,,,,,,,,0,103,103,103,,,,,,,3,0.550244811478,,,2018_may._09_0027,60.0057303674,Experimento Piloto1,001,114,
0.25,Stim\\03_075.jpg,Tr75_11,Tristeza,11,María asiste a la cena.,Afirmación,Tr75,75,,,,,,,,,0,104,104,104,,,,,,,4,1.36666208519,,,2018_may._09_0027,60.0057303674,Experimento Piloto1,001,114,
2.5,Stim\\05_075.jpg,En75_8,Enojo,8,Estefanía despierta a las 7 a.m.,Afirmación,En75,75,,,,,,,,,0,105,105,105,,,,,,,2,0.700242044742,,,2018_may._09_0027,60.0057303674,Experimento Piloto1,001,114,
2.5,Stim\\03_078.jpg,Tr78_2,Tristeza,2,Jonathan pasea al perro.,Afirmación,Tr78,78,,,,,,,,,0,106,106,106,,,,,,,4,0.800287205008,,,2018_may._09_0027,60.0057303674,Experimento Piloto1,001,114,
2.5,Stim\\03_078.jpg,Tr78_12,Tristeza,12,Ana compra el libro.,Afirmación,Tr78,78,,,,,,,,,0,107,107,107,,,,,,,3,4.59893668102,,,2018_may._09_0027,60.0057303674,Experimento Piloto1,001,114,
2.5,Stim\\05_019.jpg,En19_10,Enojo,10,Laura finaliza la obra.,Afirmación,En19,19,,,,,,,,,0,108,108,108,,,,,,,3,1.20011977288,,,2018_may._09_0027,60.0057303674,Experimento Piloto1,001,114,
2.5,Stim\\05_078.jpg,En78_15,Enojo,15,Ángel envía una carta a la abuela.,Afirmación,En78,78,,,,,,,,,0,109,109,109,,,,,,,3,2.39953268943,,,2018_may._09_0027,60.0057303674,Experimento Piloto1,001,114,
0.25,Stim\\02_028.jpg,Al28_15,Alegría,15,Ángel envía una carta a la abuela.,Afirmación,Al28,28,,,,,,,,,0,110,110,110,,,,,,,3,1.15008916029,,,2018_may._09_0027,60.0057303674,Experimento Piloto1,001,114,
2.5,Stim\\02_075.jpg,Al75_13,Alegría,13,Rocío consume alimentos nutritivos.,Afirmación,Al75,75,,,,,,,,,0,111,111,111,,,,,,,3,0.650431432259,,,2018_may._09_0027,60.0057303674,Experimento Piloto1,001,114,
2.5,Stim\\02_078.jpg,Al78_5,Alegría,5,Emilio revisa el formato del archivo.,Afirmación,Al78,78,,,,,,,,,0,112,112,112,,,,,,,3,2.39983122913,,,2018_may._09_0027,60.0057303674,Experimento Piloto1,001,114,
2.5,Stim\\05_019.jpg,En19_12,Enojo,12,Ana compra el libro.,Afirmación,En19,19,,,,,,,,,0,113,113,113,,,,,,,2,2.84966763473,,,2018_may._09_0027,60.0057303674,Experimento Piloto1,001,114,
2.5,Stim\\03_028.jpg,Tr28_13,Tristeza,13,Rocío consume alimentos nutritivos.,Afirmación,Tr28,28,,,,,,,,,0,114,114,114,,,,,,,4,0.766470555685,,,2018_may._09_0027,60.0057303674,Experimento Piloto1,001,114,
2.5,Stim\\02_075.jpg,Al75_1,Alegría,1,Juan colecciona monedas antiguas.,Afirmación,Al75,75,,,,,,,,,0,115,115,115,,,,,,,3,0.850249095456,,,2018_may._09_0027,60.0057303674,Experimento Piloto1,001,114,
2.5,Stim\\02_028.jpg,Al28_3,Alegría,3,Andrea diseña la portada del libro.,Afirmación,Al28,28,,,,,,,,,0,116,116,116,,,,,,,3,0.850175464589,,,2018_may._09_0027,60.0057303674,Experimento Piloto1,001,114,
0.25,Stim\\05_028.jpg,En28_10,Enojo,10,Laura finaliza la obra.,Afirmación,En28,28,,,,,,,,,0,117,117,117,,,,,,,3,2.08313549686,,,2018_may._09_0027,60.0057303674,Experimento Piloto1,001,114,
0.25,Stim\\02_078.jpg,Al78_3,Alegría,3,Andrea diseña la portada del libro.,Afirmación,Al78,78,,,,,,,,,0,118,118,118,,,,,,,3,0.433762117856,,,2018_may._09_0027,60.0057303674,Experimento Piloto1,001,114,
2.5,Stim\\03_075.jpg,Tr75_15,Tristeza,15,Ángel envía una carta a la abuela.,Afirmación,Tr75,75,,,,,,,,,0,119,119,119,,,,,,,4,1.71660550098,,,2018_may._09_0027,60.0057303674,Experimento Piloto1,001,114,
0.25,Stim\\03_028.jpg,Tr28_2,Tristeza,2,Jonathan pasea al perro.,Afirmación,Tr28,28,,,,,,,,,,,,,0,0,0,0,,,,,4,0.583646450457,2018_may._09_0027,60.0057303674,Experimento Piloto1,001,114,
2.5,Stim\\05_075.jpg,En75_12,Enojo,12,Ana compra el libro.,Afirmación,En75,75,,,,,,,,,,,,,0,1,1,1,,,,,2,1.56662656387,2018_may._09_0027,60.0057303674,Experimento Piloto1,001,114,
0.25,Stim\\02_078.jpg,Al78_11,Alegría,11,María asiste a la cena.,Afirmación,Al78,78,,,,,,,,,,,,,0,2,2,2,,,,,3,0.501145071551,2018_may._09_0027,60.0057303674,Experimento Piloto1,001,114,
0.25,Stim\\02_078.jpg,Al78_8,Alegría,8,Estefanía despierta a las 7 a.m.,Afirmación,Al78,78,,,,,,,,,,,,,0,3,3,3,,,,,3,0.700316568105,2018_may._09_0027,60.0057303674,Experimento Piloto1,001,114,
0.25,Stim\\05_028.jpg,En28_6,Enojo,6,Eduardo camina hacia la biblioteca.,Afirmación,En28,28,,,,,,,,,,,,,0,4,4,4,,,,,2,1.71667600812,2018_may._09_0027,60.0057303674,Experimento Piloto1,001,114,
0.25,Stim\\02_019.jpg,Al19_14,Alegría,14,Elizabeth elige la ropa un día antes.,Afirmación,Al19,19,,,,,,,,,,,,,0,5,5,5,,,,,3,0.966856738429,2018_may._09_0027,60.0057303674,Experimento Piloto1,001,114,
2.5,Stim\\05_078.jpg,En78_1,Enojo,1,Juan colecciona monedas antiguas.,Afirmación,En78,78,,,,,,,,,,,,,0,6,6,6,,,,,2,1.56691439363,2018_may._09_0027,60.0057303674,Experimento Piloto1,001,114,
2.5,Stim\\02_078.jpg,Al78_15,Alegría,15,Ángel envía una carta a la abuela.,Afirmación,Al78,78,,,,,,,,,,,,,0,7,7,7,,,,,3,2.38301840147,2018_may._09_0027,60.0057303674,Experimento Piloto1,001,114,
0.25,Stim\\02_075.jpg,Al75_14,Alegría,14,Elizabeth elige la ropa un día antes.,Afirmación,Al75,75,,,,,,,,,,,,,0,8,8,8,,,,,3,2.183059724,2018_may._09_0027,60.0057303674,Experimento Piloto1,001,114,
2.5,Stim\\02_075.jpg,Al75_2,Alegría,2,Jonathan pasea al perro.,Afirmación,Al75,75,,,,,,,,,,,,,0,9,9,9,,,,,3,2.84969976456,2018_may._09_0027,60.0057303674,Experimento Piloto1,001,114,
0.25,Stim\\05_075.jpg,En75_12,Enojo,12,Ana compra el libro.,Afirmación,En75,75,,,,,,,,,,,,,0,10,10,10,,,,,2,1.00011647065,2018_may._09_0027,60.0057303674,Experimento Piloto1,001,114,
2.5,Stim\\03_078.jpg,Tr78_8,Tristeza,8,Estefanía despierta a las 7 a.m.,Afirmación,Tr78,78,,,,,,,,,,,,,0,11,11,11,,,,,4,1.88332184989,2018_may._09_0027,60.0057303674,Experimento Piloto1,001,114,
0.25,Stim\\03_078.jpg,Tr78_15,Tristeza,15,Ángel envía una carta a la abuela.,Afirmación,Tr78,78,,,,,,,,,,,,,0,12,12,12,,,,,4,1.36671652741,2018_may._09_0027,60.0057303674,Experimento Piloto1,001,114,
0.25,Stim\\03_078.jpg,Tr78_5,Tristeza,5,Emilio revisa el formato del archivo.,Afirmación,Tr78,78,,,,,,,,,,,,,0,13,13,13,,,,,4,0.766542401562,2018_may._09_0027,60.0057303674,Experimento Piloto1,001,114,
2.5,Stim\\02_019.jpg,Al19_5,Alegría,5,Emilio revisa el formato del archivo.,Afirmación,Al19,19,,,,,,,,,,,,,0,14,14,14,,,,,3,1.01675793919,2018_may._09_0027,60.0057303674,Experimento Piloto1,001,114,
2.5,Stim\\03_075.jpg,Tr75_10,Tristeza,10,Laura finaliza la obra.,Afirmación,Tr75,75,,,,,,,,,,,,,0,15,15,15,,,,,4,3.06620485982,2018_may._09_0027,60.0057303674,Experimento Piloto1,001,114,
2.5,Stim\\03_075.jpg,Tr75_4,Tristeza,4,Jorge sustituye a Gustavo cada sábado.,Afirmación,Tr75,75,,,,,,,,,,,,,0,16,16,16,,,,,4,1.88341333067,2018_may._09_0027,60.0057303674,Experimento Piloto1,001,114,
0.25,Stim\\03_028.jpg,Tr28_5,Tristeza,5,Emilio revisa el formato del archivo.,Afirmación,Tr28,28,,,,,,,,,,,,,0,17,17,17,,,,,4,0.80029077499,2018_may._09_0027,60.0057303674,Experimento Piloto1,001,114,
0.25,Stim\\05_075.jpg,En75_11,Enojo,11,María asiste a la cena.,Afirmación,En75,75,,,,,,,,,,,,,0,18,18,18,,,,,2,0.850198223221,2018_may._09_0027,60.0057303674,Experimento Piloto1,001,114,
0.25,Stim\\02_075.jpg,Al75_6,Alegría,6,Eduardo camina hacia la biblioteca.,Afirmación,Al75,75,,,,,,,,,,,,,0,19,19,19,,,,,3,0.550080592331,2018_may._09_0027,60.0057303674,Experimento Piloto1,001,114,
0.25,Stim\\05_078.jpg,En78_1,Enojo,1,Juan colecciona monedas antiguas.,Afirmación,En78,78,,,,,,,,,,,,,0,20,20,20,,,,,2,2.84962390245,2018_may._09_0027,60.0057303674,Experimento Piloto1,001,114,
2.5,Stim\\03_019.jpg,Tr19_4,Tristeza,4,Jorge sustituye a Gustavo cada sábado.,Afirmación,Tr19,19,,,,,,,,,,,,,0,21,21,21,,,,,3,1.01670081949,2018_may._09_0027,60.0057303674,Experimento Piloto1,001,114,
0.25,Stim\\03_028.jpg,Tr28_11,Tristeza,11,María asiste a la cena.,Afirmación,Tr28,28,,,,,,,,,,,,,0,22,22,22,,,,,3,1.63336424342,2018_may._09_0027,60.0057303674,Experimento Piloto1,001,114,
0.25,Stim\\02_019.jpg,Al19_7,Alegría,7,Roberto contesta los cuestionarios solicitados.,Afirmación,Al19,19,,,,,,,,,,,,,0,23,23,23,,,,,3,3.46619629186,2018_may._09_0027,60.0057303674,Experimento Piloto1,001,114,
0.25,Stim\\05_028.jpg,En28_1,Enojo,1,Juan colecciona monedas antiguas.,Afirmación,En28,28,,,,,,,,,,,,,0,24,24,24,,,,,2,1.00007363087,2018_may._09_0027,60.0057303674,Experimento Piloto1,001,114,
0.25,Stim\\03_019.jpg,Tr19_6,Tristeza,6,Eduardo camina hacia la biblioteca.,Afirmación,Tr19,19,,,,,,,,,,,,,0,25,25,25,,,,,3,0.650591635177,2018_may._09_0027,60.0057303674,Experimento Piloto1,001,114,
0.25,Stim\\03_078.jpg,Tr78_7,Tristeza,7,Roberto contesta los cuestionarios solicitados.,Afirmación,Tr78,78,,,,,,,,,,,,,0,26,26,26,,,,,4,1.76678471405,2018_may._09_0027,60.0057303674,Experimento Piloto1,001,114,
2.5,Stim\\03_019.jpg,Tr19_15,Tristeza,15,Ángel envía una carta a la abuela.,Afirmación,Tr19,19,,,,,,,,,,,,,0,27,27,27,,,,,3,3.36612837296,2018_may._09_0027,60.0057303674,Experimento Piloto1,001,114,
2.5,Stim\\02_028.jpg,Al28_4,Alegría,4,Jorge sustituye a Gustavo cada sábado.,Afirmación,Al28,28,,,,,,,,,,,,,0,28,28,28,,,,,3,2.54924298543,2018_may._09_0027,60.0057303674,Experimento Piloto1,001,114,
2.5,Stim\\03_078.jpg,Tr78_5,Tristeza,5,Emilio revisa el formato del archivo.,Afirmación,Tr78,78,,,,,,,,,,,,,0,29,29,29,,,,,4,2.13330756997,2018_may._09_0027,60.0057303674,Experimento Piloto1,001,114,
2.5,Stim\\03_028.jpg,Tr28_12,Tristeza,12,Ana compra el libro.,Afirmación,Tr28,28,,,,,,,,,,,,,0,30,30,30,,,,,4,1.21693661676,2018_may._09_0027,60.0057303674,Experimento Piloto1,001,114,
0.25,Stim\\02_028.jpg,Al28_2,Alegría,2,Jonathan pasea al perro.,Afirmación,Al28,28,,,,,,,,,,,,,0,31,31,31,,,,,3,2.44973689237,2018_may._09_0027,60.0057303674,Experimento Piloto1,001,114,
0.25,Stim\\05_019.jpg,En19_8,Enojo,8,Estefanía despierta a las 7 a.m.,Afirmación,En19,19,,,,,,,,,,,,,0,32,32,32,,,,,2,2.34961140752,2018_may._09_0027,60.0057303674,Experimento Piloto1,001,114,
0.25,Stim\\03_019.jpg,Tr19_9,Tristeza,9,Marco colabora en la organización del evento.,Afirmación,Tr19,19,,,,,,,,,,,,,0,33,33,33,,,,,3,1.63324643403,2018_may._09_0027,60.0057303674,Experimento Piloto1,001,114,
2.5,Stim\\02_078.jpg,Al78_10,Alegría,10,Laura finaliza la obra.,Afirmación,Al78,78,,,,,,,,,,,,,0,34,34,34,,,,,3,0.750226247575,2018_may._09_0027,60.0057303674,Experimento Piloto1,001,114,
2.5,Stim\\02_075.jpg,Al75_15,Alegría,15,Ángel envía una carta a la abuela.,Afirmación,Al75,75,,,,,,,,,,,,,0,35,35,35,,,,,3,1.48338843005,2018_may._09_0027,60.0057303674,Experimento Piloto1,001,114,
2.5,Stim\\03_028.jpg,Tr28_6,Tristeza,6,Eduardo camina hacia la biblioteca.,Afirmación,Tr28,28,,,,,,,,,,,,,0,36,36,36,,,,,4,1.16678150107,2018_may._09_0027,60.0057303674,Experimento Piloto1,001,114,
0.25,Stim\\03_075.jpg,Tr75_14,Tristeza,14,Elizabeth elige la ropa un día antes.,Afirmación,Tr75,75,,,,,,,,,,,,,0,37,37,37,,,,,4,0.75023294129,2018_may._09_0027,60.0057303674,Experimento Piloto1,001,114,
2.5,Stim\\05_075.jpg,En75_13,Enojo,13,Rocío consume alimentos nutritivos.,Afirmación,En75,75,,,,,,,,,,,,,0,38,38,38,,,,,2,0.80018278305,2018_may._09_0027,60.0057303674,Experimento Piloto1,001,114,
2.5,Stim\\03_075.jpg,Tr75_8,Tristeza,8,Estefanía despierta a las 7 a.m.,Afirmación,Tr75,75,,,,,,,,,,,,,0,39,39,39,,,,,3,1.01633177266,2018_may._09_0027,60.0057303674,Experimento Piloto1,001,114,
0.25,Stim\\05_075.jpg,En75_7,Enojo,7,Roberto contesta los cuestionarios solicitados.,Afirmación,En75,75,,,,,,,,,,,,,0,40,40,40,,,,,2,0.650173054851,2018_may._09_0027,60.0057303674,Experimento Piloto1,001,114,
2.5,Stim\\03_019.jpg,Tr19_10,Tristeza,10,Laura finaliza la obra.,Afirmación,Tr19,19,,,,,,,,,,,,,0,41,41,41,,,,,3,2.29963925337,2018_may._09_0027,60.0057303674,Experimento Piloto1,001,114,
2.5,Stim\\03_019.jpg,Tr19_2,Tristeza,2,Jonathan pasea al perro.,Afirmación,Tr19,19,,,,,,,,,,,,,0,42,42,42,,,,,2,2.79964148461,2018_may._09_0027,60.0057303674,Experimento Piloto1,001,114,
0.25,Stim\\03_075.jpg,Tr75_15,Tristeza,15,Ángel envía una carta a la abuela.,Afirmación,Tr75,75,,,,,,,,,,,,,0,43,43,43,,,,,4,2.0331669127,2018_may._09_0027,60.0057303674,Experimento Piloto1,001,114,
0.25,Stim\\05_019.jpg,En19_1,Enojo,1,Juan colecciona monedas antiguas.,Afirmación,En19,19,,,,,,,,,,,,,0,44,44,44,,,,,2,0.600137533535,2018_may._09_0027,60.0057303674,Experimento Piloto1,001,114,
0.25,Stim\\03_078.jpg,Tr78_2,Tristeza,2,Jonathan pasea al perro.,Afirmación,Tr78,78,,,,,,,,,,,,,0,45,45,45,,,,,2,0.70035806914,2018_may._09_0027,60.0057303674,Experimento Piloto1,001,114,
2.5,Stim\\02_019.jpg,Al19_9,Alegría,9,Marco colabora en la organización del evento.,Afirmación,Al19,19,,,,,,,,,,,,,0,46,46,46,,,,,3,0.550614750807,2018_may._09_0027,60.0057303674,Experimento Piloto1,001,114,
2.5,Stim\\03_028.jpg,Tr28_11,Tristeza,11,María asiste a la cena.,Afirmación,Tr28,28,,,,,,,,,,,,,0,47,47,47,,,,,4,2.79962095722,2018_may._09_0027,60.0057303674,Experimento Piloto1,001,114,
2.5,Stim\\05_078.jpg,En78_6,Enojo,6,Eduardo camina hacia la biblioteca.,Afirmación,En78,78,,,,,,,,,,,,,0,48,48,48,,,,,2,2.69966549274,2018_may._09_0027,60.0057303674,Experimento Piloto1,001,114,
2.5,Stim\\02_028.jpg,Al28_14,Alegría,14,Elizabeth elige la ropa un día antes.,Afirmación,Al28,28,,,,,,,,,,,,,0,49,49,49,,,,,3,0.850654288351,2018_may._09_0027,60.0057303674,Experimento Piloto1,001,114,
0.25,Stim\\03_019.jpg,Tr19_10,Tristeza,10,Laura finaliza la obra.,Afirmación,Tr19,19,,,,,,,,,,,,,0,50,50,50,,,,,3,5.31543865255,2018_may._09_0027,60.0057303674,Experimento Piloto1,001,114,
2.5,Stim\\05_019.jpg,En19_2,Enojo,2,Jonathan pasea al perro.,Afirmación,En19,19,,,,,,,,,,,,,0,51,51,51,,,,,2,2.03316959018,2018_may._09_0027,60.0057303674,Experimento Piloto1,001,114,
0.25,Stim\\05_078.jpg,En78_5,Enojo,5,Emilio revisa el formato del archivo.,Afirmación,En78,78,,,,,,,,,,,,,0,52,52,52,,,,,2,0.816924211078,2018_may._09_0027,60.0057303674,Experimento Piloto1,001,114,
2.5,Stim\\02_075.jpg,Al75_5,Alegría,5,Emilio revisa el formato del archivo.,Afirmación,Al75,75,,,,,,,,,,,,,0,53,53,53,,,,,3,1.00019501024,2018_may._09_0027,60.0057303674,Experimento Piloto1,001,114,
0.25,Stim\\05_028.jpg,En28_9,Enojo,9,Marco colabora en la organización del evento.,Afirmación,En28,28,,,,,,,,,,,,,0,54,54,54,,,,,3,1.21693304678,2018_may._09_0027,60.0057303674,Experimento Piloto1,001,114,
2.5,Stim\\03_019.jpg,Tr19_1,Tristeza,1,Juan colecciona monedas antiguas.,Afirmación,Tr19,19,,,,,,,,,,,,,0,55,55,55,,,,,3,1.51643128589,2018_may._09_0027,60.0057303674,Experimento Piloto1,001,114,
0.25,Stim\\02_028.jpg,Al28_3,Alegría,3,Andrea diseña la portada del libro.,Afirmación,Al28,28,,,,,,,,,,,,,0,56,56,56,,,,,3,2.34987335491,2018_may._09_0027,60.0057303674,Experimento Piloto1,001,114,
0.25,Stim\\05_028.jpg,En28_5,Enojo,5,Emilio revisa el formato del archivo.,Afirmación,En28,28,,,,,,,,,,,,,0,57,57,57,,,,,2,0.900209200913,2018_may._09_0027,60.0057303674,Experimento Piloto1,001,114,
2.5,Stim\\03_078.jpg,Tr78_15,Tristeza,15,Ángel envía una carta a la abuela.,Afirmación,Tr78,78,,,,,,,,,,,,,0,58,58,58,,,,,4,1.6831944908,2018_may._09_0027,60.0057303674,Experimento Piloto1,001,114,
0.25,Stim\\02_078.jpg,Al78_10,Alegría,10,Laura finaliza la obra.,Afirmación,Al78,78,,,,,,,,,,,,,0,59,59,59,,,,,3,1.46655061252,2018_may._09_0027,60.0057303674,Experimento Piloto1,001,114,
0.25,Stim\\03_075.jpg,Tr75_7,Tristeza,7,Roberto contesta los cuestionarios solicitados.,Afirmación,Tr75,75,,,,,,,,,,,,,0,60,60,60,,,,,4,3.98272575224,2018_may._09_0027,60.0057303674,Experimento Piloto1,001,114,
0.25,Stim\\03_075.jpg,Tr75_5,Tristeza,5,Emilio revisa el formato del archivo.,Afirmación,Tr75,75,,,,,,,,,,,,,0,61,61,61,,,,,4,2.23291942373,2018_may._09_0027,60.0057303674,Experimento Piloto1,001,114,
0.25,Stim\\05_075.jpg,En75_14,Enojo,14,Elizabeth elige la ropa un día antes.,Afirmación,En75,75,,,,,,,,,,,,,0,62,62,62,,,,,2,0.966899578207,2018_may._09_0027,60.0057303674,Experimento Piloto1,001,114,
0.25,Stim\\05_075.jpg,En75_2,Enojo,2,Jonathan pasea al perro.,Afirmación,En75,75,,,,,,,,,,,,,0,63,63,63,,,,,2,0.750189655265,2018_may._09_0027,60.0057303674,Experimento Piloto1,001,114,
0.25,Stim\\02_078.jpg,Al78_6,Alegría,6,Eduardo camina hacia la biblioteca.,Afirmación,Al78,78,,,,,,,,,,,,,0,64,64,64,,,,,3,2.64973350088,2018_may._09_0027,60.0057303674,Experimento Piloto1,001,114,
0.25,Stim\\03_075.jpg,Tr75_4,Tristeza,4,Jorge sustituye a Gustavo cada sábado.,Afirmación,Tr75,75,,,,,,,,,,,,,0,65,65,65,,,,,4,1.51667850711,2018_may._09_0027,60.0057303674,Experimento Piloto1,001,114,
0.25,Stim\\03_075.jpg,Tr75_3,Tristeza,3,Andrea diseña la portada del libro.,Afirmación,Tr75,75,,,,,,,,,,,,,0,66,66,66,,,,,4,1.51650982548,2018_may._09_0027,60.0057303674,Experimento Piloto1,001,114,
0.25,Stim\\02_028.jpg,Al28_10,Alegría,10,Laura finaliza la obra.,Afirmación,Al28,28,,,,,,,,,,,,,0,67,67,67,,,,,3,2.50014458425,2018_may._09_0027,60.0057303674,Experimento Piloto1,001,114,
0.25,Stim\\03_028.jpg,Tr28_12,Tristeza,12,Ana compra el libro.,Afirmación,Tr28,28,,,,,,,,,,,,,0,68,68,68,,,,,4,0.866713849922,2018_may._09_0027,60.0057303674,Experimento Piloto1,001,114,
0.25,Stim\\03_075.jpg,Tr75_10,Tristeza,10,Laura finaliza la obra.,Afirmación,Tr75,75,,,,,,,,,,,,,0,69,69,69,,,,,3,2.38336379718,2018_may._09_0027,60.0057303674,Experimento Piloto1,001,114,
0.25,Stim\\02_028.jpg,Al28_8,Alegría,8,Estefanía despierta a las 7 a.m.,Afirmación,Al28,28,,,,,,,,,,,,,0,70,70,70,,,,,3,0.600015261671,2018_may._09_0027,60.0057303674,Experimento Piloto1,001,114,
0.25,Stim\\05_078.jpg,En78_14,Enojo,14,Elizabeth elige la ropa un día antes.,Afirmación,En78,78,,,,,,,,,,,,,0,71,71,71,,,,,2,1.16691314414,2018_may._09_0027,60.0057303674,Experimento Piloto1,001,114,
2.5,Stim\\03_078.jpg,Tr78_9,Tristeza,9,Marco colabora en la organización del evento.,Afirmación,Tr78,78,,,,,,,,,,,,,0,72,72,72,,,,,2,1.41676900614,2018_may._09_0027,60.0057303674,Experimento Piloto1,001,114,
0.25,Stim\\02_019.jpg,Al19_3,Alegría,3,Andrea diseña la portada del libro.,Afirmación,Al19,19,,,,,,,,,,,,,0,73,73,73,,,,,3,0.400309606642,2018_may._09_0027,60.0057303674,Experimento Piloto1,001,114,
0.25,Stim\\03_078.jpg,Tr78_6,Tristeza,6,Eduardo camina hacia la biblioteca.,Afirmación,Tr78,78,,,,,,,,,,,,,0,74,74,74,,,,,4,0.800300592439,2018_may._09_0027,60.0057303674,Experimento Piloto1,001,114,
0.25,Stim\\03_028.jpg,Tr28_8,Tristeza,8,Estefanía despierta a las 7 a.m.,Afirmación,Tr28,28,,,,,,,,,,,,,0,75,75,75,,,,,4,1.06674615825,2018_may._09_0027,60.0057303674,Experimento Piloto1,001,114,
2.5,Stim\\05_078.jpg,En78_9,Enojo,9,Marco colabora en la organización del evento.,Afirmación,En78,78,,,,,,,,,,,,,0,76,76,76,,,,,2,1.51677355786,2018_may._09_0027,60.0057303674,Experimento Piloto1,001,114,
2.5,Stim\\02_028.jpg,Al28_6,Alegría,6,Eduardo camina hacia la biblioteca.,Afirmación,Al28,28,,,,,,,,,,,,,0,77,77,77,,,,,3,0.800197062977,2018_may._09_0027,60.0057303674,Experimento Piloto1,001,114,
2.5,Stim\\03_078.jpg,Tr78_6,Tristeza,6,Eduardo camina hacia la biblioteca.,Afirmación,Tr78,78,,,,,,,,,,,,,0,78,78,78,,,,,4,0.600283456527,2018_may._09_0027,60.0057303674,Experimento Piloto1,001,114,
2.5,Stim\\02_078.jpg,Al78_2,Alegría,2,Jonathan pasea al perro.,Afirmación,Al78,78,,,,,,,,,,,,,0,79,79,79,,,,,3,1.68341002843,2018_may._09_0027,60.0057303674,Experimento Piloto1,001,114,
2.5,Stim\\02_028.jpg,Al28_10,Alegría,10,Laura finaliza la obra.,Afirmación,Al28,28,,,,,,,,,,,,,0,80,80,80,,,,,3,3.14958891664,2018_may._09_0027,60.0057303674,Experimento Piloto1,001,114,
2.5,Stim\\02_019.jpg,Al19_15,Alegría,15,Ángel envía una carta a la abuela.,Afirmación,Al19,19,,,,,,,,,,,,,0,81,81,81,,,,,3,1.06659443404,2018_may._09_0027,60.0057303674,Experimento Piloto1,001,114,
0.25,Stim\\03_019.jpg,Tr19_5,Tristeza,5,Emilio revisa el formato del archivo.,Afirmación,Tr19,19,,,,,,,,,,,,,0,82,82,82,,,,,2,3.16601261631,2018_may._09_0027,60.0057303674,Experimento Piloto1,001,114,
0.25,Stim\\02_075.jpg,Al75_12,Alegría,12,Ana compra el libro.,Afirmación,Al75,75,,,,,,,,,,,,,0,83,83,83,,,,,3,2.6997690222,2018_may._09_0027,60.0057303674,Experimento Piloto1,001,114,
2.5,Stim\\05_078.jpg,En78_3,Enojo,3,Andrea diseña la portada del libro.,Afirmación,En78,78,,,,,,,,,,,,,0,84,84,84,,,,,2,1.8666321866,2018_may._09_0027,60.0057303674,Experimento Piloto1,001,114,
2.5,Stim\\03_075.jpg,Tr75_5,Tristeza,5,Emilio revisa el formato del archivo.,Afirmación,Tr75,75,,,,,,,,,,,,,0,85,85,85,,,,,4,0.650345306456,2018_may._09_0027,60.0057303674,Experimento Piloto1,001,114,
2.5,Stim\\05_028.jpg,En28_2,Enojo,2,Jonathan pasea al perro.,Afirmación,En28,28,,,,,,,,,,,,,0,86,86,86,,,,,2,1.66671545641,2018_may._09_0027,60.0057303674,Experimento Piloto1,001,114,
0.25,Stim\\03_028.jpg,Tr28_9,Tristeza,9,Marco colabora en la organización del evento.,Afirmación,Tr28,28,,,,,,,,,,,,,0,87,87,87,,,,,2,5.06545248622,2018_may._09_0027,60.0057303674,Experimento Piloto1,001,114,
0.25,Stim\\03_078.jpg,Tr78_9,Tristeza,9,Marco colabora en la organización del evento.,Afirmación,Tr78,78,,,,,,,,,,,,,0,88,88,88,,,,,4,0.750173144101,2018_may._09_0027,60.0057303674,Experimento Piloto1,001,114,
2.5,Stim\\03_075.jpg,Tr75_12,Tristeza,12,Ana compra el libro.,Afirmación,Tr75,75,,,,,,,,,,,,,0,89,89,89,,,,,4,3.78271352505,2018_may._09_0027,60.0057303674,Experimento Piloto1,001,114,
2.5,Stim\\05_078.jpg,En78_11,Enojo,11,María asiste a la cena.,Afirmación,En78,78,,,,,,,,,,,,,0,90,90,90,,,,,2,4.69900504617,2018_may._09_0027,60.0057303674,Experimento Piloto1,001,114,
2.5,Stim\\02_075.jpg,Al75_14,Alegría,14,Elizabeth elige la ropa un día antes.,Afirmación,Al75,75,,,,,,,,,,,,,0,91,91,91,,,,,3,0.600242847988,2018_may._09_0027,60.0057303674,Experimento Piloto1,001,114,
0.25,Stim\\03_019.jpg,Tr19_7,Tristeza,7,Roberto contesta los cuestionarios solicitados.,Afirmación,Tr19,19,,,,,,,,,,,,,0,92,92,92,,,,,3,1.05019840172,2018_may._09_0027,60.0057303674,Experimento Piloto1,001,114,
0.25,Stim\\05_075.jpg,En75_5,Enojo,5,Emilio revisa el formato del archivo.,Afirmación,En75,75,,,,,,,,,,,,,0,93,93,93,,,,,2,1.16699391497,2018_may._09_0027,60.0057303674,Experimento Piloto1,001,114,
2.5,Stim\\05_019.jpg,En19_14,Enojo,14,Elizabeth elige la ropa un día antes.,Afirmación,En19,19,,,,,,,,,,,,,0,94,94,94,,,,,2,1.41671099394,2018_may._09_0027,60.0057303674,Experimento Piloto1,001,114,
0.25,Stim\\02_075.jpg,Al75_2,Alegría,2,Jonathan pasea al perro.,Afirmación,Al75,75,,,,,,,,,,,,,0,95,95,95,,,,,3,0.75012896558,2018_may._09_0027,60.0057303674,Experimento Piloto1,001,114,
2.5,Stim\\03_028.jpg,Tr28_10,Tristeza,10,Laura finaliza la obra.,Afirmación,Tr28,28,,,,,,,,,,,,,0,96,96,96,,,,,4,1.21686655588,2018_may._09_0027,60.0057303674,Experimento Piloto1,001,114,
2.5,Stim\\02_078.jpg,Al78_3,Alegría,3,Andrea diseña la portada del libro.,Afirmación,Al78,78,,,,,,,,,,,,,0,97,97,97,,,,,3,0.533725614795,2018_may._09_0027,60.0057303674,Experimento Piloto1,001,114,
2.5,Stim\\05_075.jpg,En75_3,Enojo,3,Andrea diseña la portada del libro.,Afirmación,En75,75,,,,,,,,,,,,,0,98,98,98,,,,,2,3.06618299368,2018_may._09_0027,60.0057303674,Experimento Piloto1,001,114,
2.5,Stim\\03_075.jpg,Tr75_3,Tristeza,3,Andrea diseña la portada del libro.,Afirmación,Tr75,75,,,,,,,,,,,,,0,99,99,99,,,,,4,0.650255164424,2018_may._09_0027,60.0057303674,Experimento Piloto1,001,114,
2.5,Stim\\03_075.jpg,Tr75_7,Tristeza,7,Roberto contesta los cuestionarios solicitados.,Afirmación,Tr75,75,,,,,,,,,,,,,0,100,100,100,,,,,4,2.08316941169,2018_may._09_0027,60.0057303674,Experimento Piloto1,001,114,
2.5,Stim\\03_019.jpg,Tr19_14,Tristeza,14,Elizabeth elige la ropa un día antes.,Afirmación,Tr19,19,,,,,,,,,,,,,0,101,101,101,,,,,3,0.750185192788,2018_may._09_0027,60.0057303674,Experimento Piloto1,001,114,
2.5,Stim\\05_078.jpg,En78_5,Enojo,5,Emilio revisa el formato del archivo.,Afirmación,En78,78,,,,,,,,,,,,,0,102,102,102,,,,,2,0.550268462605,2018_may._09_0027,60.0057303674,Experimento Piloto1,001,114,
2.5,Stim\\02_078.jpg,Al78_12,Alegría,12,Ana compra el libro.,Afirmación,Al78,78,,,,,,,,,,,,,0,103,103,103,,,,,3,1.10025668167,2018_may._09_0027,60.0057303674,Experimento Piloto1,001,114,
2.5,Stim\\02_028.jpg,Al28_13,Alegría,13,Rocío consume alimentos nutritivos.,Afirmación,Al28,28,,,,,,,,,,,,,0,104,104,104,,,,,3,1.10006033269,2018_may._09_0027,60.0057303674,Experimento Piloto1,001,114,
2.5,Stim\\05_028.jpg,En28_4,Enojo,4,Jorge sustituye a Gustavo cada sábado.,Afirmación,En28,28,,,,,,,,,,,,,0,105,105,105,,,,,2,1.63330890871,2018_may._09_0027,60.0057303674,Experimento Piloto1,001,114,
0.25,Stim\\02_028.jpg,Al28_7,Alegría,7,Roberto contesta los cuestionarios solicitados.,Afirmación,Al28,28,,,,,,,,,,,,,0,106,106,106,,,,,3,0.600304430168,2018_may._09_0027,60.0057303674,Experimento Piloto1,001,114,
0.25,Stim\\02_078.jpg,Al78_12,Alegría,12,Ana compra el libro.,Afirmación,Al78,78,,,,,,,,,,,,,0,107,107,107,,,,,3,2.33350677493,2018_may._09_0027,60.0057303674,Experimento Piloto1,001,114,
2.5,Stim\\02_028.jpg,Al28_7,Alegría,7,Roberto contesta los cuestionarios solicitados.,Afirmación,Al28,28,,,,,,,,,,,,,0,108,108,108,,,,,3,0.450288454502,2018_may._09_0027,60.0057303674,Experimento Piloto1,001,114,
0.25,Stim\\02_075.jpg,Al75_7,Alegría,7,Roberto contesta los cuestionarios solicitados.,Afirmación,Al75,75,,,,,,,,,,,,,0,109,109,109,,,,,3,0.583472413861,2018_may._09_0027,60.0057303674,Experimento Piloto1,001,114,
0.25,Stim\\05_075.jpg,En75_10,Enojo,10,Laura finaliza la obra.,Afirmación,En75,75,,,,,,,,,,,,,0,110,110,110,,,,,2,0.7504716838,2018_may._09_0027,60.0057303674,Experimento Piloto1,001,114,
2.5,Stim\\05_028.jpg,En28_8,Enojo,8,Estefanía despierta a las 7 a.m.,Afirmación,En28,28,,,,,,,,,,,,,0,111,111,111,,,,,2,1.2163529248,2018_may._09_0027,60.0057303674,Experimento Piloto1,001,114,
0.25,Stim\\03_075.jpg,Tr75_6,Tristeza,6,Eduardo camina hacia la biblioteca.,Afirmación,Tr75,75,,,,,,,,,,,,,0,112,112,112,,,,,4,0.750168235376,2018_may._09_0027,60.0057303674,Experimento Piloto1,001,114,
0.25,Stim\\02_078.jpg,Al78_4,Alegría,4,Jorge sustituye a Gustavo cada sábado.,Afirmación,Al78,78,,,,,,,,,,,,,0,113,113,113,,,,,3,1.06646636096,2018_may._09_0027,60.0057303674,Experimento Piloto1,001,114,
2.5,Stim\\02_019.jpg,Al19_13,Alegría,13,Rocío consume alimentos nutritivos.,Afirmación,Al19,19,,,,,,,,,,,,,0,114,114,114,,,,,3,0.700152348958,2018_may._09_0027,60.0057303674,Experimento Piloto1,001,114,
0.25,Stim\\02_078.jpg,Al78_15,Alegría,15,Ángel envía una carta a la abuela.,Afirmación,Al78,78,,,,,,,,,,,,,0,115,115,115,,,,,3,1.51677980533,2018_may._09_0027,60.0057303674,Experimento Piloto1,001,114,
2.5,Stim\\05_019.jpg,En19_4,Enojo,4,Jorge sustituye a Gustavo cada sábado.,Afirmación,En19,19,,,,,,,,,,,,,0,116,116,116,,,,,2,1.36680666944,2018_may._09_0027,60.0057303674,Experimento Piloto1,001,114,
2.5,Stim\\05_075.jpg,En75_9,Enojo,9,Marco colabora en la organización del evento.,Afirmación,En75,75,,,,,,,,,,,,,0,117,117,117,,,,,2,2.58313237313,2018_may._09_0027,60.0057303674,Experimento Piloto1,001,114,
0.25,Stim\\05_078.jpg,En78_8,Enojo,8,Estefanía despierta a las 7 a.m.,Afirmación,En78,78,,,,,,,,,,,,,0,118,118,118,,,,,2,0.916875213083,2018_may._09_0027,60.0057303674,Experimento Piloto1,001,114,
0.25,Stim\\03_075.jpg,Tr75_12,Tristeza,12,Ana compra el libro.,Afirmación,Tr75,75,,,,,,,,,,,,,0,119,119,119,,,,,4,1.00024945245,2018_may._09_0027,60.0057303674,Experimento Piloto1,001,114,
