Tiempo,ImagenesE,ClaveEn,Emocion,NumEn,Enunciado,ActoHabla,Clave,Cara,trials.thisRepN,trials.thisTrialN,trials.thisN,trials.thisIndex,Bloque3.thisRepN,Bloque3.thisTrialN,Bloque3.thisN,Bloque3.thisIndex,Bloque2.thisRepN,Bloque2.thisTrialN,Bloque2.thisN,Bloque2.thisIndex,Bloque1.thisRepN,Bloque1.thisTrialN,Bloque1.thisN,Bloque1.thisIndex,Resp_Bloque3.keys,Resp_Bloque3.rt,Resp_Bloque2.keys,Resp_Bloque2.rt,Resp_Bloque1.keys,Resp_Bloque1.rt,date,frameRate,expName,session,participant,
0.25,Stim\\02_075.jpg,Al75_11,Alegría,11,María asiste a la cena.,Afirmación,Al75,75,,,,,0,0,0,0,,,,,,,,,3,2.44929689215,,,,,2018_may._09_0124,60.0111939799,Experimento Piloto1,001,115,
2.5,Stim\\03_019.jpg,Tr19_9,Tristeza,9,Marco colabora en la organización del evento.,Afirmación,Tr19,19,,,,,0,1,1,1,,,,,,,,,3,2.33326580118,,,,,2018_may._09_0124,60.0111939799,Experimento Piloto1,001,115,
2.5,Stim\\02_075.jpg,Al75_8,Alegría,8,Estefanía despierta a las 7 a.m.,Afirmación,Al75,75,,,,,0,2,2,2,,,,,,,,,3,0.533673850065,,,,,2018_may._09_0124,60.0111939799,Experimento Piloto1,001,115,
2.5,Stim\\03_075.jpg,Tr75_13,Tristeza,13,Rocío consume alimentos nutritivos.,Afirmación,Tr75,75,,,,,0,3,3,3,,,,,,,,,2,0.483662872371,,,,,2018_may._09_0124,60.0111939799,Experimento Piloto1,001,115,
0.25,Stim\\03_019.jpg,Tr19_15,Tristeza,15,Ángel envía una carta a la abuela.,Afirmación,Tr19,19,,,,,0,4,4,4,,,,,,,,,4,4.64898692851,,,,,2018_may._09_0124,60.0111939799,Experimento Piloto1,001,115,
2.5,Stim\\05_075.jpg,En75_11,Enojo,11,María asiste a la cena.,Afirmación,En75,75,,,,,0,5,5,5,,,,,,,,,2,1.68319047457,,,,,2018_may._09_0124,60.0111939799,Experimento Piloto1,001,115,
0.25,Stim\\05_028.jpg,En28_4,Enojo,4,Jorge sustituye a Gustavo cada sábado.,Afirmación,En28,28,,,,,0,6,6,6,,,,,,,,,2,1.46668225559,,,,,2018_may._09_0124,60.0111939799,Experimento Piloto1,001,115,
2.5,Stim\\05_028.jpg,En28_9,Enojo,9,Marco colabora en la organización del evento.,Afirmación,En28,28,,,,,0,7,7,7,,,,,,,,,2,1.93289550486,,,,,2018_may._09_0124,60.0111939799,Experimento Piloto1,001,115,
2.5,Stim\\03_075.jpg,Tr75_9,Tristeza,9,Marco colabora en la organización del evento.,Afirmación,Tr75,75,,,,,0,8,8,8,,,,,,,,,4,0.916810060922,,,,,2018_may._09_0124,60.0111939799,Experimento Piloto1,001,115,
2.5,Stim\\05_028.jpg,En28_15,Enojo,15,Ángel envía una carta a la abuela.,Afirmación,En28,28,,,,,0,9,9,9,,,,,,,,,2,0.650329241539,,,,,2018_may._09_0124,60.0111939799,Experimento Piloto1,001,115,
0.25,Stim\\03_078.jpg,Tr78_8,Tristeza,8,Estefanía despierta a las 7 a.m.,Afirmación,Tr78,78,,,,,0,10,10,10,,,,,,,,,3,0.550319781089,,,,,2018_may._09_0124,60.0111939799,Experimento Piloto1,001,115,
0.25,Stim\\02_075.jpg,Al75_1,Alegría,1,Juan colecciona monedas antiguas.,Afirmación,Al75,75,,,,,0,11,11,11,,,,,,,,,3,1.06663905881,,,,,2018_may._09_0124,60.0111939799,Experimento Piloto1,001,115,
0.25,Stim\\05_078.jpg,En78_11,Enojo,11,María asiste a la cena.,Afirmación,En78,78,,,,,0,12,12,12,,,,,,,,,3,0.550211342902,,,,,2018_may._09_0124,60.0111939799,Experimento Piloto1,001,115,
2.5,Stim\\03_028.jpg,Tr28_15,Tristeza,15,Ángel envía una carta a la abuela.,Afirmación,Tr28,28,,,,,0,13,13,13,,,,,,,,,4,3.83258527347,,,,,2018_may._09_0124,60.0111939799,Experimento Piloto1,001,115,
2.5,Stim\\02_019.jpg,Al19_3,Alegría,3,Andrea diseña la portada del libro.,Afirmación,Al19,19,,,,,0,14,14,14,,,,,,,,,3,2.38310051104,,,,,2018_may._09_0124,60.0111939799,Experimento Piloto1,001,115,
2.5,Stim\\05_019.jpg,En19_5,Enojo,5,Emilio revisa el formato del archivo.,Afirmación,En19,19,,,,,0,15,15,15,,,,,,,,,2,2.39932875424,,,,,2018_may._09_0124,60.0111939799,Experimento Piloto1,001,115,
0.25,Stim\\02_028.jpg,Al28_11,Alegría,11,María asiste a la cena.,Afirmación,Al28,28,,,,,0,16,16,16,,,,,,,,,3,0.916553914752,,,,,2018_may._09_0124,60.0111939799,Experimento Piloto1,001,115,
0.25,Stim\\03_019.jpg,Tr19_11,Tristeza,11,María asiste a la cena.,Afirmación,Tr19,19,,,,,0,17,17,17,,,,,,,,,3,1.16696714011,,,,,2018_may._09_0124,60.0111939799,Experimento Piloto1,001,115,
2.5,Stim\\03_078.jpg,Tr78_14,Tristeza,14,Elizabeth elige la ropa un día antes.,Afirmación,Tr78,78,,,,,0,18,18,18,,,,,,,,,3,0.866836568034,,,,,2018_may._09_0124,60.0111939799,Experimento Piloto1,001,115,
0.25,Stim\\02_019.jpg,Al19_9,Alegría,9,Marco colabora en la organización del evento.,Afirmación,Al19,19,,,,,0,19,19,19,,,,,,,,,2,1.86660184175,,,,,2018_may._09_0124,60.0111939799,Experimento Piloto1,001,115,
2.5,Stim\\02_075.jpg,Al75_11,Alegría,11,María asiste a la cena.,Afirmación,Al75,75,,,,,0,20,20,20,,,,,,,,,3,3.16621030404,,,,,2018_may._09_0124,60.0111939799,Experimento Piloto1,001,115,
0.25,Stim\\02_028.jpg,Al28_4,Alegría,4,Jorge sustituye a Gustavo cada sábado.,Afirmación,Al28,28,,,,,0,21,21,21,,,,,,,,,2,1.10012771609,,,,,2018_may._09_0124,60.0111939799,Experimento Piloto1,001,115,
2.5,Stim\\02_075.jpg,Al75_10,Alegría,10,Laura finaliza la obra.,Afirmación,Al75,75,,,,,0,22,22,22,,,,,,,,,3,1.56679033677,,,,,2018_may._09_0124,60.0111939799,Experimento Piloto1,001,115,
0.25,Stim\\05_075.jpg,En75_4,Enojo,4,Jorge sustituye a Gustavo cada sábado.,Afirmación,En75,75,,,,,0,23,23,23,,,,,,,,,2,0.600320048838,,,,,2018_may._09_0124,60.0111939799,Experimento Piloto1,001,115,
2.5,Stim\\02_028.jpg,Al28_11,Alegría,11,María asiste a la cena.,Afirmación,Al28,28,,,,,0,24,24,24,,,,,,,,,2,0.433691164475,,,,,2018_may._09_0124,60.0111939799,Experimento Piloto1,001,115,
0.25,Stim\\02_078.jpg,Al78_1,Alegría,1,Juan colecciona monedas antiguas.,Afirmación,Al78,78,,,,,0,25,25,25,,,,,,,,,3,0.283709103631,,,,,2018_may._09_0124,60.0111939799,Experimento Piloto1,001,115,
2.5,Stim\\02_019.jpg,Al19_7,Alegría,7,Roberto contesta los cuestionarios solicitados.,Afirmación,Al19,19,,,,,0,26,26,26,,,,,,,,,2,0.299984202832,,,,,2018_may._09_0124,60.0111939799,Experimento Piloto1,001,115,
0.25,Stim\\05_028.jpg,En28_15,Enojo,15,Ángel envía una carta a la abuela.,Afirmación,En28,28,,,,,0,27,27,27,,,,,,,,,2,0.650319424091,,,,,2018_may._09_0124,60.0111939799,Experimento Piloto1,001,115,
0.25,Stim\\03_075.jpg,Tr75_2,Tristeza,2,Jonathan pasea al perro.,Afirmación,Tr75,75,,,,,0,28,28,28,,,,,,,,,2,0.449878352882,,,,,2018_may._09_0124,60.0111939799,Experimento Piloto1,001,115,
0.25,Stim\\05_075.jpg,En75_3,Enojo,3,Andrea diseña la portada del libro.,Afirmación,En75,75,,,,,0,29,29,29,,,,,,,,,2,0.750157079184,,,,,2018_may._09_0124,60.0111939799,Experimento Piloto1,001,115,
2.5,Stim\\05_028.jpg,En28_10,Enojo,10,Laura finaliza la obra.,Afirmación,En28,28,,,,,0,30,30,30,,,,,,,,,2,0.400277030561,,,,,2018_may._09_0124,60.0111939799,Experimento Piloto1,001,115,
0.25,Stim\\05_019.jpg,En19_4,Enojo,4,Jorge sustituye a Gustavo cada sábado.,Afirmación,En19,19,,,,,0,31,31,31,,,,,,,,,2,0.550276941311,,,,,2018_may._09_0124,60.0111939799,Experimento Piloto1,001,115,
2.5,Stim\\02_078.jpg,Al78_1,Alegría,1,Juan colecciona monedas antiguas.,Afirmación,Al78,78,,,,,0,32,32,32,,,,,,,,,3,1.0168244301,,,,,2018_may._09_0124,60.0111939799,Experimento Piloto1,001,115,
0.25,Stim\\05_075.jpg,En75_6,Enojo,6,Eduardo camina hacia la biblioteca.,Afirmación,En75,75,,,,,0,33,33,33,,,,,,,,,2,0.70030228818,,,,,2018_may._09_0124,60.0111939799,Experimento Piloto1,001,115,
2.5,Stim\\02_019.jpg,Al19_12,Alegría,12,Ana compra el libro.,Afirmación,Al19,19,,,,,0,34,34,34,,,,,,,,,4,0.500299878442,,,,,2018_may._09_0124,60.0111939799,Experimento Piloto1,001,115,
0.25,Stim\\05_075.jpg,En75_8,Enojo,8,Estefanía despierta a las 7 a.m.,Afirmación,En75,75,,,,,0,35,35,35,,,,,,,,,3,0.500269087352,,,,,2018_may._09_0124,60.0111939799,Experimento Piloto1,001,115,
2.5,Stim\\03_028.jpg,Tr28_4,Tristeza,4,Jorge sustituye a Gustavo cada sábado.,Afirmación,Tr28,28,,,,,0,36,36,36,,,,,,,,,4,0.450339326738,,,,,2018_may._09_0124,60.0111939799,Experimento Piloto1,001,115,
0.25,Stim\\03_078.jpg,Tr78_12,Tristeza,12,Ana compra el libro.,Afirmación,Tr78,78,,,,,0,37,37,37,,,,,,,,,4,0.749942434049,,,,,2018_may._09_0124,60.0111939799,Experimento Piloto1,001,115,
2.5,Stim\\03_019.jpg,Tr19_3,Tristeza,3,Andrea diseña la portada del libro.,Afirmación,Tr19,19,,,,,0,38,38,38,,,,,,,,,3,0.333822272043,,,,,2018_may._09_0124,60.0111939799,Experimento Piloto1,001,115,
2.5,Stim\\05_075.jpg,En75_4,Enojo,4,Jorge sustituye a Gustavo cada sábado.,Afirmación,En75,75,,,,,0,39,39,39,,,,,,,,,2,1.36681916437,,,,,2018_may._09_0124,60.0111939799,Experimento Piloto1,001,115,
0.25,Stim\\05_078.jpg,En78_6,Enojo,6,Eduardo camina hacia la biblioteca.,Afirmación,En78,78,,,,,0,40,40,40,,,,,,,,,3,1.00010933068,,,,,2018_may._09_0124,60.0111939799,Experimento Piloto1,001,115,
0.25,Stim\\03_078.jpg,Tr78_3,Tristeza,3,Andrea diseña la portada del libro.,Afirmación,Tr78,78,,,,,0,41,41,41,,,,,,,,,4,0.916675294122,,,,,2018_may._09_0124,60.0111939799,Experimento Piloto1,001,115,
0.25,Stim\\05_078.jpg,En78_15,Enojo,15,Ángel envía una carta a la abuela.,Afirmación,En78,78,,,,,0,42,42,42,,,,,,,,,4,0.450278637053,,,,,2018_may._09_0124,60.0111939799,Experimento Piloto1,001,115,
2.5,Stim\\05_078.jpg,En78_2,Enojo,2,Jonathan pasea al perro.,Afirmación,En78,78,,,,,0,43,43,43,,,,,,,,,4,0.38382878726,,,,,2018_may._09_0124,60.0111939799,Experimento Piloto1,001,115,
2.5,Stim\\02_078.jpg,Al78_4,Alegría,4,Jorge sustituye a Gustavo cada sábado.,Afirmación,Al78,78,,,,,0,44,44,44,,,,,,,,,2,0.500219107612,,,,,2018_may._09_0124,60.0111939799,Experimento Piloto1,001,115,
2.5,Stim\\05_078.jpg,En78_4,Enojo,4,Jorge sustituye a Gustavo cada sábado.,Afirmación,En78,78,,,,,0,45,45,45,,,,,,,,,2,4.53229628347,,,,,2018_may._09_0124,60.0111939799,Experimento Piloto1,001,115,
0.25,Stim\\05_019.jpg,En19_9,Enojo,9,Marco colabora en la organización del evento.,Afirmación,En19,19,,,,,0,46,46,46,,,,,,,,,2,0.550267570109,,,,,2018_may._09_0124,60.0111939799,Experimento Piloto1,001,115,
0.25,Stim\\05_019.jpg,En19_15,Enojo,15,Ángel envía una carta a la abuela.,Afirmación,En19,19,,,,,0,47,47,47,,,,,,,,,2,0.550301038686,,,,,2018_may._09_0124,60.0111939799,Experimento Piloto1,001,115,
2.5,Stim\\02_028.jpg,Al28_2,Alegría,2,Jonathan pasea al perro.,Afirmación,Al28,28,,,,,0,48,48,48,,,,,,,,,3,1.5832622312,,,,,2018_may._09_0124,60.0111939799,Experimento Piloto1,001,115,
0.25,Stim\\03_075.jpg,Tr75_1,Tristeza,1,Juan colecciona monedas antiguas.,Afirmación,Tr75,75,,,,,0,49,49,49,,,,,,,,,3,0.483691432223,,,,,2018_may._09_0124,60.0111939799,Experimento Piloto1,001,115,
2.5,Stim\\02_028.jpg,Al28_12,Alegría,12,Ana compra el libro.,Afirmación,Al28,28,,,,,0,50,50,50,,,,,,,,,3,0.700230888551,,,,,2018_may._09_0124,60.0111939799,Experimento Piloto1,001,115,
0.25,Stim\\05_019.jpg,En19_5,Enojo,5,Emilio revisa el formato del archivo.,Afirmación,En19,19,,,,,0,51,51,51,,,,,,,,,2,1.41675784994,,,,,2018_may._09_0124,60.0111939799,Experimento Piloto1,001,115,
0.25,Stim\\02_075.jpg,Al75_9,Alegría,9,Marco colabora en la organización del evento.,Afirmación,Al75,75,,,,,0,52,52,52,,,,,,,,,3,0.483731148267,,,,,2018_may._09_0124,60.0111939799,Experimento Piloto1,001,115,
2.5,Stim\\03_019.jpg,Tr19_12,Tristeza,12,Ana compra el libro.,Afirmación,Tr19,19,,,,,0,53,53,53,,,,,,,,,2,1.01647635691,,,,,2018_may._09_0124,60.0111939799,Experimento Piloto1,001,115,
2.5,Stim\\02_019.jpg,Al19_4,Alegría,4,Jorge sustituye a Gustavo cada sábado.,Afirmación,Al19,19,,,,,0,54,54,54,,,,,,,,,2,0.6002888115,,,,,2018_may._09_0124,60.0111939799,Experimento Piloto1,001,115,
0.25,Stim\\02_019.jpg,Al19_12,Alegría,12,Ana compra el libro.,Afirmación,Al19,19,,,,,0,55,55,55,,,,,,,,,2,0.300392073214,,,,,2018_may._09_0124,60.0111939799,Experimento Piloto1,001,115,
2.5,Stim\\02_078.jpg,Al78_7,Alegría,7,Roberto contesta los cuestionarios solicitados.,Afirmación,Al78,78,,,,,0,56,56,56,,,,,,,,,4,0.333632170531,,,,,2018_may._09_0124,60.0111939799,Experimento Piloto1,001,115,
2.5,Stim\\03_078.jpg,Tr78_13,Tristeza,13,Rocío consume alimentos nutritivos.,Afirmación,Tr78,78,,,,,0,57,57,57,,,,,,,,,3,0.283756852134,,,,,2018_may._09_0124,60.0111939799,Experimento Piloto1,001,115,
2.5,Stim\\02_075.jpg,Al75_9,Alegría,9,Marco colabora en la organización del evento.,Afirmación,Al75,75,,,,,0,58,58,58,,,,,,,,,3,0.50066803278,,,,,2018_may._09_0124,60.0111939799,Experimento Piloto1,001,115,
0.25,Stim\\02_028.jpg,Al28_5,Alegría,5,Emilio revisa el formato del archivo.,Afirmación,Al28,28,,,,,0,59,59,59,,,,,,,,,3,0.300358604637,,,,,2018_may._09_0124,60.0111939799,Experimento Piloto1,001,115,
2.5,Stim\\03_028.jpg,Tr28_7,Tristeza,7,Roberto contesta los cuestionarios solicitados.,Afirmación,Tr28,28,,,,,0,60,60,60,,,,,,,,,4,0.350072381374,,,,,2018_may._09_0124,60.0111939799,Experimento Piloto1,001,115,
0.25,Stim\\05_078.jpg,En78_7,Enojo,7,Roberto contesta los cuestionarios solicitados.,Afirmación,En78,78,,,,,0,61,61,61,,,,,,,,,4,0.300323797318,,,,,2018_may._09_0124,60.0111939799,Experimento Piloto1,001,115,
2.5,Stim\\03_028.jpg,Tr28_5,Tristeza,5,Emilio revisa el formato del archivo.,Afirmación,Tr28,28,,,,,0,62,62,62,,,,,,,,,4,0.350353071166,,,,,2018_may._09_0124,60.0111939799,Experimento Piloto1,001,115,
0.25,Stim\\02_019.jpg,Al19_13,Alegría,13,Rocío consume alimentos nutritivos.,Afirmación,Al19,19,,,,,0,63,63,63,,,,,,,,,3,0.300358604637,,,,,2018_may._09_0124,60.0111939799,Experimento Piloto1,001,115,
2.5,Stim\\05_019.jpg,En19_13,Enojo,13,Rocío consume alimentos nutritivos.,Afirmación,En19,19,,,,,0,64,64,64,,,,,,,,,3,0.333380933086,,,,,2018_may._09_0124,60.0111939799,Experimento Piloto1,001,115,
2.5,Stim\\03_078.jpg,Tr78_4,Tristeza,4,Jorge sustituye a Gustavo cada sábado.,Afirmación,Tr78,78,,,,,0,65,65,65,,,,,,,,,4,0.383733290256,,,,,2018_may._09_0124,60.0111939799,Experimento Piloto1,001,115,
0.25,Stim\\05_028.jpg,En28_13,Enojo,13,Rocío consume alimentos nutritivos.,Afirmación,En28,28,,,,,0,66,66,66,,,,,,,,,3,0.450472308547,,,,,2018_may._09_0124,60.0111939799,Experimento Piloto1,001,115,
0.25,Stim\\02_075.jpg,Al75_4,Alegría,4,Jorge sustituye a Gustavo cada sábado.,Afirmación,Al75,75,,,,,0,67,67,67,,,,,,,,,3,0.250395375447,,,,,2018_may._09_0124,60.0111939799,Experimento Piloto1,001,115,
0.25,Stim\\03_019.jpg,Tr19_14,Tristeza,14,Elizabeth elige la ropa un día antes.,Afirmación,Tr19,19,,,,,0,68,68,68,,,,,,,,,3,0.450440178713,,,,,2018_may._09_0124,60.0111939799,Experimento Piloto1,001,115,
2.5,Stim\\02_075.jpg,Al75_4,Alegría,4,Jorge sustituye a Gustavo cada sábado.,Afirmación,Al75,75,,,,,0,69,69,69,,,,,,,,,4,0.400314069118,,,,,2018_may._09_0124,60.0111939799,Experimento Piloto1,001,115,
2.5,Stim\\05_078.jpg,En78_7,Enojo,7,Roberto contesta los cuestionarios solicitados.,Afirmación,En78,78,,,,,0,70,70,70,,,,,,,,,4,0.333791927202,,,,,2018_may._09_0124,60.0111939799,Experimento Piloto1,001,115,
2.5,Stim\\05_028.jpg,En28_6,Enojo,6,Eduardo camina hacia la biblioteca.,Afirmación,En28,28,,,,,0,71,71,71,,,,,,,,,3,0.49996340769,,,,,2018_may._09_0124,60.0111939799,Experimento Piloto1,001,115,
2.5,Stim\\05_028.jpg,En28_7,Enojo,7,Roberto contesta los cuestionarios solicitados.,Afirmación,En28,28,,,,,0,72,72,72,,,,,,,,,3,0.333902596626,,,,,2018_may._09_0124,60.0111939799,Experimento Piloto1,001,115,
2.5,Stim\\03_028.jpg,Tr28_14,Tristeza,14,Elizabeth elige la ropa un día antes.,Afirmación,Tr28,28,,,,,0,73,73,73,,,,,,,,,3,0.350395018449,,,,,2018_may._09_0124,60.0111939799,Experimento Piloto1,001,115,
2.5,Stim\\02_019.jpg,Al19_11,Alegría,11,María asiste a la cena.,Afirmación,Al19,19,,,,,0,74,74,74,,,,,,,,,3,0.383783716244,,,,,2018_may._09_0124,60.0111939799,Experimento Piloto1,001,115,
0.25,Stim\\05_028.jpg,En28_7,Enojo,7,Roberto contesta los cuestionarios solicitados.,Afirmación,En28,28,,,,,0,75,75,75,,,,,,,,,3,0.283825574276,,,,,2018_may._09_0124,60.0111939799,Experimento Piloto1,001,115,
0.25,Stim\\05_078.jpg,En78_13,Enojo,13,Rocío consume alimentos nutritivos.,Afirmación,En78,78,,,,,0,76,76,76,,,,,,,,,3,0.133796211178,,,,,2018_may._09_0124,60.0111939799,Experimento Piloto1,001,115,
0.25,Stim\\03_028.jpg,Tr28_14,Tristeza,14,Elizabeth elige la ropa un día antes.,Afirmación,Tr28,28,,,,,0,77,77,77,,,,,,,,,3,0.383654750663,,,,,2018_may._09_0124,60.0111939799,Experimento Piloto1,001,115,
2.5,Stim\\03_075.jpg,Tr75_14,Tristeza,14,Elizabeth elige la ropa un día antes.,Afirmación,Tr75,75,,,,,0,78,78,78,,,,,,,,,4,0.700252754687,,,,,2018_may._09_0124,60.0111939799,Experimento Piloto1,001,115,
0.25,Stim\\05_019.jpg,En19_10,Enojo,10,Laura finaliza la obra.,Afirmación,En19,19,,,,,0,79,79,79,,,,,,,,,3,0.400330580283,,,,,2018_may._09_0124,60.0111939799,Experimento Piloto1,001,115,
0.25,Stim\\05_078.jpg,En78_9,Enojo,9,Marco colabora en la organización del evento.,Afirmación,En78,78,,,,,0,80,80,80,,,,,,,,,2,0.283887156456,,,,,2018_may._09_0124,60.0111939799,Experimento Piloto1,001,115,
0.25,Stim\\02_028.jpg,Al28_6,Alegría,6,Eduardo camina hacia la biblioteca.,Afirmación,Al28,28,,,,,0,81,81,81,,,,,,,,,3,0.400175732337,,,,,2018_may._09_0124,60.0111939799,Experimento Piloto1,001,115,
0.25,Stim\\05_078.jpg,En78_12,Enojo,12,Ana compra el libro.,Afirmación,En78,78,,,,,0,82,82,82,,,,,,,,,3,0.400276138065,,,,,2018_may._09_0124,60.0111939799,Experimento Piloto1,001,115,
2.5,Stim\\05_075.jpg,En75_1,Enojo,1,Juan colecciona monedas antiguas.,Afirmación,En75,75,,,,,0,83,83,83,,,,,,,,,3,0.283849671651,,,,,2018_may._09_0124,60.0111939799,Experimento Piloto1,001,115,
0.25,Stim\\03_019.jpg,Tr19_13,Tristeza,13,Rocío consume alimentos nutritivos.,Afirmación,Tr19,19,,,,,0,84,84,84,,,,,,,,,3,0.550301484934,,,,,2018_may._09_0124,60.0111939799,Experimento Piloto1,001,115,
2.5,Stim\\03_078.jpg,Tr78_11,Tristeza,11,María asiste a la cena.,Afirmación,Tr78,78,,,,,0,85,85,85,,,,,,,,,3,0.500170466615,,,,,2018_may._09_0124,60.0111939799,Experimento Piloto1,001,115,
2.5,Stim\\05_019.jpg,En19_1,Enojo,1,Juan colecciona monedas antiguas.,Afirmación,En19,19,,,,,0,86,86,86,,,,,,,,,3,0.133660105635,,,,,2018_may._09_0124,60.0111939799,Experimento Piloto1,001,115,
0.25,Stim\\02_075.jpg,Al75_10,Alegría,10,Laura finaliza la obra.,Afirmación,Al75,75,,,,,0,87,87,87,,,,,,,,,3,0.350302645178,,,,,2018_may._09_0124,60.0111939799,Experimento Piloto1,001,115,
2.5,Stim\\02_019.jpg,Al19_14,Alegría,14,Elizabeth elige la ropa un día antes.,Afirmación,Al19,19,,,,,0,88,88,88,,,,,,,,,2,0.400113257661,,,,,2018_may._09_0124,60.0111939799,Experimento Piloto1,001,115,
0.25,Stim\\03_028.jpg,Tr28_6,Tristeza,6,Eduardo camina hacia la biblioteca.,Afirmación,Tr28,28,,,,,0,89,89,89,,,,,,,,,3,0.433631367286,,,,,2018_may._09_0124,60.0111939799,Experimento Piloto1,001,115,
0.25,Stim\\02_075.jpg,Al75_8,Alegría,8,Estefanía despierta a las 7 a.m.,Afirmación,Al75,75,,,,,0,90,90,90,,,,,,,,,3,0.966813006156,,,,,2018_may._09_0124,60.0111939799,Experimento Piloto1,001,115,
2.5,Stim\\02_019.jpg,Al19_6,Alegría,6,Eduardo camina hacia la biblioteca.,Afirmación,Al19,19,,,,,0,91,91,91,,,,,,,,,3,0.383877428257,,,,,2018_may._09_0124,60.0111939799,Experimento Piloto1,001,115,
2.5,Stim\\03_078.jpg,Tr78_7,Tristeza,7,Roberto contesta los cuestionarios solicitados.,Afirmación,Tr78,78,,,,,0,92,92,92,,,,,,,,,4,0.300256860166,,,,,2018_may._09_0124,60.0111939799,Experimento Piloto1,001,115,
2.5,Stim\\02_028.jpg,Al28_8,Alegría,8,Estefanía despierta a las 7 a.m.,Afirmación,Al28,28,,,,,0,93,93,93,,,,,,,,,3,0.500306572158,,,,,2018_may._09_0124,60.0111939799,Experimento Piloto1,001,115,
0.25,Stim\\03_075.jpg,Tr75_13,Tristeza,13,Rocío consume alimentos nutritivos.,Afirmación,Tr75,75,,,,,0,94,94,94,,,,,,,,,3,0.350470880554,,,,,2018_may._09_0124,60.0111939799,Experimento Piloto1,001,115,
2.5,Stim\\02_075.jpg,Al75_6,Alegría,6,Eduardo camina hacia la biblioteca.,Afirmación,Al75,75,,,,,0,95,95,95,,,,,,,,,3,0.283756405885,,,,,2018_may._09_0124,60.0111939799,Experimento Piloto1,001,115,
0.25,Stim\\02_028.jpg,Al28_9,Alegría,9,Marco colabora en la organización del evento.,Afirmación,Al28,28,,,,,0,96,96,96,,,,,,,,,2,0.7002790833,,,,,2018_may._09_0124,60.0111939799,Experimento Piloto1,001,115,
0.25,Stim\\02_019.jpg,Al19_8,Alegría,8,Estefanía despierta a las 7 a.m.,Afirmación,Al19,19,,,,,0,97,97,97,,,,,,,,,2,0.400318085348,,,,,2018_may._09_0124,60.0111939799,Experimento Piloto1,001,115,
2.5,Stim\\02_019.jpg,Al19_1,Alegría,1,Juan colecciona monedas antiguas.,Afirmación,Al19,19,,,,,0,98,98,98,,,,,,,,,3,0.450345574204,,,,,2018_may._09_0124,60.0111939799,Experimento Piloto1,001,115,
0.25,Stim\\02_019.jpg,Al19_5,Alegría,5,Emilio revisa el formato del archivo.,Afirmación,Al19,19,,,,,0,99,99,99,,,,,,,,,2,1.26651250297,,,,,2018_may._09_0124,60.0111939799,Experimento Piloto1,001,115,
2.5,Stim\\02_078.jpg,Al78_13,Alegría,13,Rocío consume alimentos nutritivos.,Afirmación,Al78,78,,,,,0,100,100,100,,,,,,,,,3,0.700193849993,,,,,2018_may._09_0124,60.0111939799,Experimento Piloto1,001,115,
2.5,Stim\\05_078.jpg,En78_12,Enojo,12,Ana compra el libro.,Afirmación,En78,78,,,,,0,101,101,101,,,,,,,,,3,0.500295862213,,,,,2018_may._09_0124,60.0111939799,Experimento Piloto1,001,115,
2.5,Stim\\03_075.jpg,Tr75_11,Tristeza,11,María asiste a la cena.,Afirmación,Tr75,75,,,,,0,102,102,102,,,,,,,,,3,0.950325493059,,,,,2018_may._09_0124,60.0111939799,Experimento Piloto1,001,115,
0.25,Stim\\02_078.jpg,Al78_13,Alegría,13,Rocío consume alimentos nutritivos.,Afirmación,Al78,78,,,,,0,103,103,103,,,,,,,,,3,0.300332276024,,,,,2018_may._09_0124,60.0111939799,Experimento Piloto1,001,115,
0.25,Stim\\03_075.jpg,Tr75_11,Tristeza,11,María asiste a la cena.,Afirmación,Tr75,75,,,,,0,104,104,104,,,,,,,,,3,0.23374989067,,,,,2018_may._09_0124,60.0111939799,Experimento Piloto1,001,115,
2.5,Stim\\05_075.jpg,En75_8,Enojo,8,Estefanía despierta a las 7 a.m.,Afirmación,En75,75,,,,,0,105,105,105,,,,,,,,,2,1.73316575245,,,,,2018_may._09_0124,60.0111939799,Experimento Piloto1,001,115,
2.5,Stim\\03_078.jpg,Tr78_2,Tristeza,2,Jonathan pasea al perro.,Afirmación,Tr78,78,,,,,0,106,106,106,,,,,,,,,4,1.98327062066,,,,,2018_may._09_0124,60.0111939799,Experimento Piloto1,001,115,
2.5,Stim\\03_078.jpg,Tr78_12,Tristeza,12,Ana compra el libro.,Afirmación,Tr78,78,,,,,0,107,107,107,,,,,,,,,4,1.76657185391,,,,,2018_may._09_0124,60.0111939799,Experimento Piloto1,001,115,
2.5,Stim\\05_019.jpg,En19_10,Enojo,10,Laura finaliza la obra.,Afirmación,En19,19,,,,,0,108,108,108,,,,,,,,,2,2.24971574023,,,,,2018_may._09_0124,60.0111939799,Experimento Piloto1,001,115,
2.5,Stim\\05_078.jpg,En78_15,Enojo,15,Ángel envía una carta a la abuela.,Afirmación,En78,78,,,,,0,109,109,109,,,,,,,,,3,1.86666431643,,,,,2018_may._09_0124,60.0111939799,Experimento Piloto1,001,115,
0.25,Stim\\02_028.jpg,Al28_15,Alegría,15,Ángel envía una carta a la abuela.,Afirmación,Al28,28,,,,,0,110,110,110,,,,,,,,,3,0.250339148239,,,,,2018_may._09_0124,60.0111939799,Experimento Piloto1,001,115,
2.5,Stim\\02_075.jpg,Al75_13,Alegría,13,Rocío consume alimentos nutritivos.,Afirmación,Al75,75,,,,,0,111,111,111,,,,,,,,,2,0.450375919047,,,,,2018_may._09_0124,60.0111939799,Experimento Piloto1,001,115,
2.5,Stim\\02_078.jpg,Al78_5,Alegría,5,Emilio revisa el formato del archivo.,Afirmación,Al78,78,,,,,0,112,112,112,,,,,,,,,2,0.950010888443,,,,,2018_may._09_0124,60.0111939799,Experimento Piloto1,001,115,
2.5,Stim\\05_019.jpg,En19_12,Enojo,12,Ana compra el libro.,Afirmación,En19,19,,,,,0,113,113,113,,,,,,,,,2,0.333687951491,,,,,2018_may._09_0124,60.0111939799,Experimento Piloto1,001,115,
2.5,Stim\\03_028.jpg,Tr28_13,Tristeza,13,Rocío consume alimentos nutritivos.,Afirmación,Tr28,28,,,,,0,114,114,114,,,,,,,,,2,1.31679569175,,,,,2018_may._09_0124,60.0111939799,Experimento Piloto1,001,115,
2.5,Stim\\02_075.jpg,Al75_1,Alegría,1,Juan colecciona monedas antiguas.,Afirmación,Al75,75,,,,,0,115,115,115,,,,,,,,,3,0.800009192702,,,,,2018_may._09_0124,60.0111939799,Experimento Piloto1,001,115,
2.5,Stim\\02_028.jpg,Al28_3,Alegría,3,Andrea diseña la portada del libro.,Afirmación,Al28,28,,,,,0,116,116,116,,,,,,,,,3,0.28383628422,,,,,2018_may._09_0124,60.0111939799,Experimento Piloto1,001,115,
0.25,Stim\\05_028.jpg,En28_10,Enojo,10,Laura finaliza la obra.,Afirmación,En28,28,,,,,0,117,117,117,,,,,,,,,3,0.233835123977,,,,,2018_may._09_0124,60.0111939799,Experimento Piloto1,001,115,
0.25,Stim\\02_078.jpg,Al78_3,Alegría,3,Andrea diseña la portada del libro.,Afirmación,Al78,78,,,,,0,118,118,118,,,,,,,,,3,0.234052892844,,,,,2018_may._09_0124,60.0111939799,Experimento Piloto1,001,115,
2.5,Stim\\03_075.jpg,Tr75_15,Tristeza,15,Ángel envía una carta a la abuela.,Afirmación,Tr75,75,,,,,0,119,119,119,,,,,,,,,3,0.283675635055,,,,,2018_may._09_0124,60.0111939799,Experimento Piloto1,001,115,
2.5,Stim\\03_028.jpg,Tr28_1,Tristeza,1,Juan colecciona monedas antiguas.,Afirmación,Tr28,28,,,,,,,,,0,0,0,0,,,,,,,4,0.333810223356,,,2018_may._09_0124,60.0111939799,Experimento Piloto1,001,115,
0.25,Stim\\03_019.jpg,Tr19_1,Tristeza,1,Juan colecciona monedas antiguas.,Afirmación,Tr19,19,,,,,,,,,0,1,1,1,,,,,,,4,0.400233298287,,,2018_may._09_0124,60.0111939799,Experimento Piloto1,001,115,
2.5,Stim\\03_078.jpg,Tr78_10,Tristeza,10,Laura finaliza la obra.,Afirmación,Tr78,78,,,,,,,,,0,2,2,2,,,,,,,4,5.78204638477,,,2018_may._09_0124,60.0111939799,Experimento Piloto1,001,115,
0.25,Stim\\02_075.jpg,Al75_5,Alegría,5,Emilio revisa el formato del archivo.,Afirmación,Al75,75,,,,,,,,,0,3,3,3,,,,,,,3,0.350327635048,,,2018_may._09_0124,60.0111939799,Experimento Piloto1,001,115,
0.25,Stim\\02_019.jpg,Al19_15,Alegría,15,Ángel envía una carta a la abuela.,Afirmación,Al19,19,,,,,,,,,0,4,4,4,,,,,,,3,0.333660730383,,,2018_may._09_0124,60.0111939799,Experimento Piloto1,001,115,
2.5,Stim\\02_075.jpg,Al75_7,Alegría,7,Roberto contesta los cuestionarios solicitados.,Afirmación,Al75,75,,,,,,,,,0,5,5,5,,,,,,,4,2.3994894034,,,2018_may._09_0124,60.0111939799,Experimento Piloto1,001,115,
0.25,Stim\\03_075.jpg,Tr75_8,Tristeza,8,Estefanía despierta a las 7 a.m.,Afirmación,Tr75,75,,,,,,,,,0,6,6,6,,,,,,,3,0.35028479527,,,2018_may._09_0124,60.0111939799,Experimento Piloto1,001,115,
0.25,Stim\\02_019.jpg,Al19_11,Alegría,11,María asiste a la cena.,Afirmación,Al19,19,,,,,,,,,0,7,7,7,,,,,,,3,0.250400730418,,,2018_may._09_0124,60.0111939799,Experimento Piloto1,001,115,
2.5,Stim\\02_019.jpg,Al19_2,Alegría,2,Jonathan pasea al perro.,Afirmación,Al19,19,,,,,,,,,0,8,8,8,,,,,,,3,0.900288186753,,,2018_may._09_0124,60.0111939799,Experimento Piloto1,001,115,
2.5,Stim\\05_075.jpg,En75_5,Enojo,5,Emilio revisa el formato del archivo.,Afirmación,En75,75,,,,,,,,,0,9,9,9,,,,,,,2,0.499980365103,,,2018_may._09_0124,60.0111939799,Experimento Piloto1,001,115,
0.25,Stim\\03_078.jpg,Tr78_10,Tristeza,10,Laura finaliza la obra.,Afirmación,Tr78,78,,,,,,,,,0,10,10,10,,,,,,,3,0.383822539792,,,2018_may._09_0124,60.0111939799,Experimento Piloto1,001,115,
0.25,Stim\\02_019.jpg,Al19_6,Alegría,6,Eduardo camina hacia la biblioteca.,Afirmación,Al19,19,,,,,,,,,0,11,11,11,,,,,,,3,0.133817184819,,,2018_may._09_0124,60.0111939799,Experimento Piloto1,001,115,
2.5,Stim\\05_019.jpg,En19_3,Enojo,3,Andrea diseña la portada del libro.,Afirmación,En19,19,,,,,,,,,0,12,12,12,,,,,,,3,2.13324955777,,,2018_may._09_0124,60.0111939799,Experimento Piloto1,001,115,
0.25,Stim\\05_019.jpg,En19_3,Enojo,3,Andrea diseña la portada del libro.,Afirmación,En19,19,,,,,,,,,0,13,13,13,,,,,,,3,0.300334507262,,,2018_may._09_0124,60.0111939799,Experimento Piloto1,001,115,
2.5,Stim\\02_028.jpg,Al28_1,Alegría,1,Juan colecciona monedas antiguas.,Afirmación,Al28,28,,,,,,,,,0,14,14,14,,,,,,,3,0.300402336909,,,2018_may._09_0124,60.0111939799,Experimento Piloto1,001,115,
0.25,Stim\\02_019.jpg,Al19_2,Alegría,2,Jonathan pasea al perro.,Afirmación,Al19,19,,,,,,,,,0,15,15,15,,,,,,,3,0.300239010258,,,2018_may._09_0124,60.0111939799,Experimento Piloto1,001,115,
0.25,Stim\\05_028.jpg,En28_11,Enojo,11,María asiste a la cena.,Afirmación,En28,28,,,,,,,,,0,16,16,16,,,,,,,2,0.750249898702,,,2018_may._09_0124,60.0111939799,Experimento Piloto1,001,115,
0.25,Stim\\03_028.jpg,Tr28_1,Tristeza,1,Juan colecciona monedas antiguas.,Afirmación,Tr28,28,,,,,,,,,0,17,17,17,,,,,,,3,0.283707318641,,,2018_may._09_0124,60.0111939799,Experimento Piloto1,001,115,
0.25,Stim\\03_078.jpg,Tr78_1,Tristeza,1,Juan colecciona monedas antiguas.,Afirmación,Tr78,78,,,,,,,,,0,18,18,18,,,,,,,3,0.233611553887,,,2018_may._09_0124,60.0111939799,Experimento Piloto1,001,115,
0.25,Stim\\02_019.jpg,Al19_1,Alegría,1,Juan colecciona monedas antiguas.,Afirmación,Al19,19,,,,,,,,,0,19,19,19,,,,,,,3,0.483575854074,,,2018_may._09_0124,60.0111939799,Experimento Piloto1,001,115,
0.25,Stim\\02_019.jpg,Al19_10,Alegría,10,Laura finaliza la obra.,Afirmación,Al19,19,,,,,,,,,0,20,20,20,,,,,,,3,0.333717403839,,,2018_may._09_0124,60.0111939799,Experimento Piloto1,001,115,
2.5,Stim\\03_019.jpg,Tr19_13,Tristeza,13,Rocío consume alimentos nutritivos.,Afirmación,Tr19,19,,,,,,,,,0,21,21,21,,,,,,,4,5.51578154926,,,2018_may._09_0124,60.0111939799,Experimento Piloto1,001,115,
2.5,Stim\\05_075.jpg,En75_6,Enojo,6,Eduardo camina hacia la biblioteca.,Afirmación,En75,75,,,,,,,,,0,22,22,22,,,,,,,2,1.05016002442,,,2018_may._09_0124,60.0111939799,Experimento Piloto1,001,115,
0.25,Stim\\05_078.jpg,En78_10,Enojo,10,Laura finaliza la obra.,Afirmación,En78,78,,,,,,,,,0,23,23,23,,,,,,,4,0.916497241296,,,2018_may._09_0124,60.0111939799,Experimento Piloto1,001,115,
2.5,Stim\\05_075.jpg,En75_14,Enojo,14,Elizabeth elige la ropa un día antes.,Afirmación,En75,75,,,,,,,,,0,24,24,24,,,,,,,4,2.54967986191,,,2018_may._09_0124,60.0111939799,Experimento Piloto1,001,115,
0.25,Stim\\05_019.jpg,En19_7,Enojo,7,Roberto contesta los cuestionarios solicitados.,Afirmación,En19,19,,,,,,,,,0,25,25,25,,,,,,,3,1.78327847462,,,2018_may._09_0124,60.0111939799,Experimento Piloto1,001,115,
0.25,Stim\\02_078.jpg,Al78_14,Alegría,14,Elizabeth elige la ropa un día antes.,Afirmación,Al78,78,,,,,,,,,0,26,26,26,,,,,,,3,0.750326207055,,,2018_may._09_0124,60.0111939799,Experimento Piloto1,001,115,
0.25,Stim\\03_028.jpg,Tr28_13,Tristeza,13,Rocío consume alimentos nutritivos.,Afirmación,Tr28,28,,,,,,,,,0,27,27,27,,,,,,,3,0.335147627658,,,2018_may._09_0124,60.0111939799,Experimento Piloto1,001,115,
2.5,Stim\\03_019.jpg,Tr19_8,Tristeza,8,Estefanía despierta a las 7 a.m.,Afirmación,Tr19,19,,,,,,,,,0,28,28,28,,,,,,,2,0.999906287987,,,2018_may._09_0124,60.0111939799,Experimento Piloto1,001,115,
2.5,Stim\\02_019.jpg,Al19_8,Alegría,8,Estefanía despierta a las 7 a.m.,Afirmación,Al19,19,,,,,,,,,0,29,29,29,,,,,,,2,0.700736487174,,,2018_may._09_0124,60.0111939799,Experimento Piloto1,001,115,
2.5,Stim\\02_028.jpg,Al28_9,Alegría,9,Marco colabora en la organización del evento.,Afirmación,Al28,28,,,,,,,,,0,30,30,30,,,,,,,3,1.06676980938,,,2018_may._09_0124,60.0111939799,Experimento Piloto1,001,115,
2.5,Stim\\03_075.jpg,Tr75_1,Tristeza,1,Juan colecciona monedas antiguas.,Afirmación,Tr75,75,,,,,,,,,0,31,31,31,,,,,,,3,0.700255878421,,,2018_may._09_0124,60.0111939799,Experimento Piloto1,001,115,
2.5,Stim\\05_078.jpg,En78_8,Enojo,8,Estefanía despierta a las 7 a.m.,Afirmación,En78,78,,,,,,,,,0,32,32,32,,,,,,,3,0.900388592481,,,2018_may._09_0124,60.0111939799,Experimento Piloto1,001,115,
0.25,Stim\\02_028.jpg,Al28_12,Alegría,12,Ana compra el libro.,Afirmación,Al28,28,,,,,,,,,0,33,33,33,,,,,,,3,1.21668939555,,,2018_may._09_0124,60.0111939799,Experimento Piloto1,001,115,
0.25,Stim\\05_075.jpg,En75_1,Enojo,1,Juan colecciona monedas antiguas.,Afirmación,En75,75,,,,,,,,,0,34,34,34,,,,,,,3,0.800221606598,,,2018_may._09_0124,60.0111939799,Experimento Piloto1,001,115,
0.25,Stim\\03_028.jpg,Tr28_4,Tristeza,4,Jorge sustituye a Gustavo cada sábado.,Afirmación,Tr28,28,,,,,,,,,0,35,35,35,,,,,,,3,3.06633694913,,,2018_may._09_0124,60.0111939799,Experimento Piloto1,001,115,
2.5,Stim\\03_078.jpg,Tr78_3,Tristeza,3,Andrea diseña la portada del libro.,Afirmación,Tr78,78,,,,,,,,,0,36,36,36,,,,,,,3,2.38299832032,,,2018_may._09_0124,60.0111939799,Experimento Piloto1,001,115,
0.25,Stim\\05_078.jpg,En78_4,Enojo,4,Jorge sustituye a Gustavo cada sábado.,Afirmación,En78,78,,,,,,,,,0,37,37,37,,,,,,,4,1.58339922924,,,2018_may._09_0124,60.0111939799,Experimento Piloto1,001,115,
2.5,Stim\\03_019.jpg,Tr19_7,Tristeza,7,Roberto contesta los cuestionarios solicitados.,Afirmación,Tr19,19,,,,,,,,,0,38,38,38,,,,,,,3,1.98331747667,,,2018_may._09_0124,60.0111939799,Experimento Piloto1,001,115,
0.25,Stim\\02_078.jpg,Al78_2,Alegría,2,Jonathan pasea al perro.,Afirmación,Al78,78,,,,,,,,,0,39,39,39,,,,,,,3,0.450219732358,,,2018_may._09_0124,60.0111939799,Experimento Piloto1,001,115,
0.25,Stim\\02_078.jpg,Al78_5,Alegría,5,Emilio revisa el formato del archivo.,Afirmación,Al78,78,,,,,,,,,0,40,40,40,,,,,,,2,3.86596593881,,,2018_may._09_0124,60.0111939799,Experimento Piloto1,001,115,
2.5,Stim\\05_019.jpg,En19_11,Enojo,11,María asiste a la cena.,Afirmación,En19,19,,,,,,,,,0,41,41,41,,,,,,,2,0.816772933114,,,2018_may._09_0124,60.0111939799,Experimento Piloto1,001,115,
2.5,Stim\\02_028.jpg,Al28_15,Alegría,15,Ángel envía una carta a la abuela.,Afirmación,Al28,28,,,,,,,,,0,42,42,42,,,,,,,3,0.350743984135,,,2018_may._09_0124,60.0111939799,Experimento Piloto1,001,115,
0.25,Stim\\03_019.jpg,Tr19_4,Tristeza,4,Jorge sustituye a Gustavo cada sábado.,Afirmación,Tr19,19,,,,,,,,,0,43,43,43,,,,,,,3,0.900105225203,,,2018_may._09_0124,60.0111939799,Experimento Piloto1,001,115,
2.5,Stim\\02_075.jpg,Al75_12,Alegría,12,Ana compra el libro.,Afirmación,Al75,75,,,,,,,,,0,44,44,44,,,,,,,4,0.650376097547,,,2018_may._09_0124,60.0111939799,Experimento Piloto1,001,115,
2.5,Stim\\05_028.jpg,En28_12,Enojo,12,Ana compra el libro.,Afirmación,En28,28,,,,,,,,,0,45,45,45,,,,,,,3,0.750193225246,,,2018_may._09_0124,60.0111939799,Experimento Piloto1,001,115,
0.25,Stim\\02_028.jpg,Al28_14,Alegría,14,Elizabeth elige la ropa un día antes.,Afirmación,Al28,28,,,,,,,,,0,46,46,46,,,,,,,3,0.333793712191,,,2018_may._09_0124,60.0111939799,Experimento Piloto1,001,115,
2.5,Stim\\03_075.jpg,Tr75_6,Tristeza,6,Eduardo camina hacia la biblioteca.,Afirmación,Tr75,75,,,,,,,,,0,47,47,47,,,,,,,3,1.31697285208,,,2018_may._09_0124,60.0111939799,Experimento Piloto1,001,115,
0.25,Stim\\05_028.jpg,En28_8,Enojo,8,Estefanía despierta a las 7 a.m.,Afirmación,En28,28,,,,,,,,,0,48,48,48,,,,,,,2,1.26665262474,,,2018_may._09_0124,60.0111939799,Experimento Piloto1,001,115,
2.5,Stim\\05_019.jpg,En19_7,Enojo,7,Roberto contesta los cuestionarios solicitados.,Afirmación,En19,19,,,,,,,,,0,49,49,49,,,,,,,2,0.400384130005,,,2018_may._09_0124,60.0111939799,Experimento Piloto1,001,115,
2.5,Stim\\02_019.jpg,Al19_10,Alegría,10,Laura finaliza la obra.,Afirmación,Al19,19,,,,,,,,,0,50,50,50,,,,,,,2,1.63323170786,,,2018_may._09_0124,60.0111939799,Experimento Piloto1,001,115,
0.25,Stim\\05_028.jpg,En28_14,Enojo,14,Elizabeth elige la ropa un día antes.,Afirmación,En28,28,,,,,,,,,0,51,51,51,,,,,,,3,0.650219910857,,,2018_may._09_0124,60.0111939799,Experimento Piloto1,001,115,
2.5,Stim\\03_028.jpg,Tr28_8,Tristeza,8,Estefanía despierta a las 7 a.m.,Afirmación,Tr28,28,,,,,,,,,0,52,52,52,,,,,,,3,1.43342787834,,,2018_may._09_0124,60.0111939799,Experimento Piloto1,001,115,
0.25,Stim\\02_075.jpg,Al75_3,Alegría,3,Andrea diseña la portada del libro.,Afirmación,Al75,75,,,,,,,,,0,53,53,53,,,,,,,3,0.600172787103,,,2018_may._09_0124,60.0111939799,Experimento Piloto1,001,115,
0.25,Stim\\02_028.jpg,Al28_1,Alegría,1,Juan colecciona monedas antiguas.,Afirmación,Al28,28,,,,,,,,,0,54,54,54,,,,,,,3,0.333810223357,,,2018_may._09_0124,60.0111939799,Experimento Piloto1,001,115,
0.25,Stim\\03_028.jpg,Tr28_3,Tristeza,3,Andrea diseña la portada del libro.,Afirmación,Tr28,28,,,,,,,,,0,55,55,55,,,,,,,3,0.500240973748,,,2018_may._09_0124,60.0111939799,Experimento Piloto1,001,115,
2.5,Stim\\02_078.jpg,Al78_11,Alegría,11,María asiste a la cena.,Afirmación,Al78,78,,,,,,,,,0,56,56,56,,,,,,,3,0.283652876423,,,2018_may._09_0124,60.0111939799,Experimento Piloto1,001,115,
0.25,Stim\\03_019.jpg,Tr19_12,Tristeza,12,Ana compra el libro.,Afirmación,Tr19,19,,,,,,,,,0,57,57,57,,,,,,,3,0.383680633029,,,2018_may._09_0124,60.0111939799,Experimento Piloto1,001,115,
2.5,Stim\\02_078.jpg,Al78_14,Alegría,14,Elizabeth elige la ropa un día antes.,Afirmación,Al78,78,,,,,,,,,0,58,58,58,,,,,,,4,2.33296056777,,,2018_may._09_0124,60.0111939799,Experimento Piloto1,001,115,
0.25,Stim\\03_019.jpg,Tr19_2,Tristeza,2,Jonathan pasea al perro.,Afirmación,Tr19,19,,,,,,,,,0,59,59,59,,,,,,,3,0.433767919076,,,2018_may._09_0124,60.0111939799,Experimento Piloto1,001,115,
2.5,Stim\\03_078.jpg,Tr78_1,Tristeza,1,Juan colecciona monedas antiguas.,Afirmación,Tr78,78,,,,,,,,,0,60,60,60,,,,,,,3,0.400228389564,,,2018_may._09_0124,60.0111939799,Experimento Piloto1,001,115,
0.25,Stim\\03_078.jpg,Tr78_4,Tristeza,4,Jorge sustituye a Gustavo cada sábado.,Afirmación,Tr78,78,,,,,,,,,0,61,61,61,,,,,,,3,0.250427951527,,,2018_may._09_0124,60.0111939799,Experimento Piloto1,001,115,
0.25,Stim\\05_019.jpg,En19_14,Enojo,14,Elizabeth elige la ropa un día antes.,Afirmación,En19,19,,,,,,,,,0,62,62,62,,,,,,,2,0.333714280105,,,2018_may._09_0124,60.0111939799,Experimento Piloto1,001,115,
0.25,Stim\\02_075.jpg,Al75_15,Alegría,15,Ángel envía una carta a la abuela.,Afirmación,Al75,75,,,,,,,,,0,63,63,63,,,,,,,2,0.600233476787,,,2018_may._09_0124,60.0111939799,Experimento Piloto1,001,115,
2.5,Stim\\03_028.jpg,Tr28_2,Tristeza,2,Jonathan pasea al perro.,Afirmación,Tr28,28,,,,,,,,,0,64,64,64,,,,,,,3,1.5166606572,,,2018_may._09_0124,60.0111939799,Experimento Piloto1,001,115,
0.25,Stim\\05_028.jpg,En28_3,Enojo,3,Andrea diseña la portada del libro.,Afirmación,En28,28,,,,,,,,,0,65,65,65,,,,,,,3,0.650235083279,,,2018_may._09_0124,60.0111939799,Experimento Piloto1,001,115,
0.25,Stim\\05_078.jpg,En78_3,Enojo,3,Andrea diseña la portada del libro.,Afirmación,En78,78,,,,,,,,,0,66,66,66,,,,,,,3,0.383621728335,,,2018_may._09_0124,60.0111939799,Experimento Piloto1,001,115,
0.25,Stim\\05_075.jpg,En75_9,Enojo,9,Marco colabora en la organización del evento.,Afirmación,En75,75,,,,,,,,,0,67,67,67,,,,,,,2,0.333676349052,,,2018_may._09_0124,60.0111939799,Experimento Piloto1,001,115,
2.5,Stim\\05_075.jpg,En75_7,Enojo,7,Roberto contesta los cuestionarios solicitados.,Afirmación,En75,75,,,,,,,,,0,68,68,68,,,,,,,2,0.30037913203,,,2018_may._09_0124,60.0111939799,Experimento Piloto1,001,115,
0.25,Stim\\03_078.jpg,Tr78_14,Tristeza,14,Elizabeth elige la ropa un día antes.,Afirmación,Tr78,78,,,,,,,,,0,69,69,69,,,,,,,3,1.05018010556,,,2018_may._09_0124,60.0111939799,Experimento Piloto1,001,115,
2.5,Stim\\03_019.jpg,Tr19_5,Tristeza,5,Emilio revisa el formato del archivo.,Afirmación,Tr19,19,,,,,,,,,0,70,70,70,,,,,,,2,1.66660255575,,,2018_may._09_0124,60.0111939799,Experimento Piloto1,001,115,
2.5,Stim\\05_028.jpg,En28_13,Enojo,13,Rocío consume alimentos nutritivos.,Afirmación,En28,28,,,,,,,,,0,71,71,71,,,,,,,2,2.69940086786,,,2018_may._09_0124,60.0111939799,Experimento Piloto1,001,115,
0.25,Stim\\05_075.jpg,En75_15,Enojo,15,Ángel envía una carta a la abuela.,Afirmación,En75,75,,,,,,,,,0,72,72,72,,,,,,,2,0.233819951555,,,2018_may._09_0124,60.0111939799,Experimento Piloto1,001,115,
2.5,Stim\\05_019.jpg,En19_6,Enojo,6,Eduardo camina hacia la biblioteca.,Afirmación,En19,19,,,,,,,,,0,73,73,73,,,,,,,2,0.350010799194,,,2018_may._09_0124,60.0111939799,Experimento Piloto1,001,115,
2.5,Stim\\05_078.jpg,En78_10,Enojo,10,Laura finaliza la obra.,Afirmación,En78,78,,,,,,,,,0,74,74,74,,,,,,,2,0.433754977893,,,2018_may._09_0124,60.0111939799,Experimento Piloto1,001,115,
2.5,Stim\\05_019.jpg,En19_9,Enojo,9,Marco colabora en la organización del evento.,Afirmación,En19,19,,,,,,,,,0,75,75,75,,,,,,,2,0.333735253745,,,2018_may._09_0124,60.0111939799,Experimento Piloto1,001,115,
2.5,Stim\\02_078.jpg,Al78_6,Alegría,6,Eduardo camina hacia la biblioteca.,Afirmación,Al78,78,,,,,,,,,0,76,76,76,,,,,,,3,0.500057565951,,,2018_may._09_0124,60.0111939799,Experimento Piloto1,001,115,
2.5,Stim\\05_078.jpg,En78_13,Enojo,13,Rocío consume alimentos nutritivos.,Afirmación,En78,78,,,,,,,,,0,77,77,77,,,,,,,2,0.18368447076,,,2018_may._09_0124,60.0111939799,Experimento Piloto1,001,115,
0.25,Stim\\05_028.jpg,En28_2,Enojo,2,Jonathan pasea al perro.,Afirmación,En28,28,,,,,,,,,0,78,78,78,,,,,,,2,0.300319781089,,,2018_may._09_0124,60.0111939799,Experimento Piloto1,001,115,
0.25,Stim\\05_019.jpg,En19_6,Enojo,6,Eduardo camina hacia la biblioteca.,Afirmación,En19,19,,,,,,,,,0,79,79,79,,,,,,,2,0.399955285982,,,2018_may._09_0124,60.0111939799,Experimento Piloto1,001,115,
2.5,Stim\\03_019.jpg,Tr19_11,Tristeza,11,María asiste a la cena.,Afirmación,Tr19,19,,,,,,,,,0,80,80,80,,,,,,,2,0.500287829755,,,2018_may._09_0124,60.0111939799,Experimento Piloto1,001,115,
2.5,Stim\\05_028.jpg,En28_11,Enojo,11,María asiste a la cena.,Afirmación,En28,28,,,,,,,,,0,81,81,81,,,,,,,2,0.250034807319,,,2018_may._09_0124,60.0111939799,Experimento Piloto1,001,115,
0.25,Stim\\02_078.jpg,Al78_9,Alegría,9,Marco colabora en la organización del evento.,Afirmación,Al78,78,,,,,,,,,0,82,82,82,,,,,,,2,0.250321744578,,,2018_may._09_0124,60.0111939799,Experimento Piloto1,001,115,
0.25,Stim\\05_019.jpg,En19_13,Enojo,13,Rocío consume alimentos nutritivos.,Afirmación,En19,19,,,,,,,,,0,83,83,83,,,,,,,2,0.183779075268,,,2018_may._09_0124,60.0111939799,Experimento Piloto1,001,115,
0.25,Stim\\03_078.jpg,Tr78_11,Tristeza,11,María asiste a la cena.,Afirmación,Tr78,78,,,,,,,,,0,84,84,84,,,,,,,3,0.250701501355,,,2018_may._09_0124,60.0111939799,Experimento Piloto1,001,115,
2.5,Stim\\05_028.jpg,En28_5,Enojo,5,Emilio revisa el formato del archivo.,Afirmación,En28,28,,,,,,,,,0,85,85,85,,,,,,,2,0.533635472764,,,2018_may._09_0124,60.0111939799,Experimento Piloto1,001,115,
0.25,Stim\\03_028.jpg,Tr28_10,Tristeza,10,Laura finaliza la obra.,Afirmación,Tr28,28,,,,,,,,,0,86,86,86,,,,,,,3,0.700272835833,,,2018_may._09_0124,60.0111939799,Experimento Piloto1,001,115,
0.25,Stim\\05_019.jpg,En19_11,Enojo,11,María asiste a la cena.,Afirmación,En19,19,,,,,,,,,0,87,87,87,,,,,,,3,2.18333505882,,,2018_may._09_0124,60.0111939799,Experimento Piloto1,001,115,
2.5,Stim\\03_028.jpg,Tr28_9,Tristeza,9,Marco colabora en la organización del evento.,Afirmación,Tr28,28,,,,,,,,,0,88,88,88,,,,,,,3,0.650326117806,,,2018_may._09_0124,60.0111939799,Experimento Piloto1,001,115,
2.5,Stim\\05_019.jpg,En19_8,Enojo,8,Estefanía despierta a las 7 a.m.,Afirmación,En19,19,,,,,,,,,0,89,89,89,,,,,,,3,0.950238921009,,,2018_may._09_0124,60.0111939799,Experimento Piloto1,001,115,
0.25,Stim\\03_075.jpg,Tr75_9,Tristeza,9,Marco colabora en la organización del evento.,Afirmación,Tr75,75,,,,,,,,,0,90,90,90,,,,,,,3,0.233677152298,,,2018_may._09_0124,60.0111939799,Experimento Piloto1,001,115,
2.5,Stim\\02_075.jpg,Al75_3,Alegría,3,Andrea diseña la portada del libro.,Afirmación,Al75,75,,,,,,,,,0,91,91,91,,,,,,,4,0.333533549793,,,2018_may._09_0124,60.0111939799,Experimento Piloto1,001,115,
0.25,Stim\\05_028.jpg,En28_12,Enojo,12,Ana compra el libro.,Afirmación,En28,28,,,,,,,,,0,92,92,92,,,,,,,3,0.383727935283,,,2018_may._09_0124,60.0111939799,Experimento Piloto1,001,115,
0.25,Stim\\03_028.jpg,Tr28_7,Tristeza,7,Roberto contesta los cuestionarios solicitados.,Afirmación,Tr28,28,,,,,,,,,0,93,93,93,,,,,,,3,0.150372973812,,,2018_may._09_0124,60.0111939799,Experimento Piloto1,001,115,
0.25,Stim\\03_019.jpg,Tr19_8,Tristeza,8,Estefanía despierta a las 7 a.m.,Afirmación,Tr19,19,,,,,,,,,0,94,94,94,,,,,,,4,1.31670019474,,,2018_may._09_0124,60.0111939799,Experimento Piloto1,001,115,
0.25,Stim\\02_019.jpg,Al19_4,Alegría,4,Jorge sustituye a Gustavo cada sábado.,Afirmación,Al19,19,,,,,,,,,0,95,95,95,,,,,,,2,0.300321566079,,,2018_may._09_0124,60.0111939799,Experimento Piloto1,001,115,
2.5,Stim\\05_019.jpg,En19_15,Enojo,15,Ángel envía una carta a la abuela.,Afirmación,En19,19,,,,,,,,,0,96,96,96,,,,,,,2,0.350349947432,,,2018_may._09_0124,60.0111939799,Experimento Piloto1,001,115,
0.25,Stim\\05_075.jpg,En75_13,Enojo,13,Rocío consume alimentos nutritivos.,Afirmación,En75,75,,,,,,,,,0,97,97,97,,,,,,,2,0.4003466452,,,2018_may._09_0124,60.0111939799,Experimento Piloto1,001,115,
0.25,Stim\\02_078.jpg,Al78_7,Alegría,7,Roberto contesta los cuestionarios solicitados.,Afirmación,Al78,78,,,,,,,,,0,98,98,98,,,,,,,2,0.800247042716,,,2018_may._09_0124,60.0111939799,Experimento Piloto1,001,115,
2.5,Stim\\03_028.jpg,Tr28_3,Tristeza,3,Andrea diseña la portada del libro.,Afirmación,Tr28,28,,,,,,,,,0,99,99,99,,,,,,,4,0.450329955536,,,2018_may._09_0124,60.0111939799,Experimento Piloto1,001,115,
2.5,Stim\\05_075.jpg,En75_15,Enojo,15,Ángel envía una carta a la abuela.,Afirmación,En75,75,,,,,,,,,0,100,100,100,,,,,,,2,0.400382345014,,,2018_may._09_0124,60.0111939799,Experimento Piloto1,001,115,
0.25,Stim\\02_028.jpg,Al28_13,Alegría,13,Rocío consume alimentos nutritivos.,Afirmación,Al28,28,,,,,,,,,0,101,101,101,,,,,,,3,0.550332722272,,,2018_may._09_0124,60.0111939799,Experimento Piloto1,001,115,
0.25,Stim\\03_028.jpg,Tr28_15,Tristeza,15,Ángel envía una carta a la abuela.,Afirmación,Tr28,28,,,,,,,,,0,102,102,102,,,,,,,3,1.31687423134,,,2018_may._09_0124,60.0111939799,Experimento Piloto1,001,115,
0.25,Stim\\05_019.jpg,En19_2,Enojo,2,Jonathan pasea al perro.,Afirmación,En19,19,,,,,,,,,0,103,103,103,,,,,,,3,0.300325582309,,,2018_may._09_0124,60.0111939799,Experimento Piloto1,001,115,
0.25,Stim\\03_078.jpg,Tr78_13,Tristeza,13,Rocío consume alimentos nutritivos.,Afirmación,Tr78,78,,,,,,,,,0,104,104,104,,,,,,,3,0.650279708047,,,2018_may._09_0124,60.0111939799,Experimento Piloto1,001,115,
2.5,Stim\\03_075.jpg,Tr75_2,Tristeza,2,Jonathan pasea al perro.,Afirmación,Tr75,75,,,,,,,,,0,105,105,105,,,,,,,4,2.03332533063,,,2018_may._09_0124,60.0111939799,Experimento Piloto1,001,115,
2.5,Stim\\05_075.jpg,En75_10,Enojo,10,Laura finaliza la obra.,Afirmación,En75,75,,,,,,,,,0,106,106,106,,,,,,,3,1.21675231647,,,2018_may._09_0124,60.0111939799,Experimento Piloto1,001,115,
2.5,Stim\\05_028.jpg,En28_3,Enojo,3,Andrea diseña la portada del libro.,Afirmación,En28,28,,,,,,,,,0,107,107,107,,,,,,,2,0.400382345014,,,2018_may._09_0124,60.0111939799,Experimento Piloto1,001,115,
2.5,Stim\\02_078.jpg,Al78_8,Alegría,8,Estefanía despierta a las 7 a.m.,Afirmación,Al78,78,,,,,,,,,0,108,108,108,,,,,,,3,0.650393054958,,,2018_may._09_0124,60.0111939799,Experimento Piloto1,001,115,
2.5,Stim\\05_075.jpg,En75_2,Enojo,2,Jonathan pasea al perro.,Afirmación,En75,75,,,,,,,,,0,109,109,109,,,,,,,3,2.39967682743,,,2018_may._09_0124,60.0111939799,Experimento Piloto1,001,115,
0.25,Stim\\05_078.jpg,En78_2,Enojo,2,Jonathan pasea al perro.,Afirmación,En78,78,,,,,,,,,0,110,110,110,,,,,,,2,0.383739537723,,,2018_may._09_0124,60.0111939799,Experimento Piloto1,001,115,
2.5,Stim\\05_078.jpg,En78_14,Enojo,14,Elizabeth elige la ropa un día antes.,Afirmación,En78,78,,,,,,,,,0,111,111,111,,,,,,,2,1.06692197984,,,2018_may._09_0124,60.0111939799,Experimento Piloto1,001,115,
2.5,Stim\\05_028.jpg,En28_1,Enojo,1,Juan colecciona monedas antiguas.,Afirmación,En28,28,,,,,,,,,0,112,112,112,,,,,,,2,0.433680900777,,,2018_may._09_0124,60.0111939799,Experimento Piloto1,001,115,
0.25,Stim\\05_019.jpg,En19_12,Enojo,12,Ana compra el libro.,Afirmación,En19,19,,,,,,,,,0,113,113,113,,,,,,,2,0.233680276031,,,2018_may._09_0124,60.0111939799,Experimento Piloto1,001,115,
0.25,Stim\\02_075.jpg,Al75_13,Alegría,13,Rocío consume alimentos nutritivos.,Afirmación,Al75,75,,,,,,,,,0,114,114,114,,,,,,,3,0.183785768982,,,2018_may._09_0124,60.0111939799,Experimento Piloto1,001,115,
2.5,Stim\\03_019.jpg,Tr19_6,Tristeza,6,Eduardo camina hacia la biblioteca.,Afirmación,Tr19,19,,,,,,,,,0,115,115,115,,,,,,,3,0.450316121857,,,2018_may._09_0124,60.0111939799,Experimento Piloto1,001,115,
2.5,Stim\\05_028.jpg,En28_14,Enojo,14,Elizabeth elige la ropa un día antes.,Afirmación,En28,28,,,,,,,,,0,116,116,116,,,,,,,3,1.56657613789,,,2018_may._09_0124,60.0111939799,Experimento Piloto1,001,115,
2.5,Stim\\02_028.jpg,Al28_5,Alegría,5,Emilio revisa el formato del archivo.,Afirmación,Al28,28,,,,,,,,,0,117,117,117,,,,,,,3,0.183659480889,,,2018_may._09_0124,60.0111939799,Experimento Piloto1,001,115,
2.5,Stim\\02_078.jpg,Al78_9,Alegría,9,Marco colabora en la organización del evento.,Afirmación,Al78,78,,,,,,,,,0,118,118,118,,,,,,,3,0.200198312469,,,2018_may._09_0124,60.0111939799,Experimento Piloto1,001,115,
0.25,Stim\\03_019.jpg,Tr19_3,Tristeza,3,Andrea diseña la portada del libro.,Afirmación,Tr19,19,,,,,,,,,0,119,119,119,,,,,,,3,0.750241866243,,,2018_may._09_0124,60.0111939799,Experimento Piloto1,001,115,
0.25,Stim\\03_028.jpg,Tr28_2,Tristeza,2,Jonathan pasea al perro.,Afirmación,Tr28,28,,,,,,,,,,,,,0,0,0,0,,,,,3,0.283674296313,2018_may._09_0124,60.0111939799,Experimento Piloto1,001,115,
2.5,Stim\\05_075.jpg,En75_12,Enojo,12,Ana compra el libro.,Afirmación,En75,75,,,,,,,,,,,,,0,1,1,1,,,,,3,0.400295772964,2018_may._09_0124,60.0111939799,Experimento Piloto1,001,115,
0.25,Stim\\02_078.jpg,Al78_11,Alegría,11,María asiste a la cena.,Afirmación,Al78,78,,,,,,,,,,,,,0,2,2,2,,,,,3,0.750233833785,2018_may._09_0124,60.0111939799,Experimento Piloto1,001,115,
0.25,Stim\\02_078.jpg,Al78_8,Alegría,8,Estefanía despierta a las 7 a.m.,Afirmación,Al78,78,,,,,,,,,,,,,0,3,3,3,,,,,3,0.183676884548,2018_may._09_0124,60.0111939799,Experimento Piloto1,001,115,
0.25,Stim\\05_028.jpg,En28_6,Enojo,6,Eduardo camina hacia la biblioteca.,Afirmación,En28,28,,,,,,,,,,,,,0,4,4,4,,,,,3,0.183734004252,2018_may._09_0124,60.0111939799,Experimento Piloto1,001,115,
0.25,Stim\\02_019.jpg,Al19_14,Alegría,14,Elizabeth elige la ropa un día antes.,Afirmación,Al19,19,,,,,,,,,,,,,0,5,5,5,,,,,3,1.06678944428,2018_may._09_0124,60.0111939799,Experimento Piloto1,001,115,
2.5,Stim\\05_078.jpg,En78_1,Enojo,1,Juan colecciona monedas antiguas.,Afirmación,En78,78,,,,,,,,,,,,,0,6,6,6,,,,,3,0.350367351091,2018_may._09_0124,60.0111939799,Experimento Piloto1,001,115,
2.5,Stim\\02_078.jpg,Al78_15,Alegría,15,Ángel envía una carta a la abuela.,Afirmación,Al78,78,,,,,,,,,,,,,0,7,7,7,,,,,2,0.349979561856,2018_may._09_0124,60.0111939799,Experimento Piloto1,001,115,
0.25,Stim\\02_075.jpg,Al75_14,Alegría,14,Elizabeth elige la ropa un día antes.,Afirmación,Al75,75,,,,,,,,,,,,,0,8,8,8,,,,,3,0.350238385512,2018_may._09_0124,60.0111939799,Experimento Piloto1,001,115,
2.5,Stim\\02_075.jpg,Al75_2,Alegría,2,Jonathan pasea al perro.,Afirmación,Al75,75,,,,,,,,,,,,,0,9,9,9,,,,,4,0.300434912991,2018_may._09_0124,60.0111939799,Experimento Piloto1,001,115,
0.25,Stim\\05_075.jpg,En75_12,Enojo,12,Ana compra el libro.,Afirmación,En75,75,,,,,,,,,,,,,0,10,10,10,,,,,3,0.550236332772,2018_may._09_0124,60.0111939799,Experimento Piloto1,001,115,
2.5,Stim\\03_078.jpg,Tr78_8,Tristeza,8,Estefanía despierta a las 7 a.m.,Afirmación,Tr78,78,,,,,,,,,,,,,0,11,11,11,,,,,4,1.36679640574,2018_may._09_0124,60.0111939799,Experimento Piloto1,001,115,
0.25,Stim\\03_078.jpg,Tr78_15,Tristeza,15,Ángel envía una carta a la abuela.,Afirmación,Tr78,78,,,,,,,,,,,,,0,12,12,12,,,,,3,0.450359407882,2018_may._09_0124,60.0111939799,Experimento Piloto1,001,115,
0.25,Stim\\03_078.jpg,Tr78_5,Tristeza,5,Emilio revisa el formato del archivo.,Afirmación,Tr78,78,,,,,,,,,,,,,0,13,13,13,,,,,2,0.233741858211,2018_may._09_0124,60.0111939799,Experimento Piloto1,001,115,
2.5,Stim\\02_019.jpg,Al19_5,Alegría,5,Emilio revisa el formato del archivo.,Afirmación,Al19,19,,,,,,,,,,,,,0,14,14,14,,,,,2,0.350330312534,2018_may._09_0124,60.0111939799,Experimento Piloto1,001,115,
2.5,Stim\\03_075.jpg,Tr75_10,Tristeza,10,Laura finaliza la obra.,Afirmación,Tr75,75,,,,,,,,,,,,,0,15,15,15,,,,,3,0.200168860122,2018_may._09_0124,60.0111939799,Experimento Piloto1,001,115,
2.5,Stim\\03_075.jpg,Tr75_4,Tristeza,4,Jorge sustituye a Gustavo cada sábado.,Afirmación,Tr75,75,,,,,,,,,,,,,0,16,16,16,,,,,3,0.333777201028,2018_may._09_0124,60.0111939799,Experimento Piloto1,001,115,
0.25,Stim\\03_028.jpg,Tr28_5,Tristeza,5,Emilio revisa el formato del archivo.,Afirmación,Tr28,28,,,,,,,,,,,,,0,17,17,17,,,,,4,0.8168046167,2018_may._09_0124,60.0111939799,Experimento Piloto1,001,115,
0.25,Stim\\05_075.jpg,En75_11,Enojo,11,María asiste a la cena.,Afirmación,En75,75,,,,,,,,,,,,,0,18,18,18,,,,,3,0.333749533672,2018_may._09_0124,60.0111939799,Experimento Piloto1,001,115,
0.25,Stim\\02_075.jpg,Al75_6,Alegría,6,Eduardo camina hacia la biblioteca.,Afirmación,Al75,75,,,,,,,,,,,,,0,19,19,19,,,,,3,0.183717493088,2018_may._09_0124,60.0111939799,Experimento Piloto1,001,115,
0.25,Stim\\05_078.jpg,En78_1,Enojo,1,Juan colecciona monedas antiguas.,Afirmación,En78,78,,,,,,,,,,,,,0,20,20,20,,,,,3,0.083936957697,2018_may._09_0124,60.0111939799,Experimento Piloto1,001,115,
2.5,Stim\\03_019.jpg,Tr19_4,Tristeza,4,Jorge sustituye a Gustavo cada sábado.,Afirmación,Tr19,19,,,,,,,,,,,,,0,21,21,21,,,,,3,0.133831018498,2018_may._09_0124,60.0111939799,Experimento Piloto1,001,115,
0.25,Stim\\03_028.jpg,Tr28_11,Tristeza,11,María asiste a la cena.,Afirmación,Tr28,28,,,,,,,,,,,,,0,22,22,22,,,,,3,0.500410547867,2018_may._09_0124,60.0111939799,Experimento Piloto1,001,115,
0.25,Stim\\02_019.jpg,Al19_7,Alegría,7,Roberto contesta los cuestionarios solicitados.,Afirmación,Al19,19,,,,,,,,,,,,,0,23,23,23,,,,,2,0.383777468776,2018_may._09_0124,60.0111939799,Experimento Piloto1,001,115,
0.25,Stim\\05_028.jpg,En28_1,Enojo,1,Juan colecciona monedas antiguas.,Afirmación,En28,28,,,,,,,,,,,,,0,24,24,24,,,,,3,0.250390912969,2018_may._09_0124,60.0111939799,Experimento Piloto1,001,115,
0.25,Stim\\03_019.jpg,Tr19_6,Tristeza,6,Eduardo camina hacia la biblioteca.,Afirmación,Tr19,19,,,,,,,,,,,,,0,25,25,25,,,,,2,0.333689290233,2018_may._09_0124,60.0111939799,Experimento Piloto1,001,115,
0.25,Stim\\03_078.jpg,Tr78_7,Tristeza,7,Roberto contesta los cuestionarios solicitados.,Afirmación,Tr78,78,,,,,,,,,,,,,0,26,26,26,,,,,4,0.750286937259,2018_may._09_0124,60.0111939799,Experimento Piloto1,001,115,
2.5,Stim\\03_019.jpg,Tr19_15,Tristeza,15,Ángel envía una carta a la abuela.,Afirmación,Tr19,19,,,,,,,,,,,,,0,27,27,27,,,,,3,0.200347805443,2018_may._09_0124,60.0111939799,Experimento Piloto1,001,115,
2.5,Stim\\02_028.jpg,Al28_4,Alegría,4,Jorge sustituye a Gustavo cada sábado.,Afirmación,Al28,28,,,,,,,,,,,,,0,28,28,28,,,,,2,1.16685111571,2018_may._09_0124,60.0111939799,Experimento Piloto1,001,115,
2.5,Stim\\03_078.jpg,Tr78_5,Tristeza,5,Emilio revisa el formato del archivo.,Afirmación,Tr78,78,,,,,,,,,,,,,0,29,29,29,,,,,2,0.30033896974,2018_may._09_0124,60.0111939799,Experimento Piloto1,001,115,
2.5,Stim\\03_028.jpg,Tr28_12,Tristeza,12,Ana compra el libro.,Afirmación,Tr28,28,,,,,,,,,,,,,0,30,30,30,,,,,3,0.450312105629,2018_may._09_0124,60.0111939799,Experimento Piloto1,001,115,
0.25,Stim\\02_028.jpg,Al28_2,Alegría,2,Jonathan pasea al perro.,Afirmación,Al28,28,,,,,,,,,,,,,0,31,31,31,,,,,3,0.850164308396,2018_may._09_0124,60.0111939799,Experimento Piloto1,001,115,
0.25,Stim\\05_019.jpg,En19_8,Enojo,8,Estefanía despierta a las 7 a.m.,Afirmación,En19,19,,,,,,,,,,,,,0,32,32,32,,,,,3,0.383752925153,2018_may._09_0124,60.0111939799,Experimento Piloto1,001,115,
0.25,Stim\\03_019.jpg,Tr19_9,Tristeza,9,Marco colabora en la organización del evento.,Afirmación,Tr19,19,,,,,,,,,,,,,0,33,33,33,,,,,3,0.450516040819,2018_may._09_0124,60.0111939799,Experimento Piloto1,001,115,
2.5,Stim\\02_078.jpg,Al78_10,Alegría,10,Laura finaliza la obra.,Afirmación,Al78,78,,,,,,,,,,,,,0,34,34,34,,,,,3,0.50032709955,2018_may._09_0124,60.0111939799,Experimento Piloto1,001,115,
2.5,Stim\\02_075.jpg,Al75_15,Alegría,15,Ángel envía una carta a la abuela.,Afirmación,Al75,75,,,,,,,,,,,,,0,35,35,35,,,,,2,4.34910223891,2018_may._09_0124,60.0111939799,Experimento Piloto1,001,115,
2.5,Stim\\03_028.jpg,Tr28_6,Tristeza,6,Eduardo camina hacia la biblioteca.,Afirmación,Tr28,28,,,,,,,,,,,,,0,36,36,36,,,,,3,0.233806117877,2018_may._09_0124,60.0111939799,Experimento Piloto1,001,115,
0.25,Stim\\03_075.jpg,Tr75_14,Tristeza,14,Elizabeth elige la ropa un día antes.,Afirmación,Tr75,75,,,,,,,,,,,,,0,37,37,37,,,,,3,0.233750336916,2018_may._09_0124,60.0111939799,Experimento Piloto1,001,115,
2.5,Stim\\05_075.jpg,En75_13,Enojo,13,Rocío consume alimentos nutritivos.,Afirmación,En75,75,,,,,,,,,,,,,0,38,38,38,,,,,2,0.400250701948,2018_may._09_0124,60.0111939799,Experimento Piloto1,001,115,
2.5,Stim\\03_075.jpg,Tr75_8,Tristeza,8,Estefanía despierta a las 7 a.m.,Afirmación,Tr75,75,,,,,,,,,,,,,0,39,39,39,,,,,2,0.500329330789,2018_may._09_0124,60.0111939799,Experimento Piloto1,001,115,
0.25,Stim\\05_075.jpg,En75_7,Enojo,7,Roberto contesta los cuestionarios solicitados.,Afirmación,En75,75,,,,,,,,,,,,,0,40,40,40,,,,,2,0.200357622893,2018_may._09_0124,60.0111939799,Experimento Piloto1,001,115,
2.5,Stim\\03_019.jpg,Tr19_10,Tristeza,10,Laura finaliza la obra.,Afirmación,Tr19,19,,,,,,,,,,,,,0,41,41,41,,,,,3,0.800184121794,2018_may._09_0124,60.0111939799,Experimento Piloto1,001,115,
2.5,Stim\\03_019.jpg,Tr19_2,Tristeza,2,Jonathan pasea al perro.,Afirmación,Tr19,19,,,,,,,,,,,,,0,42,42,42,,,,,3,0.300356819646,2018_may._09_0124,60.0111939799,Experimento Piloto1,001,115,
0.25,Stim\\03_075.jpg,Tr75_15,Tristeza,15,Ángel envía una carta a la abuela.,Afirmación,Tr75,75,,,,,,,,,,,,,0,43,43,43,,,,,4,0.300340754729,2018_may._09_0124,60.0111939799,Experimento Piloto1,001,115,
0.25,Stim\\05_019.jpg,En19_1,Enojo,1,Juan colecciona monedas antiguas.,Afirmación,En19,19,,,,,,,,,,,,,0,44,44,44,,,,,3,0.200333971765,2018_may._09_0124,60.0111939799,Experimento Piloto1,001,115,
0.25,Stim\\03_078.jpg,Tr78_2,Tristeza,2,Jonathan pasea al perro.,Afirmación,Tr78,78,,,,,,,,,,,,,0,45,45,45,,,,,3,0.450395553945,2018_may._09_0124,60.0111939799,Experimento Piloto1,001,115,
2.5,Stim\\02_019.jpg,Al19_9,Alegría,9,Marco colabora en la organización del evento.,Afirmación,Al19,19,,,,,,,,,,,,,0,46,46,46,,,,,3,0.250038823548,2018_may._09_0124,60.0111939799,Experimento Piloto1,001,115,
2.5,Stim\\03_028.jpg,Tr28_11,Tristeza,11,María asiste a la cena.,Afirmación,Tr28,28,,,,,,,,,,,,,0,47,47,47,,,,,3,0.183940616928,2018_may._09_0124,60.0111939799,Experimento Piloto1,001,115,
2.5,Stim\\05_078.jpg,En78_6,Enojo,6,Eduardo camina hacia la biblioteca.,Afirmación,En78,78,,,,,,,,,,,,,0,48,48,48,,,,,3,0.23383646272,2018_may._09_0124,60.0111939799,Experimento Piloto1,001,115,
2.5,Stim\\02_028.jpg,Al28_14,Alegría,14,Elizabeth elige la ropa un día antes.,Afirmación,Al28,28,,,,,,,,,,,,,0,49,49,49,,,,,2,0.283780949509,2018_may._09_0124,60.0111939799,Experimento Piloto1,001,115,
0.25,Stim\\03_019.jpg,Tr19_10,Tristeza,10,Laura finaliza la obra.,Afirmación,Tr19,19,,,,,,,,,,,,,0,50,50,50,,,,,3,0.700119772878,2018_may._09_0124,60.0111939799,Experimento Piloto1,001,115,
2.5,Stim\\05_019.jpg,En19_2,Enojo,2,Jonathan pasea al perro.,Afirmación,En19,19,,,,,,,,,,,,,0,51,51,51,,,,,3,0.283714012356,2018_may._09_0124,60.0111939799,Experimento Piloto1,001,115,
0.25,Stim\\05_078.jpg,En78_5,Enojo,5,Emilio revisa el formato del archivo.,Afirmación,En78,78,,,,,,,,,,,,,0,52,52,52,,,,,3,0.183734450499,2018_may._09_0124,60.0111939799,Experimento Piloto1,001,115,
2.5,Stim\\02_075.jpg,Al75_5,Alegría,5,Emilio revisa el formato del archivo.,Afirmación,Al75,75,,,,,,,,,,,,,0,53,53,53,,,,,2,0.250312373377,2018_may._09_0124,60.0111939799,Experimento Piloto1,001,115,
0.25,Stim\\05_028.jpg,En28_9,Enojo,9,Marco colabora en la organización del evento.,Afirmación,En28,28,,,,,,,,,,,,,0,54,54,54,,,,,2,0.233690985975,2018_may._09_0124,60.0111939799,Experimento Piloto1,001,115,
2.5,Stim\\03_019.jpg,Tr19_1,Tristeza,1,Juan colecciona monedas antiguas.,Afirmación,Tr19,19,,,,,,,,,,,,,0,55,55,55,,,,,3,0.150403764902,2018_may._09_0124,60.0111939799,Experimento Piloto1,001,115,
0.25,Stim\\02_028.jpg,Al28_3,Alegría,3,Andrea diseña la portada del libro.,Afirmación,Al28,28,,,,,,,,,,,,,0,56,56,56,,,,,3,0.200503545884,2018_may._09_0124,60.0111939799,Experimento Piloto1,001,115,
0.25,Stim\\05_028.jpg,En28_5,Enojo,5,Emilio revisa el formato del archivo.,Afirmación,En28,28,,,,,,,,,,,,,0,57,57,57,,,,,2,0.183887513454,2018_may._09_0124,60.0111939799,Experimento Piloto1,001,115,
2.5,Stim\\03_078.jpg,Tr78_15,Tristeza,15,Ángel envía una carta a la abuela.,Afirmación,Tr78,78,,,,,,,,,,,,,0,58,58,58,,,,,4,0.300328706042,2018_may._09_0124,60.0111939799,Experimento Piloto1,001,115,
0.25,Stim\\02_078.jpg,Al78_10,Alegría,10,Laura finaliza la obra.,Afirmación,Al78,78,,,,,,,,,,,,,0,59,59,59,,,,,3,0.20036387036,2018_may._09_0124,60.0111939799,Experimento Piloto1,001,115,
0.25,Stim\\03_075.jpg,Tr75_7,Tristeza,7,Roberto contesta los cuestionarios solicitados.,Afirmación,Tr75,75,,,,,,,,,,,,,0,60,60,60,,,,,2,0.233667781096,2018_may._09_0124,60.0111939799,Experimento Piloto1,001,115,
0.25,Stim\\03_075.jpg,Tr75_5,Tristeza,5,Emilio revisa el formato del archivo.,Afirmación,Tr75,75,,,,,,,,,,,,,0,61,61,61,,,,,2,0.200405371394,2018_may._09_0124,60.0111939799,Experimento Piloto1,001,115,
0.25,Stim\\05_075.jpg,En75_14,Enojo,14,Elizabeth elige la ropa un día antes.,Afirmación,En75,75,,,,,,,,,,,,,0,62,62,62,,,,,3,0.450344235462,2018_may._09_0124,60.0111939799,Experimento Piloto1,001,115,
0.25,Stim\\05_075.jpg,En75_2,Enojo,2,Jonathan pasea al perro.,Afirmación,En75,75,,,,,,,,,,,,,0,63,63,63,,,,,2,0.183619764845,2018_may._09_0124,60.0111939799,Experimento Piloto1,001,115,
0.25,Stim\\02_078.jpg,Al78_6,Alegría,6,Eduardo camina hacia la biblioteca.,Afirmación,Al78,78,,,,,,,,,,,,,0,64,64,64,,,,,3,0.183785768982,2018_may._09_0124,60.0111939799,Experimento Piloto1,001,115,
0.25,Stim\\03_075.jpg,Tr75_4,Tristeza,4,Jorge sustituye a Gustavo cada sábado.,Afirmación,Tr75,75,,,,,,,,,,,,,0,65,65,65,,,,,2,0.400222588343,2018_may._09_0124,60.0111939799,Experimento Piloto1,001,115,
0.25,Stim\\03_075.jpg,Tr75_3,Tristeza,3,Andrea diseña la portada del libro.,Afirmación,Tr75,75,,,,,,,,,,,,,0,66,66,66,,,,,2,0.233761046861,2018_may._09_0124,60.0111939799,Experimento Piloto1,001,115,
0.25,Stim\\02_028.jpg,Al28_10,Alegría,10,Laura finaliza la obra.,Afirmación,Al28,28,,,,,,,,,,,,,0,67,67,67,,,,,2,0.750282474783,2018_may._09_0124,60.0111939799,Experimento Piloto1,001,115,
0.25,Stim\\03_028.jpg,Tr28_12,Tristeza,12,Ana compra el libro.,Afirmación,Tr28,28,,,,,,,,,,,,,0,68,68,68,,,,,3,0.283946507398,2018_may._09_0124,60.0111939799,Experimento Piloto1,001,115,
0.25,Stim\\03_075.jpg,Tr75_10,Tristeza,10,Laura finaliza la obra.,Afirmación,Tr75,75,,,,,,,,,,,,,0,69,69,69,,,,,4,0.600168324625,2018_may._09_0124,60.0111939799,Experimento Piloto1,001,115,
0.25,Stim\\02_028.jpg,Al28_8,Alegría,8,Estefanía despierta a las 7 a.m.,Afirmación,Al28,28,,,,,,,,,,,,,0,70,70,70,,,,,2,0.333931602726,2018_may._09_0124,60.0111939799,Experimento Piloto1,001,115,
0.25,Stim\\05_078.jpg,En78_14,Enojo,14,Elizabeth elige la ropa un día antes.,Afirmación,En78,78,,,,,,,,,,,,,0,71,71,71,,,,,3,0.133884121972,2018_may._09_0124,60.0111939799,Experimento Piloto1,001,115,
2.5,Stim\\03_078.jpg,Tr78_9,Tristeza,9,Marco colabora en la organización del evento.,Afirmación,Tr78,78,,,,,,,,,,,,,0,72,72,72,,,,,4,0.350306661408,2018_may._09_0124,60.0111939799,Experimento Piloto1,001,115,
0.25,Stim\\02_019.jpg,Al19_3,Alegría,3,Andrea diseña la portada del libro.,Afirmación,Al19,19,,,,,,,,,,,,,0,73,73,73,,,,,3,0.200406710137,2018_may._09_0124,60.0111939799,Experimento Piloto1,001,115,
0.25,Stim\\03_078.jpg,Tr78_6,Tristeza,6,Eduardo camina hacia la biblioteca.,Afirmación,Tr78,78,,,,,,,,,,,,,0,74,74,74,,,,,4,0.500398052933,2018_may._09_0124,60.0111939799,Experimento Piloto1,001,115,
0.25,Stim\\03_028.jpg,Tr28_8,Tristeza,8,Estefanía despierta a las 7 a.m.,Afirmación,Tr28,28,,,,,,,,,,,,,0,75,75,75,,,,,4,0.400389931225,2018_may._09_0124,60.0111939799,Experimento Piloto1,001,115,
2.5,Stim\\05_078.jpg,En78_9,Enojo,9,Marco colabora en la organización del evento.,Afirmación,En78,78,,,,,,,,,,,,,0,76,76,76,,,,,2,0.233847172664,2018_may._09_0124,60.0111939799,Experimento Piloto1,001,115,
2.5,Stim\\02_028.jpg,Al28_6,Alegría,6,Eduardo camina hacia la biblioteca.,Afirmación,Al28,28,,,,,,,,,,,,,0,77,77,77,,,,,3,0.650122182615,2018_may._09_0124,60.0111939799,Experimento Piloto1,001,115,
2.5,Stim\\03_078.jpg,Tr78_6,Tristeza,6,Eduardo camina hacia la biblioteca.,Afirmación,Tr78,78,,,,,,,,,,,,,0,78,78,78,,,,,2,0.550203756691,2018_may._09_0124,60.0111939799,Experimento Piloto1,001,115,
2.5,Stim\\02_078.jpg,Al78_2,Alegría,2,Jonathan pasea al perro.,Afirmación,Al78,78,,,,,,,,,,,,,0,79,79,79,,,,,3,0.200509347104,2018_may._09_0124,60.0111939799,Experimento Piloto1,001,115,
2.5,Stim\\02_028.jpg,Al28_10,Alegría,10,Laura finaliza la obra.,Afirmación,Al28,28,,,,,,,,,,,,,0,80,80,80,,,,,3,0.750255699922,2018_may._09_0124,60.0111939799,Experimento Piloto1,001,115,
2.5,Stim\\02_019.jpg,Al19_15,Alegría,15,Ángel envía una carta a la abuela.,Afirmación,Al19,19,,,,,,,,,,,,,0,81,81,81,,,,,3,0.200375472799,2018_may._09_0124,60.0111939799,Experimento Piloto1,001,115,
0.25,Stim\\03_019.jpg,Tr19_5,Tristeza,5,Emilio revisa el formato del archivo.,Afirmación,Tr19,19,,,,,,,,,,,,,0,82,82,82,,,,,2,0.133907773099,2018_may._09_0124,60.0111939799,Experimento Piloto1,001,115,
0.25,Stim\\02_075.jpg,Al75_12,Alegría,12,Ana compra el libro.,Afirmación,Al75,75,,,,,,,,,,,,,0,83,83,83,,,,,3,0.96687191085,2018_may._09_0124,60.0111939799,Experimento Piloto1,001,115,
2.5,Stim\\05_078.jpg,En78_3,Enojo,3,Andrea diseña la portada del libro.,Afirmación,En78,78,,,,,,,,,,,,,0,84,84,84,,,,,3,0.183811651349,2018_may._09_0124,60.0111939799,Experimento Piloto1,001,115,
2.5,Stim\\03_075.jpg,Tr75_5,Tristeza,5,Emilio revisa el formato del archivo.,Afirmación,Tr75,75,,,,,,,,,,,,,0,85,85,85,,,,,2,0.550345217206,2018_may._09_0124,60.0111939799,Experimento Piloto1,001,115,
2.5,Stim\\05_028.jpg,En28_2,Enojo,2,Jonathan pasea al perro.,Afirmación,En28,28,,,,,,,,,,,,,0,86,86,86,,,,,3,0.18405976506,2018_may._09_0124,60.0111939799,Experimento Piloto1,001,115,
0.25,Stim\\03_028.jpg,Tr28_9,Tristeza,9,Marco colabora en la organización del evento.,Afirmación,Tr28,28,,,,,,,,,,,,,0,87,87,87,,,,,3,0.300029273848,2018_may._09_0124,60.0111939799,Experimento Piloto1,001,115,
0.25,Stim\\03_078.jpg,Tr78_9,Tristeza,9,Marco colabora en la organización del evento.,Afirmación,Tr78,78,,,,,,,,,,,,,0,88,88,88,,,,,3,0.300369760829,2018_may._09_0124,60.0111939799,Experimento Piloto1,001,115,
2.5,Stim\\03_075.jpg,Tr75_12,Tristeza,12,Ana compra el libro.,Afirmación,Tr75,75,,,,,,,,,,,,,0,89,89,89,,,,,3,0.334005233593,2018_may._09_0124,60.0111939799,Experimento Piloto1,001,115,
2.5,Stim\\05_078.jpg,En78_11,Enojo,11,María asiste a la cena.,Afirmación,En78,78,,,,,,,,,,,,,0,90,90,90,,,,,2,0.600213395642,2018_may._09_0124,60.0111939799,Experimento Piloto1,001,115,
2.5,Stim\\02_075.jpg,Al75_14,Alegría,14,Elizabeth elige la ropa un día antes.,Afirmación,Al75,75,,,,,,,,,,,,,0,91,91,91,,,,,2,0.233712852112,2018_may._09_0124,60.0111939799,Experimento Piloto1,001,115,
0.25,Stim\\03_019.jpg,Tr19_7,Tristeza,7,Roberto contesta los cuestionarios solicitados.,Afirmación,Tr19,19,,,,,,,,,,,,,0,92,92,92,,,,,2,0.283697054943,2018_may._09_0124,60.0111939799,Experimento Piloto1,001,115,
0.25,Stim\\05_075.jpg,En75_5,Enojo,5,Emilio revisa el formato del archivo.,Afirmación,En75,75,,,,,,,,,,,,,0,93,93,93,,,,,2,0.233798085418,2018_may._09_0124,60.0111939799,Experimento Piloto1,001,115,
2.5,Stim\\05_019.jpg,En19_14,Enojo,14,Elizabeth elige la ropa un día antes.,Afirmación,En19,19,,,,,,,,,,,,,0,94,94,94,,,,,3,0.150468024568,2018_may._09_0124,60.0111939799,Experimento Piloto1,001,115,
0.25,Stim\\02_075.jpg,Al75_2,Alegría,2,Jonathan pasea al perro.,Afirmación,Al75,75,,,,,,,,,,,,,0,95,95,95,,,,,3,0.65032344032,2018_may._09_0124,60.0111939799,Experimento Piloto1,001,115,
2.5,Stim\\03_028.jpg,Tr28_10,Tristeza,10,Laura finaliza la obra.,Afirmación,Tr28,28,,,,,,,,,,,,,0,96,96,96,,,,,3,0.2005486169,2018_may._09_0124,60.0111939799,Experimento Piloto1,001,115,
2.5,Stim\\02_078.jpg,Al78_3,Alegría,3,Andrea diseña la portada del libro.,Afirmación,Al78,78,,,,,,,,,,,,,0,97,97,97,,,,,3,0.183741590462,2018_may._09_0124,60.0111939799,Experimento Piloto1,001,115,
2.5,Stim\\05_075.jpg,En75_3,Enojo,3,Andrea diseña la portada del libro.,Afirmación,En75,75,,,,,,,,,,,,,0,98,98,98,,,,,3,1.21669475052,2018_may._09_0124,60.0111939799,Experimento Piloto1,001,115,
2.5,Stim\\03_075.jpg,Tr75_3,Tristeza,3,Andrea diseña la portada del libro.,Afirmación,Tr75,75,,,,,,,,,,,,,0,99,99,99,,,,,3,0.150525144271,2018_may._09_0124,60.0111939799,Experimento Piloto1,001,115,
2.5,Stim\\03_075.jpg,Tr75_7,Tristeza,7,Roberto contesta los cuestionarios solicitados.,Afirmación,Tr75,75,,,,,,,,,,,,,0,100,100,100,,,,,3,0.183741144215,2018_may._09_0124,60.0111939799,Experimento Piloto1,001,115,
2.5,Stim\\03_019.jpg,Tr19_14,Tristeza,14,Elizabeth elige la ropa un día antes.,Afirmación,Tr19,19,,,,,,,,,,,,,0,101,101,101,,,,,3,0.183937939442,2018_may._09_0124,60.0111939799,Experimento Piloto1,001,115,
2.5,Stim\\05_078.jpg,En78_5,Enojo,5,Emilio revisa el formato del archivo.,Afirmación,En78,78,,,,,,,,,,,,,0,102,102,102,,,,,4,0.183743821701,2018_may._09_0124,60.0111939799,Experimento Piloto1,001,115,
2.5,Stim\\02_078.jpg,Al78_12,Alegría,12,Ana compra el libro.,Afirmación,Al78,78,,,,,,,,,,,,,0,103,103,103,,,,,2,0.650167699879,2018_may._09_0124,60.0111939799,Experimento Piloto1,001,115,
2.5,Stim\\02_028.jpg,Al28_13,Alegría,13,Rocío consume alimentos nutritivos.,Afirmación,Al28,28,,,,,,,,,,,,,0,104,104,104,,,,,3,0.183763456599,2018_may._09_0124,60.0111939799,Experimento Piloto1,001,115,
2.5,Stim\\05_028.jpg,En28_4,Enojo,4,Jorge sustituye a Gustavo cada sábado.,Afirmación,En28,28,,,,,,,,,,,,,0,105,105,105,,,,,2,0.183977209238,2018_may._09_0124,60.0111939799,Experimento Piloto1,001,115,
0.25,Stim\\02_028.jpg,Al28_7,Alegría,7,Roberto contesta los cuestionarios solicitados.,Afirmación,Al28,28,,,,,,,,,,,,,0,106,106,106,,,,,2,0.249997322514,2018_may._09_0124,60.0111939799,Experimento Piloto1,001,115,
0.25,Stim\\02_078.jpg,Al78_12,Alegría,12,Ana compra el libro.,Afirmación,Al78,78,,,,,,,,,,,,,0,107,107,107,,,,,2,0.383698036689,2018_may._09_0124,60.0111939799,Experimento Piloto1,001,115,
2.5,Stim\\02_028.jpg,Al28_7,Alegría,7,Roberto contesta los cuestionarios solicitados.,Afirmación,Al28,28,,,,,,,,,,,,,0,108,108,108,,,,,2,0.283697054944,2018_may._09_0124,60.0111939799,Experimento Piloto1,001,115,
0.25,Stim\\02_075.jpg,Al75_7,Alegría,7,Roberto contesta los cuestionarios solicitados.,Afirmación,Al75,75,,,,,,,,,,,,,0,109,109,109,,,,,3,0.400343521465,2018_may._09_0124,60.0111939799,Experimento Piloto1,001,115,
0.25,Stim\\05_075.jpg,En75_10,Enojo,10,Laura finaliza la obra.,Afirmación,En75,75,,,,,,,,,,,,,0,110,110,110,,,,,2,0.200332633022,2018_may._09_0124,60.0111939799,Experimento Piloto1,001,115,
2.5,Stim\\05_028.jpg,En28_8,Enojo,8,Estefanía despierta a las 7 a.m.,Afirmación,En28,28,,,,,,,,,,,,,0,111,111,111,,,,,3,0.133860024597,2018_may._09_0124,60.0111939799,Experimento Piloto1,001,115,
0.25,Stim\\03_075.jpg,Tr75_6,Tristeza,6,Eduardo camina hacia la biblioteca.,Afirmación,Tr75,75,,,,,,,,,,,,,0,112,112,112,,,,,3,0.350867148495,2018_may._09_0124,60.0111939799,Experimento Piloto1,001,115,
0.25,Stim\\02_078.jpg,Al78_4,Alegría,4,Jorge sustituye a Gustavo cada sábado.,Afirmación,Al78,78,,,,,,,,,,,,,0,113,113,113,,,,,3,0.200284438272,2018_may._09_0124,60.0111939799,Experimento Piloto1,001,115,
2.5,Stim\\02_019.jpg,Al19_13,Alegría,13,Rocío consume alimentos nutritivos.,Afirmación,Al19,19,,,,,,,,,,,,,0,114,114,114,,,,,3,0.183777290277,2018_may._09_0124,60.0111939799,Experimento Piloto1,001,115,
0.25,Stim\\02_078.jpg,Al78_15,Alegría,15,Ángel envía una carta a la abuela.,Afirmación,Al78,78,,,,,,,,,,,,,0,115,115,115,,,,,2,1.06694830845,2018_may._09_0124,60.0111939799,Experimento Piloto1,001,115,
2.5,Stim\\05_019.jpg,En19_4,Enojo,4,Jorge sustituye a Gustavo cada sábado.,Afirmación,En19,19,,,,,,,,,,,,,0,116,116,116,,,,,2,0.183818345064,2018_may._09_0124,60.0111939799,Experimento Piloto1,001,115,
2.5,Stim\\05_075.jpg,En75_9,Enojo,9,Marco colabora en la organización del evento.,Afirmación,En75,75,,,,,,,,,,,,,0,117,117,117,,,,,2,0.183915180811,2018_may._09_0124,60.0111939799,Experimento Piloto1,001,115,
0.25,Stim\\05_078.jpg,En78_8,Enojo,8,Estefanía despierta a las 7 a.m.,Afirmación,En78,78,,,,,,,,,,,,,0,118,118,118,,,,,3,0.400332365273,2018_may._09_0124,60.0111939799,Experimento Piloto1,001,115,
0.25,Stim\\03_075.jpg,Tr75_12,Tristeza,12,Ana compra el libro.,Afirmación,Tr75,75,,,,,,,,,,,,,0,119,119,119,,,,,3,0.133594507227,2018_may._09_0124,60.0111939799,Experimento Piloto1,001,115,
