Tiempo,ImagenesE,ClaveEn,Emocion,NumEn,Enunciado,ActoHabla,Clave,Cara,trials.thisRepN,trials.thisTrialN,trials.thisN,trials.thisIndex,Bloque2.thisRepN,Bloque2.thisTrialN,Bloque2.thisN,Bloque2.thisIndex,Bloque1.thisRepN,Bloque1.thisTrialN,Bloque1.thisN,Bloque1.thisIndex,Bloque3.thisRepN,Bloque3.thisTrialN,Bloque3.thisN,Bloque3.thisIndex,Resp_Bloque2.keys,Resp_Bloque2.rt,Resp_Bloque1.keys,Resp_Bloque1.rt,Resp_Bloque3.keys,Resp_Bloque3.rt,date,frameRate,expName,session,participant,
2.5,Stim\\03_028.jpg,Tr28_1,Tristeza,1,Juan colecciona monedas antiguas.,Afirmación,Tr28,28,,,,,0,0,0,0,,,,,,,,,4,1.83275618633,,,,,2018_may._09_0211,60.0250181475,Experimento Piloto1,001,116,
0.25,Stim\\03_019.jpg,Tr19_1,Tristeza,1,Juan colecciona monedas antiguas.,Afirmación,Tr19,19,,,,,0,1,1,1,,,,,,,,,3,0.400381452519,,,,,2018_may._09_0211,60.0250181475,Experimento Piloto1,001,116,
2.5,Stim\\03_078.jpg,Tr78_10,Tristeza,10,Laura finaliza la obra.,Afirmación,Tr78,78,,,,,0,2,2,2,,,,,,,,,3,2.4497203812,,,,,2018_may._09_0211,60.0250181475,Experimento Piloto1,001,116,
0.25,Stim\\02_075.jpg,Al75_5,Alegría,5,Emilio revisa el formato del archivo.,Afirmación,Al75,75,,,,,0,3,3,3,,,,,,,,,3,0.500290953488,,,,,2018_may._09_0211,60.0250181475,Experimento Piloto1,001,116,
0.25,Stim\\02_019.jpg,Al19_15,Alegría,15,Ángel envía una carta a la abuela.,Afirmación,Al19,19,,,,,0,4,4,4,,,,,,,,,3,0.333665192859,,,,,2018_may._09_0211,60.0250181475,Experimento Piloto1,001,116,
2.5,Stim\\02_075.jpg,Al75_7,Alegría,7,Roberto contesta los cuestionarios solicitados.,Afirmación,Al75,75,,,,,0,5,5,5,,,,,,,,,3,0.900370742575,,,,,2018_may._09_0211,60.0250181475,Experimento Piloto1,001,116,
0.25,Stim\\03_075.jpg,Tr75_8,Tristeza,8,Estefanía despierta a las 7 a.m.,Afirmación,Tr75,75,,,,,0,6,6,6,,,,,,,,,3,0.650260519397,,,,,2018_may._09_0211,60.0250181475,Experimento Piloto1,001,116,
0.25,Stim\\02_019.jpg,Al19_11,Alegría,11,María asiste a la cena.,Afirmación,Al19,19,,,,,0,7,7,7,,,,,,,,,3,0.450331740527,,,,,2018_may._09_0211,60.0250181475,Experimento Piloto1,001,116,
2.5,Stim\\02_019.jpg,Al19_2,Alegría,2,Jonathan pasea al perro.,Afirmación,Al19,19,,,,,0,8,8,8,,,,,,,,,3,0.43358228004,,,,,2018_may._09_0211,60.0250181475,Experimento Piloto1,001,116,
2.5,Stim\\05_075.jpg,En75_5,Enojo,5,Emilio revisa el formato del archivo.,Afirmación,En75,75,,,,,0,9,9,9,,,,,,,,,4,1.93317530215,,,,,2018_may._09_0211,60.0250181475,Experimento Piloto1,001,116,
0.25,Stim\\03_078.jpg,Tr78_10,Tristeza,10,Laura finaliza la obra.,Afirmación,Tr78,78,,,,,0,10,10,10,,,,,,,,,4,0.583596470717,,,,,2018_may._09_0211,60.0250181475,Experimento Piloto1,001,116,
0.25,Stim\\02_019.jpg,Al19_6,Alegría,6,Eduardo camina hacia la biblioteca.,Afirmación,Al19,19,,,,,0,11,11,11,,,,,,,,,3,0.450489712206,,,,,2018_may._09_0211,60.0250181475,Experimento Piloto1,001,116,
2.5,Stim\\05_019.jpg,En19_3,Enojo,3,Andrea diseña la portada del libro.,Afirmación,En19,19,,,,,0,12,12,12,,,,,,,,,4,1.36673839354,,,,,2018_may._09_0211,60.0250181475,Experimento Piloto1,001,116,
0.25,Stim\\05_019.jpg,En19_3,Enojo,3,Andrea diseña la portada del libro.,Afirmación,En19,19,,,,,0,13,13,13,,,,,,,,,2,2.64962550895,,,,,2018_may._09_0211,60.0250181475,Experimento Piloto1,001,116,
2.5,Stim\\02_028.jpg,Al28_1,Alegría,1,Juan colecciona monedas antiguas.,Afirmación,Al28,28,,,,,0,14,14,14,,,,,,,,,3,0.550332722271,,,,,2018_may._09_0211,60.0250181475,Experimento Piloto1,001,116,
0.25,Stim\\02_019.jpg,Al19_2,Alegría,2,Jonathan pasea al perro.,Afirmación,Al19,19,,,,,0,15,15,15,,,,,,,,,3,0.500133874305,,,,,2018_may._09_0211,60.0250181475,Experimento Piloto1,001,116,
0.25,Stim\\05_028.jpg,En28_11,Enojo,11,María asiste a la cena.,Afirmación,En28,28,,,,,0,16,16,16,,,,,,,,,2,0.650239545756,,,,,2018_may._09_0211,60.0250181475,Experimento Piloto1,001,116,
0.25,Stim\\03_028.jpg,Tr28_1,Tristeza,1,Juan colecciona monedas antiguas.,Afirmación,Tr28,28,,,,,0,17,17,17,,,,,,,,,4,0.750419026574,,,,,2018_may._09_0211,60.0250181475,Experimento Piloto1,001,116,
0.25,Stim\\03_078.jpg,Tr78_1,Tristeza,1,Juan colecciona monedas antiguas.,Afirmación,Tr78,78,,,,,0,18,18,18,,,,,,,,,4,6.13204870526,,,,,2018_may._09_0211,60.0250181475,Experimento Piloto1,001,116,
0.25,Stim\\02_019.jpg,Al19_1,Alegría,1,Juan colecciona monedas antiguas.,Afirmación,Al19,19,,,,,0,19,19,19,,,,,,,,,3,0.400273906827,,,,,2018_may._09_0211,60.0250181475,Experimento Piloto1,001,116,
0.25,Stim\\02_019.jpg,Al19_10,Alegría,10,Laura finaliza la obra.,Afirmación,Al19,19,,,,,0,20,20,20,,,,,,,,,3,0.550301484934,,,,,2018_may._09_0211,60.0250181475,Experimento Piloto1,001,116,
2.5,Stim\\03_019.jpg,Tr19_13,Tristeza,13,Rocío consume alimentos nutritivos.,Afirmación,Tr19,19,,,,,0,21,21,21,,,,,,,,,2,0.750345841953,,,,,2018_may._09_0211,60.0250181475,Experimento Piloto1,001,116,
2.5,Stim\\05_075.jpg,En75_6,Enojo,6,Eduardo camina hacia la biblioteca.,Afirmación,En75,75,,,,,0,22,22,22,,,,,,,,,2,5.01553611304,,,,,2018_may._09_0211,60.0250181475,Experimento Piloto1,001,116,
0.25,Stim\\05_078.jpg,En78_10,Enojo,10,Laura finaliza la obra.,Afirmación,En78,78,,,,,0,23,23,23,,,,,,,,,2,0.700730239707,,,,,2018_may._09_0211,60.0250181475,Experimento Piloto1,001,116,
2.5,Stim\\05_075.jpg,En75_14,Enojo,14,Elizabeth elige la ropa un día antes.,Afirmación,En75,75,,,,,0,24,24,24,,,,,,,,,2,2.29981462871,,,,,2018_may._09_0211,60.0250181475,Experimento Piloto1,001,116,
0.25,Stim\\05_019.jpg,En19_7,Enojo,7,Roberto contesta los cuestionarios solicitados.,Afirmación,En19,19,,,,,0,25,25,25,,,,,,,,,2,2.18308783761,,,,,2018_may._09_0211,60.0250181475,Experimento Piloto1,001,116,
0.25,Stim\\02_078.jpg,Al78_14,Alegría,14,Elizabeth elige la ropa un día antes.,Afirmación,Al78,78,,,,,0,26,26,26,,,,,,,,,3,1.63330935496,,,,,2018_may._09_0211,60.0250181475,Experimento Piloto1,001,116,
0.25,Stim\\03_028.jpg,Tr28_13,Tristeza,13,Rocío consume alimentos nutritivos.,Afirmación,Tr28,28,,,,,0,27,27,27,,,,,,,,,4,0.650166361135,,,,,2018_may._09_0211,60.0250181475,Experimento Piloto1,001,116,
2.5,Stim\\03_019.jpg,Tr19_8,Tristeza,8,Estefanía despierta a las 7 a.m.,Afirmación,Tr19,19,,,,,0,28,28,28,,,,,,,,,2,0.600222766843,,,,,2018_may._09_0211,60.0250181475,Experimento Piloto1,001,116,
2.5,Stim\\02_019.jpg,Al19_8,Alegría,8,Estefanía despierta a las 7 a.m.,Afirmación,Al19,19,,,,,0,29,29,29,,,,,,,,,3,0.483774880539,,,,,2018_may._09_0211,60.0250181475,Experimento Piloto1,001,116,
2.5,Stim\\02_028.jpg,Al28_9,Alegría,9,Marco colabora en la organización del evento.,Afirmación,Al28,28,,,,,0,30,30,30,,,,,,,,,3,0.750268641104,,,,,2018_may._09_0211,60.0250181475,Experimento Piloto1,001,116,
2.5,Stim\\03_075.jpg,Tr75_1,Tristeza,1,Juan colecciona monedas antiguas.,Afirmación,Tr75,75,,,,,0,31,31,31,,,,,,,,,4,4.89900433217,,,,,2018_may._09_0211,60.0250181475,Experimento Piloto1,001,116,
2.5,Stim\\05_078.jpg,En78_8,Enojo,8,Estefanía despierta a las 7 a.m.,Afirmación,En78,78,,,,,0,32,32,32,,,,,,,,,3,0.750240081253,,,,,2018_may._09_0211,60.0250181475,Experimento Piloto1,001,116,
0.25,Stim\\02_028.jpg,Al28_12,Alegría,12,Ana compra el libro.,Afirmación,Al28,28,,,,,0,33,33,33,,,,,,,,,3,0.916918052861,,,,,2018_may._09_0211,60.0250181475,Experimento Piloto1,001,116,
0.25,Stim\\05_075.jpg,En75_1,Enojo,1,Juan colecciona monedas antiguas.,Afirmación,En75,75,,,,,0,34,34,34,,,,,,,,,3,2.44963782538,,,,,2018_may._09_0211,60.0250181475,Experimento Piloto1,001,116,
0.25,Stim\\03_028.jpg,Tr28_4,Tristeza,4,Jorge sustituye a Gustavo cada sábado.,Afirmación,Tr28,28,,,,,0,35,35,35,,,,,,,,,3,1.98332149289,,,,,2018_may._09_0211,60.0250181475,Experimento Piloto1,001,116,
2.5,Stim\\03_078.jpg,Tr78_3,Tristeza,3,Andrea diseña la portada del libro.,Afirmación,Tr78,78,,,,,0,36,36,36,,,,,,,,,3,1.61675133473,,,,,2018_may._09_0211,60.0250181475,Experimento Piloto1,001,116,
0.25,Stim\\05_078.jpg,En78_4,Enojo,4,Jorge sustituye a Gustavo cada sábado.,Afirmación,En78,78,,,,,0,37,37,37,,,,,,,,,3,0.750328438294,,,,,2018_may._09_0211,60.0250181475,Experimento Piloto1,001,116,
2.5,Stim\\03_019.jpg,Tr19_7,Tristeza,7,Roberto contesta los cuestionarios solicitados.,Afirmación,Tr19,19,,,,,0,38,38,38,,,,,,,,,3,1.56670956594,,,,,2018_may._09_0211,60.0250181475,Experimento Piloto1,001,116,
0.25,Stim\\02_078.jpg,Al78_2,Alegría,2,Jonathan pasea al perro.,Afirmación,Al78,78,,,,,0,39,39,39,,,,,,,,,3,1.93299591059,,,,,2018_may._09_0211,60.0250181475,Experimento Piloto1,001,116,
0.25,Stim\\02_078.jpg,Al78_5,Alegría,5,Emilio revisa el formato del archivo.,Afirmación,Al78,78,,,,,0,40,40,40,,,,,,,,,3,0.450325046811,,,,,2018_may._09_0211,60.0250181475,Experimento Piloto1,001,116,
2.5,Stim\\05_019.jpg,En19_11,Enojo,11,María asiste a la cena.,Afirmación,En19,19,,,,,0,41,41,41,,,,,,,,,3,0.60020982566,,,,,2018_may._09_0211,60.0250181475,Experimento Piloto1,001,116,
2.5,Stim\\02_028.jpg,Al28_15,Alegría,15,Ángel envía una carta a la abuela.,Afirmación,Al28,28,,,,,0,42,42,42,,,,,,,,,3,0.499898701776,,,,,2018_may._09_0211,60.0250181475,Experimento Piloto1,001,116,
0.25,Stim\\03_019.jpg,Tr19_4,Tristeza,4,Jorge sustituye a Gustavo cada sábado.,Afirmación,Tr19,19,,,,,0,43,43,43,,,,,,,,,3,0.599935383336,,,,,2018_may._09_0211,60.0250181475,Experimento Piloto1,001,116,
2.5,Stim\\02_075.jpg,Al75_12,Alegría,12,Ana compra el libro.,Afirmación,Al75,75,,,,,0,44,44,44,,,,,,,,,3,0.450215269881,,,,,2018_may._09_0211,60.0250181475,Experimento Piloto1,001,116,
2.5,Stim\\05_028.jpg,En28_12,Enojo,12,Ana compra el libro.,Afirmación,En28,28,,,,,0,45,45,45,,,,,,,,,2,0.69996537118,,,,,2018_may._09_0211,60.0250181475,Experimento Piloto1,001,116,
0.25,Stim\\02_028.jpg,Al28_14,Alegría,14,Elizabeth elige la ropa un día antes.,Afirmación,Al28,28,,,,,0,46,46,46,,,,,,,,,3,2.59971627572,,,,,2018_may._09_0211,60.0250181475,Experimento Piloto1,001,116,
2.5,Stim\\03_075.jpg,Tr75_6,Tristeza,6,Eduardo camina hacia la biblioteca.,Afirmación,Tr75,75,,,,,0,47,47,47,,,,,,,,,3,0.650217233372,,,,,2018_may._09_0211,60.0250181475,Experimento Piloto1,001,116,
0.25,Stim\\05_028.jpg,En28_8,Enojo,8,Estefanía despierta a las 7 a.m.,Afirmación,En28,28,,,,,0,48,48,48,,,,,,,,,3,1.01649822304,,,,,2018_may._09_0211,60.0250181475,Experimento Piloto1,001,116,
2.5,Stim\\05_019.jpg,En19_7,Enojo,7,Roberto contesta los cuestionarios solicitados.,Afirmación,En19,19,,,,,0,49,49,49,,,,,,,,,3,0.650492121944,,,,,2018_may._09_0211,60.0250181475,Experimento Piloto1,001,116,
2.5,Stim\\02_019.jpg,Al19_10,Alegría,10,Laura finaliza la obra.,Afirmación,Al19,19,,,,,0,50,50,50,,,,,,,,,3,0.550296129962,,,,,2018_may._09_0211,60.0250181475,Experimento Piloto1,001,116,
0.25,Stim\\05_028.jpg,En28_14,Enojo,14,Elizabeth elige la ropa un día antes.,Afirmación,En28,28,,,,,0,51,51,51,,,,,,,,,3,0.450333971766,,,,,2018_may._09_0211,60.0250181475,Experimento Piloto1,001,116,
2.5,Stim\\03_028.jpg,Tr28_8,Tristeza,8,Estefanía despierta a las 7 a.m.,Afirmación,Tr28,28,,,,,0,52,52,52,,,,,,,,,3,0.70073336344,,,,,2018_may._09_0211,60.0250181475,Experimento Piloto1,001,116,
0.25,Stim\\02_075.jpg,Al75_3,Alegría,3,Andrea diseña la portada del libro.,Afirmación,Al75,75,,,,,0,53,53,53,,,,,,,,,3,0.650359140134,,,,,2018_may._09_0211,60.0250181475,Experimento Piloto1,001,116,
0.25,Stim\\02_028.jpg,Al28_1,Alegría,1,Juan colecciona monedas antiguas.,Afirmación,Al28,28,,,,,0,54,54,54,,,,,,,,,3,0.500289614746,,,,,2018_may._09_0211,60.0250181475,Experimento Piloto1,001,116,
0.25,Stim\\03_028.jpg,Tr28_3,Tristeza,3,Andrea diseña la portada del libro.,Afirmación,Tr28,28,,,,,0,55,55,55,,,,,,,,,3,0.400364495106,,,,,2018_may._09_0211,60.0250181475,Experimento Piloto1,001,116,
2.5,Stim\\02_078.jpg,Al78_11,Alegría,11,María asiste a la cena.,Afirmación,Al78,78,,,,,0,56,56,56,,,,,,,,,3,0.400255610673,,,,,2018_may._09_0211,60.0250181475,Experimento Piloto1,001,116,
0.25,Stim\\03_019.jpg,Tr19_12,Tristeza,12,Ana compra el libro.,Afirmación,Tr19,19,,,,,0,57,57,57,,,,,,,,,3,0.333642434228,,,,,2018_may._09_0211,60.0250181475,Experimento Piloto1,001,116,
2.5,Stim\\02_078.jpg,Al78_14,Alegría,14,Elizabeth elige la ropa un día antes.,Afirmación,Al78,78,,,,,0,58,58,58,,,,,,,,,3,0.450299164446,,,,,2018_may._09_0211,60.0250181475,Experimento Piloto1,001,116,
0.25,Stim\\03_019.jpg,Tr19_2,Tristeza,2,Jonathan pasea al perro.,Afirmación,Tr19,19,,,,,0,59,59,59,,,,,,,,,3,0.483694555956,,,,,2018_may._09_0211,60.0250181475,Experimento Piloto1,001,116,
2.5,Stim\\03_078.jpg,Tr78_1,Tristeza,1,Juan colecciona monedas antiguas.,Afirmación,Tr78,78,,,,,0,60,60,60,,,,,,,,,3,0.433812990092,,,,,2018_may._09_0211,60.0250181475,Experimento Piloto1,001,116,
0.25,Stim\\03_078.jpg,Tr78_4,Tristeza,4,Jorge sustituye a Gustavo cada sábado.,Afirmación,Tr78,78,,,,,0,61,61,61,,,,,,,,,3,0.38365341192,,,,,2018_may._09_0211,60.0250181475,Experimento Piloto1,001,116,
0.25,Stim\\05_019.jpg,En19_14,Enojo,14,Elizabeth elige la ropa un día antes.,Afirmación,En19,19,,,,,0,62,62,62,,,,,,,,,3,0.5003079109,,,,,2018_may._09_0211,60.0250181475,Experimento Piloto1,001,116,
0.25,Stim\\02_075.jpg,Al75_15,Alegría,15,Ángel envía una carta a la abuela.,Afirmación,Al75,75,,,,,0,63,63,63,,,,,,,,,3,0.35048114425,,,,,2018_may._09_0211,60.0250181475,Experimento Piloto1,001,116,
2.5,Stim\\03_028.jpg,Tr28_2,Tristeza,2,Jonathan pasea al perro.,Afirmación,Tr28,28,,,,,0,64,64,64,,,,,,,,,3,1.31674794324,,,,,2018_may._09_0211,60.0250181475,Experimento Piloto1,001,116,
0.25,Stim\\05_028.jpg,En28_3,Enojo,3,Andrea diseña la portada del libro.,Afirmación,En28,28,,,,,0,65,65,65,,,,,,,,,3,0.583591115744,,,,,2018_may._09_0211,60.0250181475,Experimento Piloto1,001,116,
0.25,Stim\\05_078.jpg,En78_3,Enojo,3,Andrea diseña la portada del libro.,Afirmación,En78,78,,,,,0,66,66,66,,,,,,,,,3,0.433586742516,,,,,2018_may._09_0211,60.0250181475,Experimento Piloto1,001,116,
0.25,Stim\\05_075.jpg,En75_9,Enojo,9,Marco colabora en la organización del evento.,Afirmación,En75,75,,,,,0,67,67,67,,,,,,,,,2,1.53294825133,,,,,2018_may._09_0211,60.0250181475,Experimento Piloto1,001,116,
2.5,Stim\\05_075.jpg,En75_7,Enojo,7,Roberto contesta los cuestionarios solicitados.,Afirmación,En75,75,,,,,0,68,68,68,,,,,,,,,3,0.483707943387,,,,,2018_may._09_0211,60.0250181475,Experimento Piloto1,001,116,
0.25,Stim\\03_078.jpg,Tr78_14,Tristeza,14,Elizabeth elige la ropa un día antes.,Afirmación,Tr78,78,,,,,0,69,69,69,,,,,,,,,3,0.450508900856,,,,,2018_may._09_0211,60.0250181475,Experimento Piloto1,001,116,
2.5,Stim\\03_019.jpg,Tr19_5,Tristeza,5,Emilio revisa el formato del archivo.,Afirmación,Tr19,19,,,,,0,70,70,70,,,,,,,,,2,3.51628759414,,,,,2018_may._09_0211,60.0250181475,Experimento Piloto1,001,116,
2.5,Stim\\05_028.jpg,En28_13,Enojo,13,Rocío consume alimentos nutritivos.,Afirmación,En28,28,,,,,0,71,71,71,,,,,,,,,3,0.600355748652,,,,,2018_may._09_0211,60.0250181475,Experimento Piloto1,001,116,
0.25,Stim\\05_075.jpg,En75_15,Enojo,15,Ángel envía una carta a la abuela.,Afirmación,En75,75,,,,,0,72,72,72,,,,,,,,,3,0.500612698067,,,,,2018_may._09_0211,60.0250181475,Experimento Piloto1,001,116,
2.5,Stim\\05_019.jpg,En19_6,Enojo,6,Eduardo camina hacia la biblioteca.,Afirmación,En19,19,,,,,0,73,73,73,,,,,,,,,3,0.650345752704,,,,,2018_may._09_0211,60.0250181475,Experimento Piloto1,001,116,
2.5,Stim\\05_078.jpg,En78_10,Enojo,10,Laura finaliza la obra.,Afirmación,En78,78,,,,,0,74,74,74,,,,,,,,,3,0.65028684801,,,,,2018_may._09_0211,60.0250181475,Experimento Piloto1,001,116,
2.5,Stim\\05_019.jpg,En19_9,Enojo,9,Marco colabora en la organización del evento.,Afirmación,En19,19,,,,,0,75,75,75,,,,,,,,,3,0.549933330596,,,,,2018_may._09_0211,60.0250181475,Experimento Piloto1,001,116,
2.5,Stim\\02_078.jpg,Al78_6,Alegría,6,Eduardo camina hacia la biblioteca.,Afirmación,Al78,78,,,,,0,76,76,76,,,,,,,,,3,0.400338166493,,,,,2018_may._09_0211,60.0250181475,Experimento Piloto1,001,116,
2.5,Stim\\05_078.jpg,En78_13,Enojo,13,Rocío consume alimentos nutritivos.,Afirmación,En78,78,,,,,0,77,77,77,,,,,,,,,3,0.483636543758,,,,,2018_may._09_0211,60.0250181475,Experimento Piloto1,001,116,
0.25,Stim\\05_028.jpg,En28_2,Enojo,2,Jonathan pasea al perro.,Afirmación,En28,28,,,,,0,78,78,78,,,,,,,,,3,0.383652965673,,,,,2018_may._09_0211,60.0250181475,Experimento Piloto1,001,116,
0.25,Stim\\05_019.jpg,En19_6,Enojo,6,Eduardo camina hacia la biblioteca.,Afirmación,En19,19,,,,,0,79,79,79,,,,,,,,,3,2.23320145227,,,,,2018_may._09_0211,60.0250181475,Experimento Piloto1,001,116,
2.5,Stim\\03_019.jpg,Tr19_11,Tristeza,11,María asiste a la cena.,Afirmación,Tr19,19,,,,,0,80,80,80,,,,,,,,,3,0.700180908811,,,,,2018_may._09_0211,60.0250181475,Experimento Piloto1,001,116,
2.5,Stim\\05_028.jpg,En28_11,Enojo,11,María asiste a la cena.,Afirmación,En28,28,,,,,0,81,81,81,,,,,,,,,3,2.84956589025,,,,,2018_may._09_0211,60.0250181475,Experimento Piloto1,001,116,
0.25,Stim\\02_078.jpg,Al78_9,Alegría,9,Marco colabora en la organización del evento.,Afirmación,Al78,78,,,,,0,82,82,82,,,,,,,,,3,0.500405639143,,,,,2018_may._09_0211,60.0250181475,Experimento Piloto1,001,116,
0.25,Stim\\05_019.jpg,En19_13,Enojo,13,Rocío consume alimentos nutritivos.,Afirmación,En19,19,,,,,0,83,83,83,,,,,,,,,3,0.400310945384,,,,,2018_may._09_0211,60.0250181475,Experimento Piloto1,001,116,
0.25,Stim\\03_078.jpg,Tr78_11,Tristeza,11,María asiste a la cena.,Afirmación,Tr78,78,,,,,0,84,84,84,,,,,,,,,3,0.300315318612,,,,,2018_may._09_0211,60.0250181475,Experimento Piloto1,001,116,
2.5,Stim\\05_028.jpg,En28_5,Enojo,5,Emilio revisa el formato del archivo.,Afirmación,En28,28,,,,,0,85,85,85,,,,,,,,,3,0.333807099622,,,,,2018_may._09_0211,60.0250181475,Experimento Piloto1,001,116,
0.25,Stim\\03_028.jpg,Tr28_10,Tristeza,10,Laura finaliza la obra.,Afirmación,Tr28,28,,,,,0,86,86,86,,,,,,,,,3,0.334020852261,,,,,2018_may._09_0211,60.0250181475,Experimento Piloto1,001,116,
0.25,Stim\\05_019.jpg,En19_11,Enojo,11,María asiste a la cena.,Afirmación,En19,19,,,,,0,87,87,87,,,,,,,,,3,0.450213931139,,,,,2018_may._09_0211,60.0250181475,Experimento Piloto1,001,116,
2.5,Stim\\03_028.jpg,Tr28_9,Tristeza,9,Marco colabora en la organización del evento.,Afirmación,Tr28,28,,,,,0,88,88,88,,,,,,,,,3,0.383686880496,,,,,2018_may._09_0211,60.0250181475,Experimento Piloto1,001,116,
2.5,Stim\\05_019.jpg,En19_8,Enojo,8,Estefanía despierta a las 7 a.m.,Afirmación,En19,19,,,,,0,89,89,89,,,,,,,,,3,0.450311659381,,,,,2018_may._09_0211,60.0250181475,Experimento Piloto1,001,116,
0.25,Stim\\03_075.jpg,Tr75_9,Tristeza,9,Marco colabora en la organización del evento.,Afirmación,Tr75,75,,,,,0,90,90,90,,,,,,,,,3,0.70029827195,,,,,2018_may._09_0211,60.0250181475,Experimento Piloto1,001,116,
2.5,Stim\\02_075.jpg,Al75_3,Alegría,3,Andrea diseña la portada del libro.,Afirmación,Al75,75,,,,,0,91,91,91,,,,,,,,,3,0.483843602682,,,,,2018_may._09_0211,60.0250181475,Experimento Piloto1,001,116,
0.25,Stim\\05_028.jpg,En28_12,Enojo,12,Ana compra el libro.,Afirmación,En28,28,,,,,0,92,92,92,,,,,,,,,3,0.650290417992,,,,,2018_may._09_0211,60.0250181475,Experimento Piloto1,001,116,
0.25,Stim\\03_028.jpg,Tr28_7,Tristeza,7,Roberto contesta los cuestionarios solicitados.,Afirmación,Tr28,28,,,,,0,93,93,93,,,,,,,,,3,0.500340486981,,,,,2018_may._09_0211,60.0250181475,Experimento Piloto1,001,116,
0.25,Stim\\03_019.jpg,Tr19_8,Tristeza,8,Estefanía despierta a las 7 a.m.,Afirmación,Tr19,19,,,,,0,94,94,94,,,,,,,,,3,0.550228300313,,,,,2018_may._09_0211,60.0250181475,Experimento Piloto1,001,116,
0.25,Stim\\02_019.jpg,Al19_4,Alegría,4,Jorge sustituye a Gustavo cada sábado.,Afirmación,Al19,19,,,,,0,95,95,95,,,,,,,,,3,0.800351018426,,,,,2018_may._09_0211,60.0250181475,Experimento Piloto1,001,116,
2.5,Stim\\05_019.jpg,En19_15,Enojo,15,Ángel envía una carta a la abuela.,Afirmación,En19,19,,,,,0,96,96,96,,,,,,,,,3,0.600253111686,,,,,2018_may._09_0211,60.0250181475,Experimento Piloto1,001,116,
0.25,Stim\\05_075.jpg,En75_13,Enojo,13,Rocío consume alimentos nutritivos.,Afirmación,En75,75,,,,,0,97,97,97,,,,,,,,,3,0.950209914909,,,,,2018_may._09_0211,60.0250181475,Experimento Piloto1,001,116,
0.25,Stim\\02_078.jpg,Al78_7,Alegría,7,Roberto contesta los cuestionarios solicitados.,Afirmación,Al78,78,,,,,0,98,98,98,,,,,,,,,3,0.600241062997,,,,,2018_may._09_0211,60.0250181475,Experimento Piloto1,001,116,
2.5,Stim\\03_028.jpg,Tr28_3,Tristeza,3,Andrea diseña la portada del libro.,Afirmación,Tr28,28,,,,,0,99,99,99,,,,,,,,,3,0.950305858161,,,,,2018_may._09_0211,60.0250181475,Experimento Piloto1,001,116,
2.5,Stim\\05_075.jpg,En75_15,Enojo,15,Ángel envía una carta a la abuela.,Afirmación,En75,75,,,,,0,100,100,100,,,,,,,,,3,0.449971172399,,,,,2018_may._09_0211,60.0250181475,Experimento Piloto1,001,116,
0.25,Stim\\02_028.jpg,Al28_13,Alegría,13,Rocío consume alimentos nutritivos.,Afirmación,Al28,28,,,,,0,101,101,101,,,,,,,,,3,0.483792730446,,,,,2018_may._09_0211,60.0250181475,Experimento Piloto1,001,116,
0.25,Stim\\03_028.jpg,Tr28_15,Tristeza,15,Ángel envía una carta a la abuela.,Afirmación,Tr28,28,,,,,0,102,102,102,,,,,,,,,3,0.500280689792,,,,,2018_may._09_0211,60.0250181475,Experimento Piloto1,001,116,
0.25,Stim\\05_019.jpg,En19_2,Enojo,2,Jonathan pasea al perro.,Afirmación,En19,19,,,,,0,103,103,103,,,,,,,,,3,0.500289168498,,,,,2018_may._09_0211,60.0250181475,Experimento Piloto1,001,116,
0.25,Stim\\03_078.jpg,Tr78_13,Tristeza,13,Rocío consume alimentos nutritivos.,Afirmación,Tr78,78,,,,,0,104,104,104,,,,,,,,,3,0.850276316564,,,,,2018_may._09_0211,60.0250181475,Experimento Piloto1,001,116,
2.5,Stim\\03_075.jpg,Tr75_2,Tristeza,2,Jonathan pasea al perro.,Afirmación,Tr75,75,,,,,0,105,105,105,,,,,,,,,3,1.0668327303,,,,,2018_may._09_0211,60.0250181475,Experimento Piloto1,001,116,
2.5,Stim\\05_075.jpg,En75_10,Enojo,10,Laura finaliza la obra.,Afirmación,En75,75,,,,,0,106,106,106,,,,,,,,,3,1.51667538337,,,,,2018_may._09_0211,60.0250181475,Experimento Piloto1,001,116,
2.5,Stim\\05_028.jpg,En28_3,Enojo,3,Andrea diseña la portada del libro.,Afirmación,En28,28,,,,,0,107,107,107,,,,,,,,,3,0.600175464589,,,,,2018_may._09_0211,60.0250181475,Experimento Piloto1,001,116,
2.5,Stim\\02_078.jpg,Al78_8,Alegría,8,Estefanía despierta a las 7 a.m.,Afirmación,Al78,78,,,,,0,108,108,108,,,,,,,,,3,0.866840138015,,,,,2018_may._09_0211,60.0250181475,Experimento Piloto1,001,116,
2.5,Stim\\05_075.jpg,En75_2,Enojo,2,Jonathan pasea al perro.,Afirmación,En75,75,,,,,0,109,109,109,,,,,,,,,2,0.900106117699,,,,,2018_may._09_0211,60.0250181475,Experimento Piloto1,001,116,
0.25,Stim\\05_078.jpg,En78_2,Enojo,2,Jonathan pasea al perro.,Afirmación,En78,78,,,,,0,110,110,110,,,,,,,,,2,1.10012726984,,,,,2018_may._09_0211,60.0250181475,Experimento Piloto1,001,116,
2.5,Stim\\05_078.jpg,En78_14,Enojo,14,Elizabeth elige la ropa un día antes.,Afirmación,En78,78,,,,,0,111,111,111,,,,,,,,,3,0.450523180782,,,,,2018_may._09_0211,60.0250181475,Experimento Piloto1,001,116,
2.5,Stim\\05_028.jpg,En28_1,Enojo,1,Juan colecciona monedas antiguas.,Afirmación,En28,28,,,,,0,112,112,112,,,,,,,,,3,0.500249898701,,,,,2018_may._09_0211,60.0250181475,Experimento Piloto1,001,116,
0.25,Stim\\05_019.jpg,En19_12,Enojo,12,Ana compra el libro.,Afirmación,En19,19,,,,,0,113,113,113,,,,,,,,,3,0.500261947389,,,,,2018_may._09_0211,60.0250181475,Experimento Piloto1,001,116,
0.25,Stim\\02_075.jpg,Al75_13,Alegría,13,Rocío consume alimentos nutritivos.,Afirmación,Al75,75,,,,,0,114,114,114,,,,,,,,,3,0.383748016429,,,,,2018_may._09_0211,60.0250181475,Experimento Piloto1,001,116,
2.5,Stim\\03_019.jpg,Tr19_6,Tristeza,6,Eduardo camina hacia la biblioteca.,Afirmación,Tr19,19,,,,,0,115,115,115,,,,,,,,,3,0.800169841867,,,,,2018_may._09_0211,60.0250181475,Experimento Piloto1,001,116,
2.5,Stim\\05_028.jpg,En28_14,Enojo,14,Elizabeth elige la ropa un día antes.,Afirmación,En28,28,,,,,0,116,116,116,,,,,,,,,3,0.383676170552,,,,,2018_may._09_0211,60.0250181475,Experimento Piloto1,001,116,
2.5,Stim\\02_028.jpg,Al28_5,Alegría,5,Emilio revisa el formato del archivo.,Afirmación,Al28,28,,,,,0,117,117,117,,,,,,,,,3,1.36661478294,,,,,2018_may._09_0211,60.0250181475,Experimento Piloto1,001,116,
2.5,Stim\\02_078.jpg,Al78_9,Alegría,9,Marco colabora en la organización del evento.,Afirmación,Al78,78,,,,,0,118,118,118,,,,,,,,,3,0.383692235469,,,,,2018_may._09_0211,60.0250181475,Experimento Piloto1,001,116,
0.25,Stim\\03_019.jpg,Tr19_3,Tristeza,3,Andrea diseña la portada del libro.,Afirmación,Tr19,19,,,,,0,119,119,119,,,,,,,,,3,0.533812633093,,,,,2018_may._09_0211,60.0250181475,Experimento Piloto1,001,116,
0.25,Stim\\03_028.jpg,Tr28_2,Tristeza,2,Jonathan pasea al perro.,Afirmación,Tr28,28,,,,,,,,,0,0,0,0,,,,,,,3,0.333723205058,,,2018_may._09_0211,60.0250181475,Experimento Piloto1,001,116,
2.5,Stim\\05_075.jpg,En75_12,Enojo,12,Ana compra el libro.,Afirmación,En75,75,,,,,,,,,0,1,1,1,,,,,,,2,2.39974242584,,,2018_may._09_0211,60.0250181475,Experimento Piloto1,001,116,
0.25,Stim\\02_078.jpg,Al78_11,Alegría,11,María asiste a la cena.,Afirmación,Al78,78,,,,,,,,,0,2,2,2,,,,,,,3,0.533595310473,,,2018_may._09_0211,60.0250181475,Experimento Piloto1,001,116,
0.25,Stim\\02_078.jpg,Al78_8,Alegría,8,Estefanía despierta a las 7 a.m.,Afirmación,Al78,78,,,,,,,,,0,3,3,3,,,,,,,3,0.583703570161,,,2018_may._09_0211,60.0250181475,Experimento Piloto1,001,116,
0.25,Stim\\05_028.jpg,En28_6,Enojo,6,Eduardo camina hacia la biblioteca.,Afirmación,En28,28,,,,,,,,,0,4,4,4,,,,,,,2,1.05030505491,,,2018_may._09_0211,60.0250181475,Experimento Piloto1,001,116,
0.25,Stim\\02_019.jpg,Al19_14,Alegría,14,Elizabeth elige la ropa un día antes.,Afirmación,Al19,19,,,,,,,,,0,5,5,5,,,,,,,3,0.550264000129,,,2018_may._09_0211,60.0250181475,Experimento Piloto1,001,116,
2.5,Stim\\05_078.jpg,En78_1,Enojo,1,Juan colecciona monedas antiguas.,Afirmación,En78,78,,,,,,,,,0,6,6,6,,,,,,,3,0.600390109723,,,2018_may._09_0211,60.0250181475,Experimento Piloto1,001,116,
2.5,Stim\\02_078.jpg,Al78_15,Alegría,15,Ángel envía una carta a la abuela.,Afirmación,Al78,78,,,,,,,,,0,7,7,7,,,,,,,3,0.383677509297,,,2018_may._09_0211,60.0250181475,Experimento Piloto1,001,116,
0.25,Stim\\02_075.jpg,Al75_14,Alegría,14,Elizabeth elige la ropa un día antes.,Afirmación,Al75,75,,,,,,,,,0,8,8,8,,,,,,,3,0.500180730312,,,2018_may._09_0211,60.0250181475,Experimento Piloto1,001,116,
2.5,Stim\\02_075.jpg,Al75_2,Alegría,2,Jonathan pasea al perro.,Afirmación,Al75,75,,,,,,,,,0,9,9,9,,,,,,,3,0.500372170567,,,2018_may._09_0211,60.0250181475,Experimento Piloto1,001,116,
0.25,Stim\\05_075.jpg,En75_12,Enojo,12,Ana compra el libro.,Afirmación,En75,75,,,,,,,,,0,10,10,10,,,,,,,3,0.500292738479,,,2018_may._09_0211,60.0250181475,Experimento Piloto1,001,116,
2.5,Stim\\03_078.jpg,Tr78_8,Tristeza,8,Estefanía despierta a las 7 a.m.,Afirmación,Tr78,78,,,,,,,,,0,11,11,11,,,,,,,3,0.400374758803,,,2018_may._09_0211,60.0250181475,Experimento Piloto1,001,116,
0.25,Stim\\03_078.jpg,Tr78_15,Tristeza,15,Ángel envía una carta a la abuela.,Afirmación,Tr78,78,,,,,,,,,0,12,12,12,,,,,,,3,0.55027738756,,,2018_may._09_0211,60.0250181475,Experimento Piloto1,001,116,
0.25,Stim\\03_078.jpg,Tr78_5,Tristeza,5,Emilio revisa el formato del archivo.,Afirmación,Tr78,78,,,,,,,,,0,13,13,13,,,,,,,3,0.600377168541,,,2018_may._09_0211,60.0250181475,Experimento Piloto1,001,116,
2.5,Stim\\02_019.jpg,Al19_5,Alegría,5,Emilio revisa el formato del archivo.,Afirmación,Al19,19,,,,,,,,,0,14,14,14,,,,,,,3,0.333949006385,,,2018_may._09_0211,60.0250181475,Experimento Piloto1,001,116,
2.5,Stim\\03_075.jpg,Tr75_10,Tristeza,10,Laura finaliza la obra.,Afirmación,Tr75,75,,,,,,,,,0,15,15,15,,,,,,,3,1.98310461652,,,2018_may._09_0211,60.0250181475,Experimento Piloto1,001,116,
2.5,Stim\\03_075.jpg,Tr75_4,Tristeza,4,Jorge sustituye a Gustavo cada sábado.,Afirmación,Tr75,75,,,,,,,,,0,16,16,16,,,,,,,3,0.650338166493,,,2018_may._09_0211,60.0250181475,Experimento Piloto1,001,116,
0.25,Stim\\03_028.jpg,Tr28_5,Tristeza,5,Emilio revisa el formato del archivo.,Afirmación,Tr28,28,,,,,,,,,0,17,17,17,,,,,,,3,0.383797996168,,,2018_may._09_0211,60.0250181475,Experimento Piloto1,001,116,
0.25,Stim\\05_075.jpg,En75_11,Enojo,11,María asiste a la cena.,Afirmación,En75,75,,,,,,,,,0,18,18,18,,,,,,,2,0.600400819667,,,2018_may._09_0211,60.0250181475,Experimento Piloto1,001,116,
0.25,Stim\\02_075.jpg,Al75_6,Alegría,6,Eduardo camina hacia la biblioteca.,Afirmación,Al75,75,,,,,,,,,0,19,19,19,,,,,,,3,0.333760243617,,,2018_may._09_0211,60.0250181475,Experimento Piloto1,001,116,
0.25,Stim\\05_078.jpg,En78_1,Enojo,1,Juan colecciona monedas antiguas.,Afirmación,En78,78,,,,,,,,,0,20,20,20,,,,,,,3,0.5002601624,,,2018_may._09_0211,60.0250181475,Experimento Piloto1,001,116,
2.5,Stim\\03_019.jpg,Tr19_4,Tristeza,4,Jorge sustituye a Gustavo cada sábado.,Afirmación,Tr19,19,,,,,,,,,0,21,21,21,,,,,,,3,0.383638685746,,,2018_may._09_0211,60.0250181475,Experimento Piloto1,001,116,
0.25,Stim\\03_028.jpg,Tr28_11,Tristeza,11,María asiste a la cena.,Afirmación,Tr28,28,,,,,,,,,0,22,22,22,,,,,,,3,1.05029255998,,,2018_may._09_0211,60.0250181475,Experimento Piloto1,001,116,
0.25,Stim\\02_019.jpg,Al19_7,Alegría,7,Roberto contesta los cuestionarios solicitados.,Afirmación,Al19,19,,,,,,,,,0,23,23,23,,,,,,,3,0.500477038773,,,2018_may._09_0211,60.0250181475,Experimento Piloto1,001,116,
0.25,Stim\\05_028.jpg,En28_1,Enojo,1,Juan colecciona monedas antiguas.,Afirmación,En28,28,,,,,,,,,0,24,24,24,,,,,,,3,0.433840657448,,,2018_may._09_0211,60.0250181475,Experimento Piloto1,001,116,
0.25,Stim\\03_019.jpg,Tr19_6,Tristeza,6,Eduardo camina hacia la biblioteca.,Afirmación,Tr19,19,,,,,,,,,0,25,25,25,,,,,,,3,0.433666174604,,,2018_may._09_0211,60.0250181475,Experimento Piloto1,001,116,
0.25,Stim\\03_078.jpg,Tr78_7,Tristeza,7,Roberto contesta los cuestionarios solicitados.,Afirmación,Tr78,78,,,,,,,,,0,26,26,26,,,,,,,4,1.53298038117,,,2018_may._09_0211,60.0250181475,Experimento Piloto1,001,116,
2.5,Stim\\03_019.jpg,Tr19_15,Tristeza,15,Ángel envía una carta a la abuela.,Afirmación,Tr19,19,,,,,,,,,0,27,27,27,,,,,,,3,0.300349679683,,,2018_may._09_0211,60.0250181475,Experimento Piloto1,001,116,
2.5,Stim\\02_028.jpg,Al28_4,Alegría,4,Jorge sustituye a Gustavo cada sábado.,Afirmación,Al28,28,,,,,,,,,0,28,28,28,,,,,,,3,0.40031942409,,,2018_may._09_0211,60.0250181475,Experimento Piloto1,001,116,
2.5,Stim\\03_078.jpg,Tr78_5,Tristeza,5,Emilio revisa el formato del archivo.,Afirmación,Tr78,78,,,,,,,,,0,29,29,29,,,,,,,3,0.500249452454,,,2018_may._09_0211,60.0250181475,Experimento Piloto1,001,116,
2.5,Stim\\03_028.jpg,Tr28_12,Tristeza,12,Ana compra el libro.,Afirmación,Tr28,28,,,,,,,,,0,30,30,30,,,,,,,3,0.450303180674,,,2018_may._09_0211,60.0250181475,Experimento Piloto1,001,116,
0.25,Stim\\02_028.jpg,Al28_2,Alegría,2,Jonathan pasea al perro.,Afirmación,Al28,28,,,,,,,,,0,31,31,31,,,,,,,3,0.533801923149,,,2018_may._09_0211,60.0250181475,Experimento Piloto1,001,116,
0.25,Stim\\05_019.jpg,En19_8,Enojo,8,Estefanía despierta a las 7 a.m.,Afirmación,En19,19,,,,,,,,,0,32,32,32,,,,,,,3,0.500186977779,,,2018_may._09_0211,60.0250181475,Experimento Piloto1,001,116,
0.25,Stim\\03_019.jpg,Tr19_9,Tristeza,9,Marco colabora en la organización del evento.,Afirmación,Tr19,19,,,,,,,,,0,33,33,33,,,,,,,3,0.500341825726,,,2018_may._09_0211,60.0250181475,Experimento Piloto1,001,116,
2.5,Stim\\02_078.jpg,Al78_10,Alegría,10,Laura finaliza la obra.,Afirmación,Al78,78,,,,,,,,,0,34,34,34,,,,,,,3,0.400334150265,,,2018_may._09_0211,60.0250181475,Experimento Piloto1,001,116,
2.5,Stim\\02_075.jpg,Al75_15,Alegría,15,Ángel envía una carta a la abuela.,Afirmación,Al75,75,,,,,,,,,0,35,35,35,,,,,,,3,0.450310766884,,,2018_may._09_0211,60.0250181475,Experimento Piloto1,001,116,
2.5,Stim\\03_028.jpg,Tr28_6,Tristeza,6,Eduardo camina hacia la biblioteca.,Afirmación,Tr28,28,,,,,,,,,0,36,36,36,,,,,,,3,0.350318263847,,,2018_may._09_0211,60.0250181475,Experimento Piloto1,001,116,
0.25,Stim\\03_075.jpg,Tr75_14,Tristeza,14,Elizabeth elige la ropa un día antes.,Afirmación,Tr75,75,,,,,,,,,0,37,37,37,,,,,,,3,0.550203310444,,,2018_may._09_0211,60.0250181475,Experimento Piloto1,001,116,
2.5,Stim\\05_075.jpg,En75_13,Enojo,13,Rocío consume alimentos nutritivos.,Afirmación,En75,75,,,,,,,,,0,38,38,38,,,,,,,2,2.94947271374,,,2018_may._09_0211,60.0250181475,Experimento Piloto1,001,116,
2.5,Stim\\03_075.jpg,Tr75_8,Tristeza,8,Estefanía despierta a las 7 a.m.,Afirmación,Tr75,75,,,,,,,,,0,39,39,39,,,,,,,3,0.650209200914,,,2018_may._09_0211,60.0250181475,Experimento Piloto1,001,116,
0.25,Stim\\05_075.jpg,En75_7,Enojo,7,Roberto contesta los cuestionarios solicitados.,Afirmación,En75,75,,,,,,,,,0,40,40,40,,,,,,,2,0.96698347277,,,2018_may._09_0211,60.0250181475,Experimento Piloto1,001,116,
2.5,Stim\\03_019.jpg,Tr19_10,Tristeza,10,Laura finaliza la obra.,Afirmación,Tr19,19,,,,,,,,,0,41,41,41,,,,,,,3,0.400050336737,,,2018_may._09_0211,60.0250181475,Experimento Piloto1,001,116,
2.5,Stim\\03_019.jpg,Tr19_2,Tristeza,2,Jonathan pasea al perro.,Afirmación,Tr19,19,,,,,,,,,0,42,42,42,,,,,,,3,0.300353249666,,,2018_may._09_0211,60.0250181475,Experimento Piloto1,001,116,
0.25,Stim\\03_075.jpg,Tr75_15,Tristeza,15,Ángel envía una carta a la abuela.,Afirmación,Tr75,75,,,,,,,,,0,43,43,43,,,,,,,3,0.450261679642,,,2018_may._09_0211,60.0250181475,Experimento Piloto1,001,116,
0.25,Stim\\05_019.jpg,En19_1,Enojo,1,Juan colecciona monedas antiguas.,Afirmación,En19,19,,,,,,,,,0,44,44,44,,,,,,,3,0.450321923077,,,2018_may._09_0211,60.0250181475,Experimento Piloto1,001,116,
0.25,Stim\\03_078.jpg,Tr78_2,Tristeza,2,Jonathan pasea al perro.,Afirmación,Tr78,78,,,,,,,,,0,45,45,45,,,,,,,3,0.40036761884,,,2018_may._09_0211,60.0250181475,Experimento Piloto1,001,116,
2.5,Stim\\02_019.jpg,Al19_9,Alegría,9,Marco colabora en la organización del evento.,Afirmación,Al19,19,,,,,,,,,0,46,46,46,,,,,,,3,1.06686441389,,,2018_may._09_0211,60.0250181475,Experimento Piloto1,001,116,
2.5,Stim\\03_028.jpg,Tr28_11,Tristeza,11,María asiste a la cena.,Afirmación,Tr28,28,,,,,,,,,0,47,47,47,,,,,,,3,0.300276048816,,,2018_may._09_0211,60.0250181475,Experimento Piloto1,001,116,
2.5,Stim\\05_078.jpg,En78_6,Enojo,6,Eduardo camina hacia la biblioteca.,Afirmación,En78,78,,,,,,,,,0,48,48,48,,,,,,,2,1.76655980522,,,2018_may._09_0211,60.0250181475,Experimento Piloto1,001,116,
2.5,Stim\\02_028.jpg,Al28_14,Alegría,14,Elizabeth elige la ropa un día antes.,Afirmación,Al28,28,,,,,,,,,0,49,49,49,,,,,,,3,0.550039537544,,,2018_may._09_0211,60.0250181475,Experimento Piloto1,001,116,
0.25,Stim\\03_019.jpg,Tr19_10,Tristeza,10,Laura finaliza la obra.,Afirmación,Tr19,19,,,,,,,,,0,50,50,50,,,,,,,3,0.750148154229,,,2018_may._09_0211,60.0250181475,Experimento Piloto1,001,116,
2.5,Stim\\05_019.jpg,En19_2,Enojo,2,Jonathan pasea al perro.,Afirmación,En19,19,,,,,,,,,0,51,51,51,,,,,,,3,1.7829254927,,,2018_may._09_0211,60.0250181475,Experimento Piloto1,001,116,
0.25,Stim\\05_078.jpg,En78_5,Enojo,5,Emilio revisa el formato del archivo.,Afirmación,En78,78,,,,,,,,,0,52,52,52,,,,,,,3,0.700408048879,,,2018_may._09_0211,60.0250181475,Experimento Piloto1,001,116,
2.5,Stim\\02_075.jpg,Al75_5,Alegría,5,Emilio revisa el formato del archivo.,Afirmación,Al75,75,,,,,,,,,0,53,53,53,,,,,,,3,0.650503724384,,,2018_may._09_0211,60.0250181475,Experimento Piloto1,001,116,
0.25,Stim\\05_028.jpg,En28_9,Enojo,9,Marco colabora en la organización del evento.,Afirmación,En28,28,,,,,,,,,0,54,54,54,,,,,,,3,2.59960605255,,,2018_may._09_0211,60.0250181475,Experimento Piloto1,001,116,
2.5,Stim\\03_019.jpg,Tr19_1,Tristeza,1,Juan colecciona monedas antiguas.,Afirmación,Tr19,19,,,,,,,,,0,55,55,55,,,,,,,3,0.750325760806,,,2018_may._09_0211,60.0250181475,Experimento Piloto1,001,116,
0.25,Stim\\02_028.jpg,Al28_3,Alegría,3,Andrea diseña la portada del libro.,Afirmación,Al28,28,,,,,,,,,0,56,56,56,,,,,,,3,1.11656524944,,,2018_may._09_0211,60.0250181475,Experimento Piloto1,001,116,
0.25,Stim\\05_028.jpg,En28_5,Enojo,5,Emilio revisa el formato del archivo.,Afirmación,En28,28,,,,,,,,,0,57,57,57,,,,,,,3,0.766607107475,,,2018_may._09_0211,60.0250181475,Experimento Piloto1,001,116,
2.5,Stim\\03_078.jpg,Tr78_15,Tristeza,15,Ángel envía una carta a la abuela.,Afirmación,Tr78,78,,,,,,,,,0,58,58,58,,,,,,,3,0.600266499116,,,2018_may._09_0211,60.0250181475,Experimento Piloto1,001,116,
0.25,Stim\\02_078.jpg,Al78_10,Alegría,10,Laura finaliza la obra.,Afirmación,Al78,78,,,,,,,,,0,59,59,59,,,,,,,3,0.500420811564,,,2018_may._09_0211,60.0250181475,Experimento Piloto1,001,116,
0.25,Stim\\03_075.jpg,Tr75_7,Tristeza,7,Roberto contesta los cuestionarios solicitados.,Afirmación,Tr75,75,,,,,,,,,0,60,60,60,,,,,,,3,0.500304340918,,,2018_may._09_0211,60.0250181475,Experimento Piloto1,001,116,
0.25,Stim\\03_075.jpg,Tr75_5,Tristeza,5,Emilio revisa el formato del archivo.,Afirmación,Tr75,75,,,,,,,,,0,61,61,61,,,,,,,3,1.16678596355,,,2018_may._09_0211,60.0250181475,Experimento Piloto1,001,116,
0.25,Stim\\05_075.jpg,En75_14,Enojo,14,Elizabeth elige la ropa un día antes.,Afirmación,En75,75,,,,,,,,,0,62,62,62,,,,,,,3,0.55069284415,,,2018_may._09_0211,60.0250181475,Experimento Piloto1,001,116,
0.25,Stim\\05_075.jpg,En75_2,Enojo,2,Jonathan pasea al perro.,Afirmación,En75,75,,,,,,,,,0,63,63,63,,,,,,,3,0.483599951447,,,2018_may._09_0211,60.0250181475,Experimento Piloto1,001,116,
0.25,Stim\\02_078.jpg,Al78_6,Alegría,6,Eduardo camina hacia la biblioteca.,Afirmación,Al78,78,,,,,,,,,0,64,64,64,,,,,,,3,0.649930296111,,,2018_may._09_0211,60.0250181475,Experimento Piloto1,001,116,
0.25,Stim\\03_075.jpg,Tr75_4,Tristeza,4,Jorge sustituye a Gustavo cada sábado.,Afirmación,Tr75,75,,,,,,,,,0,65,65,65,,,,,,,3,0.800470166556,,,2018_may._09_0211,60.0250181475,Experimento Piloto1,001,116,
0.25,Stim\\03_075.jpg,Tr75_3,Tristeza,3,Andrea diseña la portada del libro.,Afirmación,Tr75,75,,,,,,,,,0,66,66,66,,,,,,,3,1.01673785805,,,2018_may._09_0211,60.0250181475,Experimento Piloto1,001,116,
0.25,Stim\\02_028.jpg,Al28_10,Alegría,10,Laura finaliza la obra.,Afirmación,Al28,28,,,,,,,,,0,67,67,67,,,,,,,3,0.800391180717,,,2018_may._09_0211,60.0250181475,Experimento Piloto1,001,116,
0.25,Stim\\03_028.jpg,Tr28_12,Tristeza,12,Ana compra el libro.,Afirmación,Tr28,28,,,,,,,,,0,68,68,68,,,,,,,3,0.3504235783,,,2018_may._09_0211,60.0250181475,Experimento Piloto1,001,116,
0.25,Stim\\03_075.jpg,Tr75_10,Tristeza,10,Laura finaliza la obra.,Afirmación,Tr75,75,,,,,,,,,0,69,69,69,,,,,,,3,0.550268462606,,,2018_may._09_0211,60.0250181475,Experimento Piloto1,001,116,
0.25,Stim\\02_028.jpg,Al28_8,Alegría,8,Estefanía despierta a las 7 a.m.,Afirmación,Al28,28,,,,,,,,,0,70,70,70,,,,,,,3,0.500100851976,,,2018_may._09_0211,60.0250181475,Experimento Piloto1,001,116,
0.25,Stim\\05_078.jpg,En78_14,Enojo,14,Elizabeth elige la ropa un día antes.,Afirmación,En78,78,,,,,,,,,0,71,71,71,,,,,,,3,0.600211164403,,,2018_may._09_0211,60.0250181475,Experimento Piloto1,001,116,
2.5,Stim\\03_078.jpg,Tr78_9,Tristeza,9,Marco colabora en la organización del evento.,Afirmación,Tr78,78,,,,,,,,,0,72,72,72,,,,,,,3,0.450379042781,,,2018_may._09_0211,60.0250181475,Experimento Piloto1,001,116,
0.25,Stim\\02_019.jpg,Al19_3,Alegría,3,Andrea diseña la portada del libro.,Afirmación,Al19,19,,,,,,,,,0,73,73,73,,,,,,,3,0.650245346975,,,2018_may._09_0211,60.0250181475,Experimento Piloto1,001,116,
0.25,Stim\\03_078.jpg,Tr78_6,Tristeza,6,Eduardo camina hacia la biblioteca.,Afirmación,Tr78,78,,,,,,,,,0,74,74,74,,,,,,,3,0.533705533649,,,2018_may._09_0211,60.0250181475,Experimento Piloto1,001,116,
0.25,Stim\\03_028.jpg,Tr28_8,Tristeza,8,Estefanía despierta a las 7 a.m.,Afirmación,Tr28,28,,,,,,,,,0,75,75,75,,,,,,,3,0.550216251626,,,2018_may._09_0211,60.0250181475,Experimento Piloto1,001,116,
2.5,Stim\\05_078.jpg,En78_9,Enojo,9,Marco colabora en la organización del evento.,Afirmación,En78,78,,,,,,,,,0,76,76,76,,,,,,,3,0.600246864218,,,2018_may._09_0211,60.0250181475,Experimento Piloto1,001,116,
2.5,Stim\\02_028.jpg,Al28_6,Alegría,6,Eduardo camina hacia la biblioteca.,Afirmación,Al28,28,,,,,,,,,0,77,77,77,,,,,,,3,0.450222409845,,,2018_may._09_0211,60.0250181475,Experimento Piloto1,001,116,
2.5,Stim\\03_078.jpg,Tr78_6,Tristeza,6,Eduardo camina hacia la biblioteca.,Afirmación,Tr78,78,,,,,,,,,0,78,78,78,,,,,,,3,0.300317103603,,,2018_may._09_0211,60.0250181475,Experimento Piloto1,001,116,
2.5,Stim\\02_078.jpg,Al78_2,Alegría,2,Jonathan pasea al perro.,Afirmación,Al78,78,,,,,,,,,0,79,79,79,,,,,,,3,0.350426255785,,,2018_may._09_0211,60.0250181475,Experimento Piloto1,001,116,
2.5,Stim\\02_028.jpg,Al28_10,Alegría,10,Laura finaliza la obra.,Afirmación,Al28,28,,,,,,,,,0,80,80,80,,,,,,,3,0.350468203067,,,2018_may._09_0211,60.0250181475,Experimento Piloto1,001,116,
2.5,Stim\\02_019.jpg,Al19_15,Alegría,15,Ángel envía una carta a la abuela.,Afirmación,Al19,19,,,,,,,,,0,81,81,81,,,,,,,3,0.450322815572,,,2018_may._09_0211,60.0250181475,Experimento Piloto1,001,116,
0.25,Stim\\03_019.jpg,Tr19_5,Tristeza,5,Emilio revisa el formato del archivo.,Afirmación,Tr19,19,,,,,,,,,0,82,82,82,,,,,,,3,0.450291578234,,,2018_may._09_0211,60.0250181475,Experimento Piloto1,001,116,
0.25,Stim\\02_075.jpg,Al75_12,Alegría,12,Ana compra el libro.,Afirmación,Al75,75,,,,,,,,,0,83,83,83,,,,,,,3,0.383874750771,,,2018_may._09_0211,60.0250181475,Experimento Piloto1,001,116,
2.5,Stim\\05_078.jpg,En78_3,Enojo,3,Andrea diseña la portada del libro.,Afirmación,En78,78,,,,,,,,,0,84,84,84,,,,,,,3,0.450264803374,,,2018_may._09_0211,60.0250181475,Experimento Piloto1,001,116,
2.5,Stim\\03_075.jpg,Tr75_5,Tristeza,5,Emilio revisa el formato del archivo.,Afirmación,Tr75,75,,,,,,,,,0,85,85,85,,,,,,,3,0.350297290204,,,2018_may._09_0211,60.0250181475,Experimento Piloto1,001,116,
2.5,Stim\\05_028.jpg,En28_2,Enojo,2,Jonathan pasea al perro.,Afirmación,En28,28,,,,,,,,,0,86,86,86,,,,,,,3,0.450242937237,,,2018_may._09_0211,60.0250181475,Experimento Piloto1,001,116,
0.25,Stim\\03_028.jpg,Tr28_9,Tristeza,9,Marco colabora en la organización del evento.,Afirmación,Tr28,28,,,,,,,,,0,87,87,87,,,,,,,3,0.384052803596,,,2018_may._09_0211,60.0250181475,Experimento Piloto1,001,116,
0.25,Stim\\03_078.jpg,Tr78_9,Tristeza,9,Marco colabora en la organización del evento.,Afirmación,Tr78,78,,,,,,,,,0,88,88,88,,,,,,,3,0.81690055995,,,2018_may._09_0211,60.0250181475,Experimento Piloto1,001,116,
2.5,Stim\\03_075.jpg,Tr75_12,Tristeza,12,Ana compra el libro.,Afirmación,Tr75,75,,,,,,,,,0,89,89,89,,,,,,,3,0.349966620674,,,2018_may._09_0211,60.0250181475,Experimento Piloto1,001,116,
2.5,Stim\\05_078.jpg,En78_11,Enojo,11,María asiste a la cena.,Afirmación,En78,78,,,,,,,,,0,90,90,90,,,,,,,3,0.400439464718,,,2018_may._09_0211,60.0250181475,Experimento Piloto1,001,116,
2.5,Stim\\02_075.jpg,Al75_14,Alegría,14,Elizabeth elige la ropa un día antes.,Afirmación,Al75,75,,,,,,,,,0,91,91,91,,,,,,,3,0.333833874483,,,2018_may._09_0211,60.0250181475,Experimento Piloto1,001,116,
0.25,Stim\\03_019.jpg,Tr19_7,Tristeza,7,Roberto contesta los cuestionarios solicitados.,Afirmación,Tr19,19,,,,,,,,,0,92,92,92,,,,,,,3,0.650385022498,,,2018_may._09_0211,60.0250181475,Experimento Piloto1,001,116,
0.25,Stim\\05_075.jpg,En75_5,Enojo,5,Emilio revisa el formato del archivo.,Afirmación,En75,75,,,,,,,,,0,93,93,93,,,,,,,3,0.75030210968,,,2018_may._09_0211,60.0250181475,Experimento Piloto1,001,116,
2.5,Stim\\05_019.jpg,En19_14,Enojo,14,Elizabeth elige la ropa un día antes.,Afirmación,En19,19,,,,,,,,,0,94,94,94,,,,,,,3,1.2667280406,,,2018_may._09_0211,60.0250181475,Experimento Piloto1,001,116,
0.25,Stim\\02_075.jpg,Al75_2,Alegría,2,Jonathan pasea al perro.,Afirmación,Al75,75,,,,,,,,,0,95,95,95,,,,,,,3,0.650270336846,,,2018_may._09_0211,60.0250181475,Experimento Piloto1,001,116,
2.5,Stim\\03_028.jpg,Tr28_10,Tristeza,10,Laura finaliza la obra.,Afirmación,Tr28,28,,,,,,,,,0,96,96,96,,,,,,,3,0.550226961572,,,2018_may._09_0211,60.0250181475,Experimento Piloto1,001,116,
2.5,Stim\\02_078.jpg,Al78_3,Alegría,3,Andrea diseña la portada del libro.,Afirmación,Al78,78,,,,,,,,,0,97,97,97,,,,,,,3,0.400455529634,,,2018_may._09_0211,60.0250181475,Experimento Piloto1,001,116,
2.5,Stim\\05_075.jpg,En75_3,Enojo,3,Andrea diseña la portada del libro.,Afirmación,En75,75,,,,,,,,,0,98,98,98,,,,,,,3,0.500347626943,,,2018_may._09_0211,60.0250181475,Experimento Piloto1,001,116,
2.5,Stim\\03_075.jpg,Tr75_3,Tristeza,3,Andrea diseña la portada del libro.,Afirmación,Tr75,75,,,,,,,,,0,99,99,99,,,,,,,3,0.700235351029,,,2018_may._09_0211,60.0250181475,Experimento Piloto1,001,116,
2.5,Stim\\03_075.jpg,Tr75_7,Tristeza,7,Roberto contesta los cuestionarios solicitados.,Afirmación,Tr75,75,,,,,,,,,0,100,100,100,,,,,,,3,0.333678134042,,,2018_may._09_0211,60.0250181475,Experimento Piloto1,001,116,
2.5,Stim\\03_019.jpg,Tr19_14,Tristeza,14,Elizabeth elige la ropa un día antes.,Afirmación,Tr19,19,,,,,,,,,0,101,101,101,,,,,,,3,1.00019367149,,,2018_may._09_0211,60.0250181475,Experimento Piloto1,001,116,
2.5,Stim\\05_078.jpg,En78_5,Enojo,5,Emilio revisa el formato del archivo.,Afirmación,En78,78,,,,,,,,,0,102,102,102,,,,,,,3,0.483650823684,,,2018_may._09_0211,60.0250181475,Experimento Piloto1,001,116,
2.5,Stim\\02_078.jpg,Al78_12,Alegría,12,Ana compra el libro.,Afirmación,Al78,78,,,,,,,,,0,103,103,103,,,,,,,3,0.500273549827,,,2018_may._09_0211,60.0250181475,Experimento Piloto1,001,116,
2.5,Stim\\02_028.jpg,Al28_13,Alegría,13,Rocío consume alimentos nutritivos.,Afirmación,Al28,28,,,,,,,,,0,104,104,104,,,,,,,3,0.499962961443,,,2018_may._09_0211,60.0250181475,Experimento Piloto1,001,116,
2.5,Stim\\05_028.jpg,En28_4,Enojo,4,Jorge sustituye a Gustavo cada sábado.,Afirmación,En28,28,,,,,,,,,0,105,105,105,,,,,,,3,0.483675813553,,,2018_may._09_0211,60.0250181475,Experimento Piloto1,001,116,
0.25,Stim\\02_028.jpg,Al28_7,Alegría,7,Roberto contesta los cuestionarios solicitados.,Afirmación,Al28,28,,,,,,,,,0,106,106,106,,,,,,,3,1.61657238941,,,2018_may._09_0211,60.0250181475,Experimento Piloto1,001,116,
0.25,Stim\\02_078.jpg,Al78_12,Alegría,12,Ana compra el libro.,Afirmación,Al78,78,,,,,,,,,0,107,107,107,,,,,,,3,1.16691537538,,,2018_may._09_0211,60.0250181475,Experimento Piloto1,001,116,
2.5,Stim\\02_028.jpg,Al28_7,Alegría,7,Roberto contesta los cuestionarios solicitados.,Afirmación,Al28,28,,,,,,,,,0,108,108,108,,,,,,,3,0.399931188607,,,2018_may._09_0211,60.0250181475,Experimento Piloto1,001,116,
0.25,Stim\\02_075.jpg,Al75_7,Alegría,7,Roberto contesta los cuestionarios solicitados.,Afirmación,Al75,75,,,,,,,,,0,109,109,109,,,,,,,3,0.550254182681,,,2018_may._09_0211,60.0250181475,Experimento Piloto1,001,116,
0.25,Stim\\05_075.jpg,En75_10,Enojo,10,Laura finaliza la obra.,Afirmación,En75,75,,,,,,,,,0,110,110,110,,,,,,,3,0.483723562056,,,2018_may._09_0211,60.0250181475,Experimento Piloto1,001,116,
2.5,Stim\\05_028.jpg,En28_8,Enojo,8,Estefanía despierta a las 7 a.m.,Afirmación,En28,28,,,,,,,,,0,111,111,111,,,,,,,3,0.600244632979,,,2018_may._09_0211,60.0250181475,Experimento Piloto1,001,116,
0.25,Stim\\03_075.jpg,Tr75_6,Tristeza,6,Eduardo camina hacia la biblioteca.,Afirmación,Tr75,75,,,,,,,,,0,112,112,112,,,,,,,4,1.68318110338,,,2018_may._09_0211,60.0250181475,Experimento Piloto1,001,116,
0.25,Stim\\02_078.jpg,Al78_4,Alegría,4,Jorge sustituye a Gustavo cada sábado.,Afirmación,Al78,78,,,,,,,,,0,113,113,113,,,,,,,3,0.750348073192,,,2018_may._09_0211,60.0250181475,Experimento Piloto1,001,116,
2.5,Stim\\02_019.jpg,Al19_13,Alegría,13,Rocío consume alimentos nutritivos.,Afirmación,Al19,19,,,,,,,,,0,114,114,114,,,,,,,3,0.350309338892,,,2018_may._09_0211,60.0250181475,Experimento Piloto1,001,116,
0.25,Stim\\02_078.jpg,Al78_15,Alegría,15,Ángel envía una carta a la abuela.,Afirmación,Al78,78,,,,,,,,,0,115,115,115,,,,,,,3,0.500117809388,,,2018_may._09_0211,60.0250181475,Experimento Piloto1,001,116,
2.5,Stim\\05_019.jpg,En19_4,Enojo,4,Jorge sustituye a Gustavo cada sábado.,Afirmación,En19,19,,,,,,,,,0,116,116,116,,,,,,,3,0.450350036681,,,2018_may._09_0211,60.0250181475,Experimento Piloto1,001,116,
2.5,Stim\\05_075.jpg,En75_9,Enojo,9,Marco colabora en la organización del evento.,Afirmación,En75,75,,,,,,,,,0,117,117,117,,,,,,,3,0.750206612678,,,2018_may._09_0211,60.0250181475,Experimento Piloto1,001,116,
0.25,Stim\\05_078.jpg,En78_8,Enojo,8,Estefanía despierta a las 7 a.m.,Afirmación,En78,78,,,,,,,,,0,118,118,118,,,,,,,3,0.433792462698,,,2018_may._09_0211,60.0250181475,Experimento Piloto1,001,116,
0.25,Stim\\03_075.jpg,Tr75_12,Tristeza,12,Ana compra el libro.,Afirmación,Tr75,75,,,,,,,,,0,119,119,119,,,,,,,3,0.850254004181,,,2018_may._09_0211,60.0250181475,Experimento Piloto1,001,116,
0.25,Stim\\02_075.jpg,Al75_11,Alegría,11,María asiste a la cena.,Afirmación,Al75,75,,,,,,,,,,,,,0,0,0,0,,,,,4,0.716571139914,2018_may._09_0211,60.0250181475,Experimento Piloto1,001,116,
2.5,Stim\\03_019.jpg,Tr19_9,Tristeza,9,Marco colabora en la organización del evento.,Afirmación,Tr19,19,,,,,,,,,,,,,0,1,1,1,,,,,4,0.450009103453,2018_may._09_0211,60.0250181475,Experimento Piloto1,001,116,
2.5,Stim\\02_075.jpg,Al75_8,Alegría,8,Estefanía despierta a las 7 a.m.,Afirmación,Al75,75,,,,,,,,,,,,,0,2,2,2,,,,,4,1.0168619149,2018_may._09_0211,60.0250181475,Experimento Piloto1,001,116,
2.5,Stim\\03_075.jpg,Tr75_13,Tristeza,13,Rocío consume alimentos nutritivos.,Afirmación,Tr75,75,,,,,,,,,,,,,0,3,3,3,,,,,3,0.533798799415,2018_may._09_0211,60.0250181475,Experimento Piloto1,001,116,
0.25,Stim\\03_019.jpg,Tr19_15,Tristeza,15,Ángel envía una carta a la abuela.,Afirmación,Tr19,19,,,,,,,,,,,,,0,4,4,4,,,,,3,0.450325046811,2018_may._09_0211,60.0250181475,Experimento Piloto1,001,116,
2.5,Stim\\05_075.jpg,En75_11,Enojo,11,María asiste a la cena.,Afirmación,En75,75,,,,,,,,,,,,,0,5,5,5,,,,,3,0.916930547795,2018_may._09_0211,60.0250181475,Experimento Piloto1,001,116,
0.25,Stim\\05_028.jpg,En28_4,Enojo,4,Jorge sustituye a Gustavo cada sábado.,Afirmación,En28,28,,,,,,,,,,,,,0,6,6,6,,,,,3,0.600236600521,2018_may._09_0211,60.0250181475,Experimento Piloto1,001,116,
2.5,Stim\\05_028.jpg,En28_9,Enojo,9,Marco colabora en la organización del evento.,Afirmación,En28,28,,,,,,,,,,,,,0,7,7,7,,,,,3,1.98302429194,2018_may._09_0211,60.0250181475,Experimento Piloto1,001,116,
2.5,Stim\\03_075.jpg,Tr75_9,Tristeza,9,Marco colabora en la organización del evento.,Afirmación,Tr75,75,,,,,,,,,,,,,0,8,8,8,,,,,4,0.650273906826,2018_may._09_0211,60.0250181475,Experimento Piloto1,001,116,
2.5,Stim\\05_028.jpg,En28_15,Enojo,15,Ángel envía una carta a la abuela.,Afirmación,En28,28,,,,,,,,,,,,,0,9,9,9,,,,,3,0.750355659402,2018_may._09_0211,60.0250181475,Experimento Piloto1,001,116,
0.25,Stim\\03_078.jpg,Tr78_8,Tristeza,8,Estefanía despierta a las 7 a.m.,Afirmación,Tr78,78,,,,,,,,,,,,,0,10,10,10,,,,,3,0.600188405771,2018_may._09_0211,60.0250181475,Experimento Piloto1,001,116,
0.25,Stim\\02_075.jpg,Al75_1,Alegría,1,Juan colecciona monedas antiguas.,Afirmación,Al75,75,,,,,,,,,,,,,0,11,11,11,,,,,3,3.31614774011,2018_may._09_0211,60.0250181475,Experimento Piloto1,001,116,
0.25,Stim\\05_078.jpg,En78_11,Enojo,11,María asiste a la cena.,Afirmación,En78,78,,,,,,,,,,,,,0,12,12,12,,,,,3,0.450379935277,2018_may._09_0211,60.0250181475,Experimento Piloto1,001,116,
2.5,Stim\\03_028.jpg,Tr28_15,Tristeza,15,Ángel envía una carta a la abuela.,Afirmación,Tr28,28,,,,,,,,,,,,,0,13,13,13,,,,,3,0.550280511292,2018_may._09_0211,60.0250181475,Experimento Piloto1,001,116,
2.5,Stim\\02_019.jpg,Al19_3,Alegría,3,Andrea diseña la portada del libro.,Afirmación,Al19,19,,,,,,,,,,,,,0,14,14,14,,,,,3,0.550312194879,2018_may._09_0211,60.0250181475,Experimento Piloto1,001,116,
2.5,Stim\\05_019.jpg,En19_5,Enojo,5,Emilio revisa el formato del archivo.,Afirmación,En19,19,,,,,,,,,,,,,0,15,15,15,,,,,3,0.433642523476,2018_may._09_0211,60.0250181475,Experimento Piloto1,001,116,
0.25,Stim\\02_028.jpg,Al28_11,Alegría,11,María asiste a la cena.,Afirmación,Al28,28,,,,,,,,,,,,,0,16,16,16,,,,,3,0.500401176667,2018_may._09_0211,60.0250181475,Experimento Piloto1,001,116,
0.25,Stim\\03_019.jpg,Tr19_11,Tristeza,11,María asiste a la cena.,Afirmación,Tr19,19,,,,,,,,,,,,,0,17,17,17,,,,,3,0.383804689884,2018_may._09_0211,60.0250181475,Experimento Piloto1,001,116,
2.5,Stim\\03_078.jpg,Tr78_14,Tristeza,14,Elizabeth elige la ropa un día antes.,Afirmación,Tr78,78,,,,,,,,,,,,,0,18,18,18,,,,,3,0.283626994056,2018_may._09_0211,60.0250181475,Experimento Piloto1,001,116,
0.25,Stim\\02_019.jpg,Al19_9,Alegría,9,Marco colabora en la organización del evento.,Afirmación,Al19,19,,,,,,,,,,,,,0,19,19,19,,,,,3,0.550483553987,2018_may._09_0211,60.0250181475,Experimento Piloto1,001,116,
2.5,Stim\\02_075.jpg,Al75_11,Alegría,11,María asiste a la cena.,Afirmación,Al75,75,,,,,,,,,,,,,0,20,20,20,,,,,3,0.3338593106,2018_may._09_0211,60.0250181475,Experimento Piloto1,001,116,
0.25,Stim\\02_028.jpg,Al28_4,Alegría,4,Jorge sustituye a Gustavo cada sábado.,Afirmación,Al28,28,,,,,,,,,,,,,0,21,21,21,,,,,3,9.21425109822,2018_may._09_0211,60.0250181475,Experimento Piloto1,001,116,
2.5,Stim\\02_075.jpg,Al75_10,Alegría,10,Laura finaliza la obra.,Afirmación,Al75,75,,,,,,,,,,,,,0,22,22,22,,,,,3,0.349846133799,2018_may._09_0211,60.0250181475,Experimento Piloto1,001,116,
0.25,Stim\\05_075.jpg,En75_4,Enojo,4,Jorge sustituye a Gustavo cada sábado.,Afirmación,En75,75,,,,,,,,,,,,,0,23,23,23,,,,,3,0.349989379305,2018_may._09_0211,60.0250181475,Experimento Piloto1,001,116,
2.5,Stim\\02_028.jpg,Al28_11,Alegría,11,María asiste a la cena.,Afirmación,Al28,28,,,,,,,,,,,,,0,24,24,24,,,,,3,0.300313087373,2018_may._09_0211,60.0250181475,Experimento Piloto1,001,116,
0.25,Stim\\02_078.jpg,Al78_1,Alegría,1,Juan colecciona monedas antiguas.,Afirmación,Al78,78,,,,,,,,,,,,,0,25,25,25,,,,,3,0.450279083299,2018_may._09_0211,60.0250181475,Experimento Piloto1,001,116,
2.5,Stim\\02_019.jpg,Al19_7,Alegría,7,Roberto contesta los cuestionarios solicitados.,Afirmación,Al19,19,,,,,,,,,,,,,0,26,26,26,,,,,3,0.33363618676,2018_may._09_0211,60.0250181475,Experimento Piloto1,001,116,
0.25,Stim\\05_028.jpg,En28_15,Enojo,15,Ángel envía una carta a la abuela.,Afirmación,En28,28,,,,,,,,,,,,,0,27,27,27,,,,,3,0.333746409937,2018_may._09_0211,60.0250181475,Experimento Piloto1,001,116,
0.25,Stim\\03_075.jpg,Tr75_2,Tristeza,2,Jonathan pasea al perro.,Afirmación,Tr75,75,,,,,,,,,,,,,0,28,28,28,,,,,3,0.550283635028,2018_may._09_0211,60.0250181475,Experimento Piloto1,001,116,
0.25,Stim\\05_075.jpg,En75_3,Enojo,3,Andrea diseña la portada del libro.,Afirmación,En75,75,,,,,,,,,,,,,0,29,29,29,,,,,3,0.333811562097,2018_may._09_0211,60.0250181475,Experimento Piloto1,001,116,
2.5,Stim\\05_028.jpg,En28_10,Enojo,10,Laura finaliza la obra.,Afirmación,En28,28,,,,,,,,,,,,,0,30,30,30,,,,,3,0.350283010279,2018_may._09_0211,60.0250181475,Experimento Piloto1,001,116,
0.25,Stim\\05_019.jpg,En19_4,Enojo,4,Jorge sustituye a Gustavo cada sábado.,Afirmación,En19,19,,,,,,,,,,,,,0,31,31,31,,,,,3,0.350390109723,2018_may._09_0211,60.0250181475,Experimento Piloto1,001,116,
2.5,Stim\\02_078.jpg,Al78_1,Alegría,1,Juan colecciona monedas antiguas.,Afirmación,Al78,78,,,,,,,,,,,,,0,32,32,32,,,,,3,0.3335130224,2018_may._09_0211,60.0250181475,Experimento Piloto1,001,116,
0.25,Stim\\05_075.jpg,En75_6,Enojo,6,Eduardo camina hacia la biblioteca.,Afirmación,En75,75,,,,,,,,,,,,,0,33,33,33,,,,,3,0.400345306456,2018_may._09_0211,60.0250181475,Experimento Piloto1,001,116,
2.5,Stim\\02_019.jpg,Al19_12,Alegría,12,Ana compra el libro.,Afirmación,Al19,19,,,,,,,,,,,,,0,34,34,34,,,,,3,0.600398588429,2018_may._09_0211,60.0250181475,Experimento Piloto1,001,116,
0.25,Stim\\05_075.jpg,En75_8,Enojo,8,Estefanía despierta a las 7 a.m.,Afirmación,En75,75,,,,,,,,,,,,,0,35,35,35,,,,,3,0.599940292061,2018_may._09_0211,60.0250181475,Experimento Piloto1,001,116,
2.5,Stim\\03_028.jpg,Tr28_4,Tristeza,4,Jorge sustituye a Gustavo cada sábado.,Afirmación,Tr28,28,,,,,,,,,,,,,0,36,36,36,,,,,3,0.383620389593,2018_may._09_0211,60.0250181475,Experimento Piloto1,001,116,
0.25,Stim\\03_078.jpg,Tr78_12,Tristeza,12,Ana compra el libro.,Afirmación,Tr78,78,,,,,,,,,,,,,0,37,37,37,,,,,3,0.283569874355,2018_may._09_0211,60.0250181475,Experimento Piloto1,001,116,
2.5,Stim\\03_019.jpg,Tr19_3,Tristeza,3,Andrea diseña la portada del libro.,Afirmación,Tr19,19,,,,,,,,,,,,,0,38,38,38,,,,,3,0.383688219239,2018_may._09_0211,60.0250181475,Experimento Piloto1,001,116,
2.5,Stim\\05_075.jpg,En75_4,Enojo,4,Jorge sustituye a Gustavo cada sábado.,Afirmación,En75,75,,,,,,,,,,,,,0,39,39,39,,,,,3,0.383792641198,2018_may._09_0211,60.0250181475,Experimento Piloto1,001,116,
0.25,Stim\\05_078.jpg,En78_6,Enojo,6,Eduardo camina hacia la biblioteca.,Afirmación,En78,78,,,,,,,,,,,,,0,40,40,40,,,,,3,0.383963554059,2018_may._09_0211,60.0250181475,Experimento Piloto1,001,116,
0.25,Stim\\03_078.jpg,Tr78_3,Tristeza,3,Andrea diseña la portada del libro.,Afirmación,Tr78,78,,,,,,,,,,,,,0,41,41,41,,,,,3,0.433631367285,2018_may._09_0211,60.0250181475,Experimento Piloto1,001,116,
0.25,Stim\\05_078.jpg,En78_15,Enojo,15,Ángel envía una carta a la abuela.,Afirmación,En78,78,,,,,,,,,,,,,0,42,42,42,,,,,3,0.550089071037,2018_may._09_0211,60.0250181475,Experimento Piloto1,001,116,
2.5,Stim\\05_078.jpg,En78_2,Enojo,2,Jonathan pasea al perro.,Afirmación,En78,78,,,,,,,,,,,,,0,43,43,43,,,,,3,0.399993663283,2018_may._09_0211,60.0250181475,Experimento Piloto1,001,116,
2.5,Stim\\02_078.jpg,Al78_4,Alegría,4,Jorge sustituye a Gustavo cada sábado.,Afirmación,Al78,78,,,,,,,,,,,,,0,44,44,44,,,,,3,0.450338434242,2018_may._09_0211,60.0250181475,Experimento Piloto1,001,116,
2.5,Stim\\05_078.jpg,En78_4,Enojo,4,Jorge sustituye a Gustavo cada sábado.,Afirmación,En78,78,,,,,,,,,,,,,0,45,45,45,,,,,3,0.333745071195,2018_may._09_0211,60.0250181475,Experimento Piloto1,001,116,
0.25,Stim\\05_019.jpg,En19_9,Enojo,9,Marco colabora en la organización del evento.,Afirmación,En19,19,,,,,,,,,,,,,0,46,46,46,,,,,3,0.399945468534,2018_may._09_0211,60.0250181475,Experimento Piloto1,001,116,
0.25,Stim\\05_019.jpg,En19_15,Enojo,15,Ángel envía una carta a la abuela.,Afirmación,En19,19,,,,,,,,,,,,,0,47,47,47,,,,,3,0.400339951482,2018_may._09_0211,60.0250181475,Experimento Piloto1,001,116,
2.5,Stim\\02_028.jpg,Al28_2,Alegría,2,Jonathan pasea al perro.,Afirmación,Al28,28,,,,,,,,,,,,,0,48,48,48,,,,,2,1.81664441378,2018_may._09_0211,60.0250181475,Experimento Piloto1,001,116,
0.25,Stim\\03_075.jpg,Tr75_1,Tristeza,1,Juan colecciona monedas antiguas.,Afirmación,Tr75,75,,,,,,,,,,,,,0,49,49,49,,,,,3,0.500375294301,2018_may._09_0211,60.0250181475,Experimento Piloto1,001,116,
2.5,Stim\\02_028.jpg,Al28_12,Alegría,12,Ana compra el libro.,Afirmación,Al28,28,,,,,,,,,,,,,0,50,50,50,,,,,2,3.98253118825,2018_may._09_0211,60.0250181475,Experimento Piloto1,001,116,
0.25,Stim\\05_019.jpg,En19_5,Enojo,5,Emilio revisa el formato del archivo.,Afirmación,En19,19,,,,,,,,,,,,,0,51,51,51,,,,,3,0.750218215117,2018_may._09_0211,60.0250181475,Experimento Piloto1,001,116,
0.25,Stim\\02_075.jpg,Al75_9,Alegría,9,Marco colabora en la organización del evento.,Afirmación,Al75,75,,,,,,,,,,,,,0,52,52,52,,,,,3,0.750306572158,2018_may._09_0211,60.0250181475,Experimento Piloto1,001,116,
2.5,Stim\\03_019.jpg,Tr19_12,Tristeza,12,Ana compra el libro.,Afirmación,Tr19,19,,,,,,,,,,,,,0,53,53,53,,,,,3,0.400308714146,2018_may._09_0211,60.0250181475,Experimento Piloto1,001,116,
2.5,Stim\\02_019.jpg,Al19_4,Alegría,4,Jorge sustituye a Gustavo cada sábado.,Afirmación,Al19,19,,,,,,,,,,,,,0,54,54,54,,,,,3,0.450289793245,2018_may._09_0211,60.0250181475,Experimento Piloto1,001,116,
0.25,Stim\\02_019.jpg,Al19_12,Alegría,12,Ana compra el libro.,Afirmación,Al19,19,,,,,,,,,,,,,0,55,55,55,,,,,3,0.750301663433,2018_may._09_0211,60.0250181475,Experimento Piloto1,001,116,
2.5,Stim\\02_078.jpg,Al78_7,Alegría,7,Roberto contesta los cuestionarios solicitados.,Afirmación,Al78,78,,,,,,,,,,,,,0,56,56,56,,,,,3,0.300331829778,2018_may._09_0211,60.0250181475,Experimento Piloto1,001,116,
2.5,Stim\\03_078.jpg,Tr78_13,Tristeza,13,Rocío consume alimentos nutritivos.,Afirmación,Tr78,78,,,,,,,,,,,,,0,57,57,57,,,,,3,0.650291310487,2018_may._09_0211,60.0250181475,Experimento Piloto1,001,116,
2.5,Stim\\02_075.jpg,Al75_9,Alegría,9,Marco colabora en la organización del evento.,Afirmación,Al75,75,,,,,,,,,,,,,0,58,58,58,,,,,3,0.283876000265,2018_may._09_0211,60.0250181475,Experimento Piloto1,001,116,
0.25,Stim\\02_028.jpg,Al28_5,Alegría,5,Emilio revisa el formato del archivo.,Afirmación,Al28,28,,,,,,,,,,,,,0,59,59,59,,,,,3,0.283677866295,2018_may._09_0211,60.0250181475,Experimento Piloto1,001,116,
2.5,Stim\\03_028.jpg,Tr28_7,Tristeza,7,Roberto contesta los cuestionarios solicitados.,Afirmación,Tr28,28,,,,,,,,,,,,,0,60,60,60,,,,,3,0.350420454564,2018_may._09_0211,60.0250181475,Experimento Piloto1,001,116,
0.25,Stim\\05_078.jpg,En78_7,Enojo,7,Roberto contesta los cuestionarios solicitados.,Afirmación,En78,78,,,,,,,,,,,,,0,61,61,61,,,,,3,0.600210271907,2018_may._09_0211,60.0250181475,Experimento Piloto1,001,116,
2.5,Stim\\03_028.jpg,Tr28_5,Tristeza,5,Emilio revisa el formato del archivo.,Afirmación,Tr28,28,,,,,,,,,,,,,0,62,62,62,,,,,3,0.350448121921,2018_may._09_0211,60.0250181475,Experimento Piloto1,001,116,
0.25,Stim\\02_019.jpg,Al19_13,Alegría,13,Rocío consume alimentos nutritivos.,Afirmación,Al19,19,,,,,,,,,,,,,0,63,63,63,,,,,3,0.483740073219,2018_may._09_0211,60.0250181475,Experimento Piloto1,001,116,
2.5,Stim\\05_019.jpg,En19_13,Enojo,13,Rocío consume alimentos nutritivos.,Afirmación,En19,19,,,,,,,,,,,,,0,64,64,64,,,,,3,0.500279797296,2018_may._09_0211,60.0250181475,Experimento Piloto1,001,116,
2.5,Stim\\03_078.jpg,Tr78_4,Tristeza,4,Jorge sustituye a Gustavo cada sábado.,Afirmación,Tr78,78,,,,,,,,,,,,,0,65,65,65,,,,,3,0.300391180717,2018_may._09_0211,60.0250181475,Experimento Piloto1,001,116,
0.25,Stim\\05_028.jpg,En28_13,Enojo,13,Rocío consume alimentos nutritivos.,Afirmación,En28,28,,,,,,,,,,,,,0,66,66,66,,,,,3,0.400151634964,2018_may._09_0211,60.0250181475,Experimento Piloto1,001,116,
0.25,Stim\\02_075.jpg,Al75_4,Alegría,4,Jorge sustituye a Gustavo cada sábado.,Afirmación,Al75,75,,,,,,,,,,,,,0,67,67,67,,,,,3,0.350260251647,2018_may._09_0211,60.0250181475,Experimento Piloto1,001,116,
0.25,Stim\\03_019.jpg,Tr19_14,Tristeza,14,Elizabeth elige la ropa un día antes.,Afirmación,Tr19,19,,,,,,,,,,,,,0,68,68,68,,,,,3,0.500400284171,2018_may._09_0211,60.0250181475,Experimento Piloto1,001,116,
2.5,Stim\\02_075.jpg,Al75_4,Alegría,4,Jorge sustituye a Gustavo cada sábado.,Afirmación,Al75,75,,,,,,,,,,,,,0,69,69,69,,,,,3,0.283651091433,2018_may._09_0211,60.0250181475,Experimento Piloto1,001,116,
2.5,Stim\\05_078.jpg,En78_7,Enojo,7,Roberto contesta los cuestionarios solicitados.,Afirmación,En78,78,,,,,,,,,,,,,0,70,70,70,,,,,3,0.500421704059,2018_may._09_0211,60.0250181475,Experimento Piloto1,001,116,
2.5,Stim\\05_028.jpg,En28_6,Enojo,6,Eduardo camina hacia la biblioteca.,Afirmación,En28,28,,,,,,,,,,,,,0,71,71,71,,,,,3,0.383547204972,2018_may._09_0211,60.0250181475,Experimento Piloto1,001,116,
2.5,Stim\\05_028.jpg,En28_7,Enojo,7,Roberto contesta los cuestionarios solicitados.,Afirmación,En28,28,,,,,,,,,,,,,0,72,72,72,,,,,3,0.3502888115,2018_may._09_0211,60.0250181475,Experimento Piloto1,001,116,
2.5,Stim\\03_028.jpg,Tr28_14,Tristeza,14,Elizabeth elige la ropa un día antes.,Afirmación,Tr28,28,,,,,,,,,,,,,0,73,73,73,,,,,3,0.283871537787,2018_may._09_0211,60.0250181475,Experimento Piloto1,001,116,
2.5,Stim\\02_019.jpg,Al19_11,Alegría,11,María asiste a la cena.,Afirmación,Al19,19,,,,,,,,,,,,,0,74,74,74,,,,,3,0.383964892802,2018_may._09_0211,60.0250181475,Experimento Piloto1,001,116,
0.25,Stim\\05_028.jpg,En28_7,Enojo,7,Roberto contesta los cuestionarios solicitados.,Afirmación,En28,28,,,,,,,,,,,,,0,75,75,75,,,,,3,0.533728292281,2018_may._09_0211,60.0250181475,Experimento Piloto1,001,116,
0.25,Stim\\05_078.jpg,En78_13,Enojo,13,Rocío consume alimentos nutritivos.,Afirmación,En78,78,,,,,,,,,,,,,0,76,76,76,,,,,3,1.36660273425,2018_may._09_0211,60.0250181475,Experimento Piloto1,001,116,
0.25,Stim\\03_028.jpg,Tr28_14,Tristeza,14,Elizabeth elige la ropa un día antes.,Afirmación,Tr28,28,,,,,,,,,,,,,0,77,77,77,,,,,3,0.350298182702,2018_may._09_0211,60.0250181475,Experimento Piloto1,001,116,
2.5,Stim\\03_075.jpg,Tr75_14,Tristeza,14,Elizabeth elige la ropa un día antes.,Afirmación,Tr75,75,,,,,,,,,,,,,0,78,78,78,,,,,3,0.350278547803,2018_may._09_0211,60.0250181475,Experimento Piloto1,001,116,
0.25,Stim\\05_019.jpg,En19_10,Enojo,10,Laura finaliza la obra.,Afirmación,En19,19,,,,,,,,,,,,,0,79,79,79,,,,,3,0.383840389699,2018_may._09_0211,60.0250181475,Experimento Piloto1,001,116,
0.25,Stim\\05_078.jpg,En78_9,Enojo,9,Marco colabora en la organización del evento.,Afirmación,En78,78,,,,,,,,,,,,,0,80,80,80,,,,,3,0.350337006248,2018_may._09_0211,60.0250181475,Experimento Piloto1,001,116,
0.25,Stim\\02_028.jpg,Al28_6,Alegría,6,Eduardo camina hacia la biblioteca.,Afirmación,Al28,28,,,,,,,,,,,,,0,81,81,81,,,,,3,0.283705533649,2018_may._09_0211,60.0250181475,Experimento Piloto1,001,116,
0.25,Stim\\05_078.jpg,En78_12,Enojo,12,Ana compra el libro.,Afirmación,En78,78,,,,,,,,,,,,,0,82,82,82,,,,,3,0.45007291687,2018_may._09_0211,60.0250181475,Experimento Piloto1,001,116,
2.5,Stim\\05_075.jpg,En75_1,Enojo,1,Juan colecciona monedas antiguas.,Afirmación,En75,75,,,,,,,,,,,,,0,83,83,83,,,,,3,0.433712584363,2018_may._09_0211,60.0250181475,Experimento Piloto1,001,116,
0.25,Stim\\03_019.jpg,Tr19_13,Tristeza,13,Rocío consume alimentos nutritivos.,Afirmación,Tr19,19,,,,,,,,,,,,,0,84,84,84,,,,,3,0.550202417948,2018_may._09_0211,60.0250181475,Experimento Piloto1,001,116,
2.5,Stim\\03_078.jpg,Tr78_11,Tristeza,11,María asiste a la cena.,Afirmación,Tr78,78,,,,,,,,,,,,,0,85,85,85,,,,,3,0.450255878421,2018_may._09_0211,60.0250181475,Experimento Piloto1,001,116,
2.5,Stim\\05_019.jpg,En19_1,Enojo,1,Juan colecciona monedas antiguas.,Afirmación,En19,19,,,,,,,,,,,,,0,86,86,86,,,,,3,0.500372616814,2018_may._09_0211,60.0250181475,Experimento Piloto1,001,116,
0.25,Stim\\02_075.jpg,Al75_10,Alegría,10,Laura finaliza la obra.,Afirmación,Al75,75,,,,,,,,,,,,,0,87,87,87,,,,,3,0.450299610693,2018_may._09_0211,60.0250181475,Experimento Piloto1,001,116,
2.5,Stim\\02_019.jpg,Al19_14,Alegría,14,Elizabeth elige la ropa un día antes.,Afirmación,Al19,19,,,,,,,,,,,,,0,88,88,88,,,,,3,0.500348519439,2018_may._09_0211,60.0250181475,Experimento Piloto1,001,116,
0.25,Stim\\03_028.jpg,Tr28_6,Tristeza,6,Eduardo camina hacia la biblioteca.,Afirmación,Tr28,28,,,,,,,,,,,,,0,89,89,89,,,,,3,0.499962961443,2018_may._09_0211,60.0250181475,Experimento Piloto1,001,116,
0.25,Stim\\02_075.jpg,Al75_8,Alegría,8,Estefanía despierta a las 7 a.m.,Afirmación,Al75,75,,,,,,,,,,,,,0,90,90,90,,,,,3,0.400369850078,2018_may._09_0211,60.0250181475,Experimento Piloto1,001,116,
2.5,Stim\\02_019.jpg,Al19_6,Alegría,6,Eduardo camina hacia la biblioteca.,Afirmación,Al19,19,,,,,,,,,,,,,0,91,91,91,,,,,3,0.333767829827,2018_may._09_0211,60.0250181475,Experimento Piloto1,001,116,
2.5,Stim\\03_078.jpg,Tr78_7,Tristeza,7,Roberto contesta los cuestionarios solicitados.,Afirmación,Tr78,78,,,,,,,,,,,,,0,92,92,92,,,,,3,0.300359050885,2018_may._09_0211,60.0250181475,Experimento Piloto1,001,116,
2.5,Stim\\02_028.jpg,Al28_8,Alegría,8,Estefanía despierta a las 7 a.m.,Afirmación,Al28,28,,,,,,,,,,,,,0,93,93,93,,,,,3,0.35062171227,2018_may._09_0211,60.0250181475,Experimento Piloto1,001,116,
0.25,Stim\\03_075.jpg,Tr75_13,Tristeza,13,Rocío consume alimentos nutritivos.,Afirmación,Tr75,75,,,,,,,,,,,,,0,94,94,94,,,,,3,0.433653679669,2018_may._09_0211,60.0250181475,Experimento Piloto1,001,116,
2.5,Stim\\02_075.jpg,Al75_6,Alegría,6,Eduardo camina hacia la biblioteca.,Afirmación,Al75,75,,,,,,,,,,,,,0,95,95,95,,,,,3,0.400115935148,2018_may._09_0211,60.0250181475,Experimento Piloto1,001,116,
0.25,Stim\\02_028.jpg,Al28_9,Alegría,9,Marco colabora en la organización del evento.,Afirmación,Al28,28,,,,,,,,,,,,,0,96,96,96,,,,,3,0.70024427598,2018_may._09_0211,60.0250181475,Experimento Piloto1,001,116,
0.25,Stim\\02_019.jpg,Al19_8,Alegría,8,Estefanía despierta a las 7 a.m.,Afirmación,Al19,19,,,,,,,,,,,,,0,97,97,97,,,,,3,0.450374134058,2018_may._09_0211,60.0250181475,Experimento Piloto1,001,116,
2.5,Stim\\02_019.jpg,Al19_1,Alegría,1,Juan colecciona monedas antiguas.,Afirmación,Al19,19,,,,,,,,,,,,,0,98,98,98,,,,,3,0.483662426122,2018_may._09_0211,60.0250181475,Experimento Piloto1,001,116,
0.25,Stim\\02_019.jpg,Al19_5,Alegría,5,Emilio revisa el formato del archivo.,Afirmación,Al19,19,,,,,,,,,,,,,0,99,99,99,,,,,3,0.450376365294,2018_may._09_0211,60.0250181475,Experimento Piloto1,001,116,
2.5,Stim\\02_078.jpg,Al78_13,Alegría,13,Rocío consume alimentos nutritivos.,Afirmación,Al78,78,,,,,,,,,,,,,0,100,100,100,,,,,3,0.650263196883,2018_may._09_0211,60.0250181475,Experimento Piloto1,001,116,
2.5,Stim\\05_078.jpg,En78_12,Enojo,12,Ana compra el libro.,Afirmación,En78,78,,,,,,,,,,,,,0,101,101,101,,,,,3,0.283597095464,2018_may._09_0211,60.0250181475,Experimento Piloto1,001,116,
2.5,Stim\\03_075.jpg,Tr75_11,Tristeza,11,María asiste a la cena.,Afirmación,Tr75,75,,,,,,,,,,,,,0,102,102,102,,,,,3,0.283582369289,2018_may._09_0211,60.0250181475,Experimento Piloto1,001,116,
0.25,Stim\\02_078.jpg,Al78_13,Alegría,13,Rocío consume alimentos nutritivos.,Afirmación,Al78,78,,,,,,,,,,,,,0,103,103,103,,,,,3,0.333812008346,2018_may._09_0211,60.0250181475,Experimento Piloto1,001,116,
0.25,Stim\\03_075.jpg,Tr75_11,Tristeza,11,María asiste a la cena.,Afirmación,Tr75,75,,,,,,,,,,,,,0,104,104,104,,,,,3,0.300449639164,2018_may._09_0211,60.0250181475,Experimento Piloto1,001,116,
2.5,Stim\\05_075.jpg,En75_8,Enojo,8,Estefanía despierta a las 7 a.m.,Afirmación,En75,75,,,,,,,,,,,,,0,105,105,105,,,,,3,0.400417598581,2018_may._09_0211,60.0250181475,Experimento Piloto1,001,116,
2.5,Stim\\03_078.jpg,Tr78_2,Tristeza,2,Jonathan pasea al perro.,Afirmación,Tr78,78,,,,,,,,,,,,,0,106,106,106,,,,,3,0.400700073364,2018_may._09_0211,60.0250181475,Experimento Piloto1,001,116,
2.5,Stim\\03_078.jpg,Tr78_12,Tristeza,12,Ana compra el libro.,Afirmación,Tr78,78,,,,,,,,,,,,,0,107,107,107,,,,,3,0.350382523513,2018_may._09_0211,60.0250181475,Experimento Piloto1,001,116,
2.5,Stim\\05_019.jpg,En19_10,Enojo,10,Laura finaliza la obra.,Afirmación,En19,19,,,,,,,,,,,,,0,108,108,108,,,,,3,0.333652697924,2018_may._09_0211,60.0250181475,Experimento Piloto1,001,116,
2.5,Stim\\05_078.jpg,En78_15,Enojo,15,Ángel envía una carta a la abuela.,Afirmación,En78,78,,,,,,,,,,,,,0,109,109,109,,,,,3,0.33379594343,2018_may._09_0211,60.0250181475,Experimento Piloto1,001,116,
0.25,Stim\\02_028.jpg,Al28_15,Alegría,15,Ángel envía una carta a la abuela.,Afirmación,Al28,28,,,,,,,,,,,,,0,110,110,110,,,,,3,0.583625030567,2018_may._09_0211,60.0250181475,Experimento Piloto1,001,116,
2.5,Stim\\02_075.jpg,Al75_13,Alegría,13,Rocío consume alimentos nutritivos.,Afirmación,Al75,75,,,,,,,,,,,,,0,111,111,111,,,,,3,0.350294612719,2018_may._09_0211,60.0250181475,Experimento Piloto1,001,116,
2.5,Stim\\02_078.jpg,Al78_5,Alegría,5,Emilio revisa el formato del archivo.,Afirmación,Al78,78,,,,,,,,,,,,,0,112,112,112,,,,,3,0.450297825704,2018_may._09_0211,60.0250181475,Experimento Piloto1,001,116,
2.5,Stim\\05_019.jpg,En19_12,Enojo,12,Ana compra el libro.,Afirmación,En19,19,,,,,,,,,,,,,0,113,113,113,,,,,3,0.283706426146,2018_may._09_0211,60.0250181475,Experimento Piloto1,001,116,
2.5,Stim\\03_028.jpg,Tr28_13,Tristeza,13,Rocío consume alimentos nutritivos.,Afirmación,Tr28,28,,,,,,,,,,,,,0,114,114,114,,,,,3,0.500203488944,2018_may._09_0211,60.0250181475,Experimento Piloto1,001,116,
2.5,Stim\\02_075.jpg,Al75_1,Alegría,1,Juan colecciona monedas antiguas.,Afirmación,Al75,75,,,,,,,,,,,,,0,115,115,115,,,,,3,0.300321566079,2018_may._09_0211,60.0250181475,Experimento Piloto1,001,116,
2.5,Stim\\02_028.jpg,Al28_3,Alegría,3,Andrea diseña la portada del libro.,Afirmación,Al28,28,,,,,,,,,,,,,0,116,116,116,,,,,3,0.35005006899,2018_may._09_0211,60.0250181475,Experimento Piloto1,001,116,
0.25,Stim\\05_028.jpg,En28_10,Enojo,10,Laura finaliza la obra.,Afirmación,En28,28,,,,,,,,,,,,,0,117,117,117,,,,,3,0.433698304438,2018_may._09_0211,60.0250181475,Experimento Piloto1,001,116,
0.25,Stim\\02_078.jpg,Al78_3,Alegría,3,Andrea diseña la portada del libro.,Afirmación,Al78,78,,,,,,,,,,,,,0,118,118,118,,,,,3,0.450382612762,2018_may._09_0211,60.0250181475,Experimento Piloto1,001,116,
2.5,Stim\\03_075.jpg,Tr75_15,Tristeza,15,Ángel envía una carta a la abuela.,Afirmación,Tr75,75,,,,,,,,,,,,,0,119,119,119,,,,,3,0.283710888623,2018_may._09_0211,60.0250181475,Experimento Piloto1,001,116,
