Tiempo,ImagenesE,ClaveEn,Emocion,NumEn,Enunciado,ActoHabla,Clave,Cara,trials.thisRepN,trials.thisTrialN,trials.thisN,trials.thisIndex,Bloque3.thisRepN,Bloque3.thisTrialN,Bloque3.thisN,Bloque3.thisIndex,Bloque1.thisRepN,Bloque1.thisTrialN,Bloque1.thisN,Bloque1.thisIndex,Bloque2.thisRepN,Bloque2.thisTrialN,Bloque2.thisN,Bloque2.thisIndex,Sig_B3.keys,Sig_B3.rt,Resp_Bloque3.keys,Resp_Bloque3.rt,Sig_B1.keys,Sig_B1.rt,Resp_Bloque1.keys,Resp_Bloque1.rt,Sig_B2.keys,Sig_B2.rt,Resp_Bloque2.keys,Resp_Bloque2.rt,date,frameRate,expName,session,participant,
0.25,Stim\\02_075.jpg,Al75_11,Alegría,11,María asiste a la cena.,Afirmación,Al75,75,,,,,0,0,0,0,,,,,,,,,1,3.52435307474,3,1.20027060459,,,,,,,,,2018_may._10_1458,60.0599283861,Experimento Piloto1,001,117,
2.5,Stim\\03_019.jpg,Tr19_9,Tristeza,9,Marco colabora en la organización del evento.,Afirmación,Tr19,19,,,,,0,1,1,1,,,,,,,,,1,3.42730803763,2,2.35001883165,,,,,,,,,2018_may._10_1458,60.0599283861,Experimento Piloto1,001,117,
2.5,Stim\\02_075.jpg,Al75_8,Alegría,8,Estefanía despierta a las 7 a.m.,Afirmación,Al75,75,,,,,0,2,2,2,,,,,,,,,1,2.10003088034,3,1.81670421097,,,,,,,,,2018_may._10_1458,60.0599283861,Experimento Piloto1,001,117,
2.5,Stim\\03_075.jpg,Tr75_13,Tristeza,13,Rocío consume alimentos nutritivos.,Afirmación,Tr75,75,,,,,0,3,3,3,,,,,,,,,1,1.74997724137,2,1.26668118459,,,,,,,,,2018_may._10_1458,60.0599283861,Experimento Piloto1,001,117,
0.25,Stim\\03_019.jpg,Tr19_15,Tristeza,15,Ángel envía una carta a la abuela.,Afirmación,Tr19,19,,,,,0,4,4,4,,,,,,,,,1,2.54359393603,4,1.61658488434,,,,,,,,,2018_may._10_1458,60.0599283861,Experimento Piloto1,001,117,
2.5,Stim\\05_075.jpg,En75_11,Enojo,11,María asiste a la cena.,Afirmación,En75,75,,,,,0,5,5,5,,,,,,,,,1,1.39136189437,4,3.68233769526,,,,,,,,,2018_may._10_1458,60.0599283861,Experimento Piloto1,001,117,
0.25,Stim\\05_028.jpg,En28_4,Enojo,4,Jorge sustituye a Gustavo cada sábado.,Afirmación,En28,28,,,,,0,6,6,6,,,,,,,,,1,3.97987021332,3,2.33305026355,,,,,,,,,2018_may._10_1458,60.0599283861,Experimento Piloto1,001,117,
2.5,Stim\\05_028.jpg,En28_9,Enojo,9,Marco colabora en la organización del evento.,Afirmación,En28,28,,,,,0,7,7,7,,,,,,,,,1,3.79055320433,2,1.56671938339,,,,,,,,,2018_may._10_1458,60.0599283861,Experimento Piloto1,001,117,
2.5,Stim\\03_075.jpg,Tr75_9,Tristeza,9,Marco colabora en la organización del evento.,Afirmación,Tr75,75,,,,,0,8,8,8,,,,,,,,,1,1.7501450305,4,0.966770166379,,,,,,,,,2018_may._10_1458,60.0599283861,Experimento Piloto1,001,117,
2.5,Stim\\05_028.jpg,En28_15,Enojo,15,Ángel envía una carta a la abuela.,Afirmación,En28,28,,,,,0,9,9,9,,,,,,,,,1,1.21758635339,2,2.29983069363,,,,,,,,,2018_may._10_1458,60.0599283861,Experimento Piloto1,001,117,
0.25,Stim\\03_078.jpg,Tr78_8,Tristeza,8,Estefanía despierta a las 7 a.m.,Afirmación,Tr78,78,,,,,0,10,10,10,,,,,,,,,1,2.35283822451,4,1.56647082343,,,,,,,,,2018_may._10_1458,60.0599283861,Experimento Piloto1,001,117,
0.25,Stim\\02_075.jpg,Al75_1,Alegría,1,Juan colecciona monedas antiguas.,Afirmación,Al75,75,,,,,0,11,11,11,,,,,,,,,1,2.40124583428,3,1.1168343368,,,,,,,,,2018_may._10_1458,60.0599283861,Experimento Piloto1,001,117,
0.25,Stim\\05_078.jpg,En78_11,Enojo,11,María asiste a la cena.,Afirmación,En78,78,,,,,0,12,12,12,,,,,,,,,1,1.57504859637,4,2.19982123318,,,,,,,,,2018_may._10_1458,60.0599283861,Experimento Piloto1,001,117,
2.5,Stim\\03_028.jpg,Tr28_15,Tristeza,15,Ángel envía una carta a la abuela.,Afirmación,Tr28,28,,,,,0,13,13,13,,,,,,,,,1,1.21804643475,4,0.96669876675,,,,,,,,,2018_may._10_1458,60.0599283861,Experimento Piloto1,001,117,
2.5,Stim\\02_019.jpg,Al19_3,Alegría,3,Andrea diseña la portada del libro.,Afirmación,Al19,19,,,,,0,14,14,14,,,,,,,,,1,2.44804829114,3,1.21665905071,,,,,,,,,2018_may._10_1458,60.0599283861,Experimento Piloto1,001,117,
2.5,Stim\\05_019.jpg,En19_5,Enojo,5,Emilio revisa el formato del archivo.,Afirmación,En19,19,,,,,0,15,15,15,,,,,,,,,1,1.93163396266,2,1.01671509942,,,,,,,,,2018_may._10_1458,60.0599283861,Experimento Piloto1,001,117,
0.25,Stim\\02_028.jpg,Al28_11,Alegría,11,María asiste a la cena.,Afirmación,Al28,28,,,,,0,16,16,16,,,,,,,,,1,1.74151013785,3,0.550160916914,,,,,,,,,2018_may._10_1458,60.0599283861,Experimento Piloto1,001,117,
0.25,Stim\\03_019.jpg,Tr19_11,Tristeza,11,María asiste a la cena.,Afirmación,Tr19,19,,,,,0,17,17,17,,,,,,,,,1,1.13332229614,2,1.21675945643,,,,,,,,,2018_may._10_1458,60.0599283861,Experimento Piloto1,001,117,
2.5,Stim\\03_078.jpg,Tr78_14,Tristeza,14,Elizabeth elige la ropa un día antes.,Afirmación,Tr78,78,,,,,0,18,18,18,,,,,,,,,1,1.2171325195,4,0.700318799344,,,,,,,,,2018_may._10_1458,60.0599283861,Experimento Piloto1,001,117,
0.25,Stim\\02_019.jpg,Al19_9,Alegría,9,Marco colabora en la organización del evento.,Afirmación,Al19,19,,,,,0,19,19,19,,,,,,,,,1,1.77752232577,3,0.550249273955,,,,,,,,,2018_may._10_1458,60.0599283861,Experimento Piloto1,001,117,
2.5,Stim\\02_075.jpg,Al75_11,Alegría,11,María asiste a la cena.,Afirmación,Al75,75,,,,,0,20,20,20,,,,,,,,,1,0.97504136716,4,2.59971181325,,,,,,,,,2018_may._10_1458,60.0599283861,Experimento Piloto1,001,117,
0.25,Stim\\02_028.jpg,Al28_4,Alegría,4,Jorge sustituye a Gustavo cada sábado.,Afirmación,Al28,28,,,,,0,21,21,21,,,,,,,,,1,3.73116165412,2,1.5829552128,,,,,,,,,2018_may._10_1458,60.0599283861,Experimento Piloto1,001,117,
2.5,Stim\\02_075.jpg,Al75_10,Alegría,10,Laura finaliza la obra.,Afirmación,Al75,75,,,,,0,22,22,22,,,,,,,,,1,2.50696458757,2,0.750144584249,,,,,,,,,2018_may._10_1458,60.0599283861,Experimento Piloto1,001,117,
0.25,Stim\\05_075.jpg,En75_4,Enojo,4,Jorge sustituye a Gustavo cada sábado.,Afirmación,En75,75,,,,,0,23,23,23,,,,,,,,,1,2.69867036041,4,0.817394556135,,,,,,,,,2018_may._10_1458,60.0599283861,Experimento Piloto1,001,117,
2.5,Stim\\02_028.jpg,Al28_11,Alegría,11,María asiste a la cena.,Afirmación,Al28,28,,,,,0,24,24,24,,,,,,,,,1,1.99134814995,3,1.16665967545,,,,,,,,,2018_may._10_1458,60.0599283861,Experimento Piloto1,001,117,
0.25,Stim\\02_078.jpg,Al78_1,Alegría,1,Juan colecciona monedas antiguas.,Afirmación,Al78,78,,,,,0,25,25,25,,,,,,,,,1,1.83644040719,3,0.500253914931,,,,,,,,,2018_may._10_1458,60.0599283861,Experimento Piloto1,001,117,
2.5,Stim\\02_019.jpg,Al19_7,Alegría,7,Roberto contesta los cuestionarios solicitados.,Afirmación,Al19,19,,,,,0,26,26,26,,,,,,,,,1,1.82703662979,3,0.71670456797,,,,,,,,,2018_may._10_1458,60.0599283861,Experimento Piloto1,001,117,
0.25,Stim\\05_028.jpg,En28_15,Enojo,15,Ángel envía una carta a la abuela.,Afirmación,En28,28,,,,,0,27,27,27,,,,,,,,,1,1.10175652012,2,1.63319511555,,,,,,,,,2018_may._10_1458,60.0599283861,Experimento Piloto1,001,117,
0.25,Stim\\03_075.jpg,Tr75_2,Tristeza,2,Jonathan pasea al perro.,Afirmación,Tr75,75,,,,,0,28,28,28,,,,,,,,,1,1.69088690834,4,0.900245793223,,,,,,,,,2018_may._10_1458,60.0599283861,Experimento Piloto1,001,117,
0.25,Stim\\05_075.jpg,En75_3,Enojo,3,Andrea diseña la portada del libro.,Afirmación,En75,75,,,,,0,29,29,29,,,,,,,,,1,1.31491163403,2,0.500466328827,,,,,,,,,2018_may._10_1458,60.0599283861,Experimento Piloto1,001,117,
2.5,Stim\\05_028.jpg,En28_10,Enojo,10,Laura finaliza la obra.,Afirmación,En28,28,,,,,0,30,30,30,,,,,,,,,1,0.925915744868,2,1.26676017043,,,,,,,,,2018_may._10_1458,60.0599283861,Experimento Piloto1,001,117,
0.25,Stim\\05_019.jpg,En19_4,Enojo,4,Jorge sustituye a Gustavo cada sábado.,Afirmación,En19,19,,,,,0,31,31,31,,,,,,,,,1,1.33212162213,4,0.700250077201,,,,,,,,,2018_may._10_1458,60.0599283861,Experimento Piloto1,001,117,
2.5,Stim\\02_078.jpg,Al78_1,Alegría,1,Juan colecciona monedas antiguas.,Afirmación,Al78,78,,,,,0,32,32,32,,,,,,,,,1,1.3648324697,3,0.600378061036,,,,,,,,,2018_may._10_1458,60.0599283861,Experimento Piloto1,001,117,
0.25,Stim\\05_075.jpg,En75_6,Enojo,6,Eduardo camina hacia la biblioteca.,Afirmación,En75,75,,,,,0,33,33,33,,,,,,,,,1,3.6837250793,3,1.6832636592,,,,,,,,,2018_may._10_1458,60.0599283861,Experimento Piloto1,001,117,
2.5,Stim\\02_019.jpg,Al19_12,Alegría,12,Ana compra el libro.,Afirmación,Al19,19,,,,,0,34,34,34,,,,,,,,,1,1.07604863743,3,0.350089785034,,,,,,,,,2018_may._10_1458,60.0599283861,Experimento Piloto1,001,117,
0.25,Stim\\05_075.jpg,En75_8,Enojo,8,Estefanía despierta a las 7 a.m.,Afirmación,En75,75,,,,,0,35,35,35,,,,,,,,,1,1.31937991207,4,0.850320941333,,,,,,,,,2018_may._10_1458,60.0599283861,Experimento Piloto1,001,117,
2.5,Stim\\03_028.jpg,Tr28_4,Tristeza,4,Jorge sustituye a Gustavo cada sábado.,Afirmación,Tr28,28,,,,,0,36,36,36,,,,,,,,,1,1.27743664622,4,0.750117809388,,,,,,,,,2018_may._10_1458,60.0599283861,Experimento Piloto1,001,117,
0.25,Stim\\03_078.jpg,Tr78_12,Tristeza,12,Ana compra el libro.,Afirmación,Tr78,78,,,,,0,37,37,37,,,,,,,,,1,1.1268615222,4,1.11679238951,,,,,,,,,2018_may._10_1458,60.0599283861,Experimento Piloto1,001,117,
2.5,Stim\\03_019.jpg,Tr19_3,Tristeza,3,Andrea diseña la portada del libro.,Afirmación,Tr19,19,,,,,0,38,38,38,,,,,,,,,1,1.26853578996,2,1.46658720483,,,,,,,,,2018_may._10_1458,60.0599283861,Experimento Piloto1,001,117,
2.5,Stim\\05_075.jpg,En75_4,Enojo,4,Jorge sustituye a Gustavo cada sábado.,Afirmación,En75,75,,,,,0,39,39,39,,,,,,,,,1,2.71511280249,4,0.919095741548,,,,,,,,,2018_may._10_1458,60.0599283861,Experimento Piloto1,001,117,
0.25,Stim\\05_078.jpg,En78_6,Enojo,6,Eduardo camina hacia la biblioteca.,Afirmación,En78,78,,,,,0,40,40,40,,,,,,,,,1,1.26705871013,2,1.66670920895,,,,,,,,,2018_may._10_1458,60.0599283861,Experimento Piloto1,001,117,
0.25,Stim\\03_078.jpg,Tr78_3,Tristeza,3,Andrea diseña la portada del libro.,Afirmación,Tr78,78,,,,,0,41,41,41,,,,,,,,,1,1.16847411853,4,0.600389217228,,,,,,,,,2018_may._10_1458,60.0599283861,Experimento Piloto1,001,117,
0.25,Stim\\05_078.jpg,En78_15,Enojo,15,Ángel envía una carta a la abuela.,Afirmación,En78,78,,,,,0,42,42,42,,,,,,,,,1,1.63379844242,2,1.31665556997,,,,,,,,,2018_may._10_1458,60.0599283861,Experimento Piloto1,001,117,
2.5,Stim\\05_078.jpg,En78_2,Enojo,2,Jonathan pasea al perro.,Afirmación,En78,78,,,,,0,43,43,43,,,,,,,,,1,1.54099052705,2,1.01679274651,,,,,,,,,2018_may._10_1458,60.0599283861,Experimento Piloto1,001,117,
2.5,Stim\\02_078.jpg,Al78_4,Alegría,4,Jorge sustituye a Gustavo cada sábado.,Afirmación,Al78,78,,,,,0,44,44,44,,,,,,,,,1,1.01562804006,3,0.700235797275,,,,,,,,,2018_may._10_1458,60.0599283861,Experimento Piloto1,001,117,
2.5,Stim\\05_078.jpg,En78_4,Enojo,4,Jorge sustituye a Gustavo cada sábado.,Afirmación,En78,78,,,,,0,45,45,45,,,,,,,,,1,1.30017608934,4,0.434159278293,,,,,,,,,2018_may._10_1458,60.0599283861,Experimento Piloto1,001,117,
0.25,Stim\\05_019.jpg,En19_9,Enojo,9,Marco colabora en la organización del evento.,Afirmación,En19,19,,,,,0,46,46,46,,,,,,,,,1,1.99301890127,4,0.53371133487,,,,,,,,,2018_may._10_1458,60.0599283861,Experimento Piloto1,001,117,
0.25,Stim\\05_019.jpg,En19_15,Enojo,15,Ángel envía una carta a la abuela.,Afirmación,En19,19,,,,,0,47,47,47,,,,,,,,,1,1.23366822734,2,0.483664211114,,,,,,,,,2018_may._10_1458,60.0599283861,Experimento Piloto1,001,117,
2.5,Stim\\02_028.jpg,Al28_2,Alegría,2,Jonathan pasea al perro.,Afirmación,Al28,28,,,,,0,48,48,48,,,,,,,,,1,0.775059931064,3,0.400353338914,,,,,,,,,2018_may._10_1458,60.0599283861,Experimento Piloto1,001,117,
0.25,Stim\\03_075.jpg,Tr75_1,Tristeza,1,Juan colecciona monedas antiguas.,Afirmación,Tr75,75,,,,,0,49,49,49,,,,,,,,,1,1.31956778235,4,0.700226872321,,,,,,,,,2018_may._10_1458,60.0599283861,Experimento Piloto1,001,117,
2.5,Stim\\02_028.jpg,Al28_12,Alegría,12,Ana compra el libro.,Afirmación,Al28,28,,,,,0,50,50,50,,,,,,,,,1,0.727764816762,3,0.500016064917,,,,,,,,,2018_may._10_1458,60.0599283861,Experimento Piloto1,001,117,
0.25,Stim\\05_019.jpg,En19_5,Enojo,5,Emilio revisa el formato del archivo.,Afirmación,En19,19,,,,,0,51,51,51,,,,,,,,,1,1.61481015731,2,0.816958125902,,,,,,,,,2018_may._10_1458,60.0599283861,Experimento Piloto1,001,117,
0.25,Stim\\02_075.jpg,Al75_9,Alegría,9,Marco colabora en la organización del evento.,Afirmación,Al75,75,,,,,0,52,52,52,,,,,,,,,1,1.1125311704,2,0.483657071152,,,,,,,,,2018_may._10_1458,60.0599283861,Experimento Piloto1,001,117,
2.5,Stim\\03_019.jpg,Tr19_12,Tristeza,12,Ana compra el libro.,Afirmación,Tr19,19,,,,,0,53,53,53,,,,,,,,,1,0.525354454534,2,1.00007363087,,,,,,,,,2018_may._10_1458,60.0599283861,Experimento Piloto1,001,117,
2.5,Stim\\02_019.jpg,Al19_4,Alegría,4,Jorge sustituye a Gustavo cada sábado.,Afirmación,Al19,19,,,,,0,54,54,54,,,,,,,,,1,0.997597848729,3,0.550321566079,,,,,,,,,2018_may._10_1458,60.0599283861,Experimento Piloto1,001,117,
0.25,Stim\\02_019.jpg,Al19_12,Alegría,12,Ana compra el libro.,Afirmación,Al19,19,,,,,0,55,55,55,,,,,,,,,1,1.17744101944,3,0.483860113847,,,,,,,,,2018_may._10_1458,60.0599283861,Experimento Piloto1,001,117,
2.5,Stim\\02_078.jpg,Al78_7,Alegría,7,Roberto contesta los cuestionarios solicitados.,Afirmación,Al78,78,,,,,0,56,56,56,,,,,,,,,1,1.12729750619,3,0.333654482915,,,,,,,,,2018_may._10_1458,60.0599283861,Experimento Piloto1,001,117,
2.5,Stim\\03_078.jpg,Tr78_13,Tristeza,13,Rocío consume alimentos nutritivos.,Afirmación,Tr78,78,,,,,0,57,57,57,,,,,,,,,1,1.23321528595,4,0.950142977757,,,,,,,,,2018_may._10_1458,60.0599283861,Experimento Piloto1,001,117,
2.5,Stim\\02_075.jpg,Al75_9,Alegría,9,Marco colabora en la organización del evento.,Afirmación,Al75,75,,,,,0,58,58,58,,,,,,,,,1,1.32611691332,2,0.400391716215,,,,,,,,,2018_may._10_1458,60.0599283861,Experimento Piloto1,001,117,
0.25,Stim\\02_028.jpg,Al28_5,Alegría,5,Emilio revisa el formato del archivo.,Afirmación,Al28,28,,,,,0,59,59,59,,,,,,,,,1,2.59979213783,3,0.500323083322,,,,,,,,,2018_may._10_1458,60.0599283861,Experimento Piloto1,001,117,
2.5,Stim\\03_028.jpg,Tr28_7,Tristeza,7,Roberto contesta los cuestionarios solicitados.,Afirmación,Tr28,28,,,,,0,60,60,60,,,,,,,,,1,2.80958566795,4,1.10007595136,,,,,,,,,2018_may._10_1458,60.0599283861,Experimento Piloto1,001,117,
0.25,Stim\\05_078.jpg,En78_7,Enojo,7,Roberto contesta los cuestionarios solicitados.,Afirmación,En78,78,,,,,0,61,61,61,,,,,,,,,1,0.933432340819,4,0.800233209039,,,,,,,,,2018_may._10_1458,60.0599283861,Experimento Piloto1,001,117,
2.5,Stim\\03_028.jpg,Tr28_5,Tristeza,5,Emilio revisa el formato del archivo.,Afirmación,Tr28,28,,,,,0,62,62,62,,,,,,,,,1,1.8492200483,4,1.3666705639,,,,,,,,,2018_may._10_1458,60.0599283861,Experimento Piloto1,001,117,
0.25,Stim\\02_019.jpg,Al19_13,Alegría,13,Rocío consume alimentos nutritivos.,Afirmación,Al19,19,,,,,0,63,63,63,,,,,,,,,1,0.951906102348,3,0.500439553967,,,,,,,,,2018_may._10_1458,60.0599283861,Experimento Piloto1,001,117,
2.5,Stim\\05_019.jpg,En19_13,Enojo,13,Rocío consume alimentos nutritivos.,Afirmación,En19,19,,,,,0,64,64,64,,,,,,,,,1,1.30013503455,2,0.383668584342,,,,,,,,,2018_may._10_1458,60.0599283861,Experimento Piloto1,001,117,
2.5,Stim\\03_078.jpg,Tr78_4,Tristeza,4,Jorge sustituye a Gustavo cada sábado.,Afirmación,Tr78,78,,,,,0,65,65,65,,,,,,,,,1,1.13304651507,4,0.950174661343,,,,,,,,,2018_may._10_1458,60.0599283861,Experimento Piloto1,001,117,
0.25,Stim\\05_028.jpg,En28_13,Enojo,13,Rocío consume alimentos nutritivos.,Afirmación,En28,28,,,,,0,66,66,66,,,,,,,,,1,2.0990384255,4,0.550262661386,,,,,,,,,2018_may._10_1458,60.0599283861,Experimento Piloto1,001,117,
0.25,Stim\\02_075.jpg,Al75_4,Alegría,4,Jorge sustituye a Gustavo cada sábado.,Afirmación,Al75,75,,,,,0,67,67,67,,,,,,,,,1,1.11439336198,3,0.483679829783,,,,,,,,,2018_may._10_1458,60.0599283861,Experimento Piloto1,001,117,
0.25,Stim\\03_019.jpg,Tr19_14,Tristeza,14,Elizabeth elige la ropa un día antes.,Afirmación,Tr19,19,,,,,0,68,68,68,,,,,,,,,1,1.48313674635,2,1.61674910349,,,,,,,,,2018_may._10_1458,60.0599283861,Experimento Piloto1,001,117,
2.5,Stim\\02_075.jpg,Al75_4,Alegría,4,Jorge sustituye a Gustavo cada sábado.,Afirmación,Al75,75,,,,,0,69,69,69,,,,,,,,,1,1.1822323808,3,1.41663870181,,,,,,,,,2018_may._10_1458,60.0599283861,Experimento Piloto1,001,117,
2.5,Stim\\05_078.jpg,En78_7,Enojo,7,Roberto contesta los cuestionarios solicitados.,Afirmación,En78,78,,,,,0,70,70,70,,,,,,,,,1,1.62695255673,2,1.21677775259,,,,,,,,,2018_may._10_1458,60.0599283861,Experimento Piloto1,001,117,
2.5,Stim\\05_028.jpg,En28_6,Enojo,6,Eduardo camina hacia la biblioteca.,Afirmación,En28,28,,,,,0,71,71,71,,,,,,,,,1,1.33502089332,2,0.483510701912,,,,,,,,,2018_may._10_1458,60.0599283861,Experimento Piloto1,001,117,
2.5,Stim\\05_028.jpg,En28_7,Enojo,7,Roberto contesta los cuestionarios solicitados.,Afirmación,En28,28,,,,,0,72,72,72,,,,,,,,,1,0.910915575294,2,1.63330980121,,,,,,,,,2018_may._10_1458,60.0599283861,Experimento Piloto1,001,117,
2.5,Stim\\03_028.jpg,Tr28_14,Tristeza,14,Elizabeth elige la ropa un día antes.,Afirmación,Tr28,28,,,,,0,73,73,73,,,,,,,,,1,0.866342125603,4,0.450337987994,,,,,,,,,2018_may._10_1458,60.0599283861,Experimento Piloto1,001,117,
2.5,Stim\\02_019.jpg,Al19_11,Alegría,11,María asiste a la cena.,Afirmación,Al19,19,,,,,0,74,74,74,,,,,,,,,1,1.12500200811,3,0.400313622871,,,,,,,,,2018_may._10_1458,60.0599283861,Experimento Piloto1,001,117,
0.25,Stim\\05_028.jpg,En28_7,Enojo,7,Roberto contesta los cuestionarios solicitados.,Afirmación,En28,28,,,,,0,75,75,75,,,,,,,,,1,1.16135869924,2,1.00014815423,,,,,,,,,2018_may._10_1458,60.0599283861,Experimento Piloto1,001,117,
0.25,Stim\\05_078.jpg,En78_13,Enojo,13,Rocío consume alimentos nutritivos.,Afirmación,En78,78,,,,,0,76,76,76,,,,,,,,,1,1.01825063769,4,0.650197152226,,,,,,,,,2018_may._10_1458,60.0599283861,Experimento Piloto1,001,117,
0.25,Stim\\03_028.jpg,Tr28_14,Tristeza,14,Elizabeth elige la ropa un día antes.,Afirmación,Tr28,28,,,,,0,77,77,77,,,,,,,,,1,1.21719454792,4,0.400266320617,,,,,,,,,2018_may._10_1458,60.0599283861,Experimento Piloto1,001,117,
2.5,Stim\\03_075.jpg,Tr75_14,Tristeza,14,Elizabeth elige la ropa un día antes.,Afirmación,Tr75,75,,,,,0,78,78,78,,,,,,,,,1,1.13353292505,2,1.31685995141,,,,,,,,,2018_may._10_1458,60.0599283861,Experimento Piloto1,001,117,
0.25,Stim\\05_019.jpg,En19_10,Enojo,10,Laura finaliza la obra.,Afirmación,En19,19,,,,,0,79,79,79,,,,,,,,,1,0.925165156267,2,0.500261947389,,,,,,,,,2018_may._10_1458,60.0599283861,Experimento Piloto1,001,117,
0.25,Stim\\05_078.jpg,En78_9,Enojo,9,Marco colabora en la organización del evento.,Afirmación,En78,78,,,,,0,80,80,80,,,,,,,,,1,1.06224842787,2,0.433745160444,,,,,,,,,2018_may._10_1458,60.0599283861,Experimento Piloto1,001,117,
0.25,Stim\\02_028.jpg,Al28_6,Alegría,6,Eduardo camina hacia la biblioteca.,Afirmación,Al28,28,,,,,0,81,81,81,,,,,,,,,1,1.16839379394,3,0.450319245592,,,,,,,,,2018_may._10_1458,60.0599283861,Experimento Piloto1,001,117,
0.25,Stim\\05_078.jpg,En78_12,Enojo,12,Ana compra el libro.,Afirmación,En78,78,,,,,0,82,82,82,,,,,,,,,1,1.64285102289,4,0.500336024504,,,,,,,,,2018_may._10_1458,60.0599283861,Experimento Piloto1,001,117,
2.5,Stim\\05_075.jpg,En75_1,Enojo,1,Juan colecciona monedas antiguas.,Afirmación,En75,75,,,,,0,83,83,83,,,,,,,,,1,1.26699177298,4,0.400337720245,,,,,,,,,2018_may._10_1458,60.0599283861,Experimento Piloto1,001,117,
0.25,Stim\\03_019.jpg,Tr19_13,Tristeza,13,Rocío consume alimentos nutritivos.,Afirmación,Tr19,19,,,,,0,84,84,84,,,,,,,,,1,0.90208076369,2,0.716825947339,,,,,,,,,2018_may._10_1458,60.0599283861,Experimento Piloto1,001,117,
2.5,Stim\\03_078.jpg,Tr78_11,Tristeza,11,María asiste a la cena.,Afirmación,Tr78,78,,,,,0,85,85,85,,,,,,,,,1,1.47489276668,4,1.98323982957,,,,,,,,,2018_may._10_1458,60.0599283861,Experimento Piloto1,001,117,
2.5,Stim\\05_019.jpg,En19_1,Enojo,1,Juan colecciona monedas antiguas.,Afirmación,En19,19,,,,,0,86,86,86,,,,,,,,,1,1.18528739243,4,0.600246864218,,,,,,,,,2018_may._10_1458,60.0599283861,Experimento Piloto1,001,117,
0.25,Stim\\02_075.jpg,Al75_10,Alegría,10,Laura finaliza la obra.,Afirmación,Al75,75,,,,,0,87,87,87,,,,,,,,,1,2.14158144823,2,0.650310499137,,,,,,,,,2018_may._10_1458,60.0599283861,Experimento Piloto1,001,117,
2.5,Stim\\02_019.jpg,Al19_14,Alegría,14,Elizabeth elige la ropa un día antes.,Afirmación,Al19,19,,,,,0,88,88,88,,,,,,,,,1,1.13293584565,3,0.55034253972,,,,,,,,,2018_may._10_1458,60.0599283861,Experimento Piloto1,001,117,
0.25,Stim\\03_028.jpg,Tr28_6,Tristeza,6,Eduardo camina hacia la biblioteca.,Afirmación,Tr28,28,,,,,0,89,89,89,,,,,,,,,1,1.16757760693,4,0.900058369197,,,,,,,,,2018_may._10_1458,60.0599283861,Experimento Piloto1,001,117,
0.25,Stim\\02_075.jpg,Al75_8,Alegría,8,Estefanía despierta a las 7 a.m.,Afirmación,Al75,75,,,,,0,90,90,90,,,,,,,,,1,0.966279740177,2,0.383662783122,,,,,,,,,2018_may._10_1458,60.0599283861,Experimento Piloto1,001,117,
2.5,Stim\\02_019.jpg,Al19_6,Alegría,6,Eduardo camina hacia la biblioteca.,Afirmación,Al19,19,,,,,0,91,91,91,,,,,,,,,1,1.38126286309,3,1.41667217039,,,,,,,,,2018_may._10_1458,60.0599283861,Experimento Piloto1,001,117,
2.5,Stim\\03_078.jpg,Tr78_7,Tristeza,7,Roberto contesta los cuestionarios solicitados.,Afirmación,Tr78,78,,,,,0,92,92,92,,,,,,,,,1,2.56016891367,2,0.95018671003,,,,,,,,,2018_may._10_1458,60.0599283861,Experimento Piloto1,001,117,
2.5,Stim\\02_028.jpg,Al28_8,Alegría,8,Estefanía despierta a las 7 a.m.,Afirmación,Al28,28,,,,,0,93,93,93,,,,,,,,,1,0.920010995543,3,0.400289525496,,,,,,,,,2018_may._10_1458,60.0599283861,Experimento Piloto1,001,117,
0.25,Stim\\03_075.jpg,Tr75_13,Tristeza,13,Rocío consume alimentos nutritivos.,Afirmación,Tr75,75,,,,,0,94,94,94,,,,,,,,,1,1.11781920543,4,0.500213306392,,,,,,,,,2018_may._10_1458,60.0599283861,Experimento Piloto1,001,117,
2.5,Stim\\02_075.jpg,Al75_6,Alegría,6,Eduardo camina hacia la biblioteca.,Afirmación,Al75,75,,,,,0,95,95,95,,,,,,,,,1,0.867972714632,2,0.50003659231,,,,,,,,,2018_may._10_1458,60.0599283861,Experimento Piloto1,001,117,
0.25,Stim\\02_028.jpg,Al28_9,Alegría,9,Marco colabora en la organización del evento.,Afirmación,Al28,28,,,,,0,96,96,96,,,,,,,,,1,0.945712184525,3,0.450342896719,,,,,,,,,2018_may._10_1458,60.0599283861,Experimento Piloto1,001,117,
0.25,Stim\\02_019.jpg,Al19_8,Alegría,8,Estefanía despierta a las 7 a.m.,Afirmación,Al19,19,,,,,0,97,97,97,,,,,,,,,1,1.12034407481,3,0.400271229341,,,,,,,,,2018_may._10_1458,60.0599283861,Experimento Piloto1,001,117,
2.5,Stim\\02_019.jpg,Al19_1,Alegría,1,Juan colecciona monedas antiguas.,Afirmación,Al19,19,,,,,0,98,98,98,,,,,,,,,1,0.753421827224,3,0.400258734406,,,,,,,,,2018_may._10_1458,60.0599283861,Experimento Piloto1,001,117,
0.25,Stim\\02_019.jpg,Al19_5,Alegría,5,Emilio revisa el formato del archivo.,Afirmación,Al19,19,,,,,0,99,99,99,,,,,,,,,1,1.01663566733,3,0.349967066921,,,,,,,,,2018_may._10_1458,60.0599283861,Experimento Piloto1,001,117,
2.5,Stim\\02_078.jpg,Al78_13,Alegría,13,Rocío consume alimentos nutritivos.,Afirmación,Al78,78,,,,,0,100,100,100,,,,,,,,,1,0.75151501088,3,0.350371367321,,,,,,,,,2018_may._10_1458,60.0599283861,Experimento Piloto1,001,117,
2.5,Stim\\05_078.jpg,En78_12,Enojo,12,Ana compra el libro.,Afirmación,En78,78,,,,,0,101,101,101,,,,,,,,,1,1.27628800468,4,0.400263196883,,,,,,,,,2018_may._10_1458,60.0599283861,Experimento Piloto1,001,117,
2.5,Stim\\03_075.jpg,Tr75_11,Tristeza,11,María asiste a la cena.,Afirmación,Tr75,75,,,,,0,102,102,102,,,,,,,,,1,0.67465643391,4,0.333740608718,,,,,,,,,2018_may._10_1458,60.0599283861,Experimento Piloto1,001,117,
0.25,Stim\\02_078.jpg,Al78_13,Alegría,13,Rocío consume alimentos nutritivos.,Afirmación,Al78,78,,,,,0,103,103,103,,,,,,,,,1,0.817622142453,3,0.500304340919,,,,,,,,,2018_may._10_1458,60.0599283861,Experimento Piloto1,001,117,
0.25,Stim\\03_075.jpg,Tr75_11,Tristeza,11,María asiste a la cena.,Afirmación,Tr75,75,,,,,0,104,104,104,,,,,,,,,1,1.17590191119,2,0.65022705082,,,,,,,,,2018_may._10_1458,60.0599283861,Experimento Piloto1,001,117,
2.5,Stim\\05_075.jpg,En75_8,Enojo,8,Estefanía despierta a las 7 a.m.,Afirmación,En75,75,,,,,0,105,105,105,,,,,,,,,1,1.01990934032,4,0.55025016645,,,,,,,,,2018_may._10_1458,60.0599283861,Experimento Piloto1,001,117,
2.5,Stim\\03_078.jpg,Tr78_2,Tristeza,2,Jonathan pasea al perro.,Afirmación,Tr78,78,,,,,0,106,106,106,,,,,,,,,1,0.824254275499,4,0.600234369282,,,,,,,,,2018_may._10_1458,60.0599283861,Experimento Piloto1,001,117,
2.5,Stim\\03_078.jpg,Tr78_12,Tristeza,12,Ana compra el libro.,Afirmación,Tr78,78,,,,,0,107,107,107,,,,,,,,,1,0.660052532277,4,0.350363334863,,,,,,,,,2018_may._10_1458,60.0599283861,Experimento Piloto1,001,117,
2.5,Stim\\05_019.jpg,En19_10,Enojo,10,Laura finaliza la obra.,Afirmación,En19,19,,,,,0,108,108,108,,,,,,,,,1,0.675432458628,4,0.383631545784,,,,,,,,,2018_may._10_1458,60.0599283861,Experimento Piloto1,001,117,
2.5,Stim\\05_078.jpg,En78_15,Enojo,15,Ángel envía una carta a la abuela.,Afirmación,En78,78,,,,,0,109,109,109,,,,,,,,,1,1.43472333536,4,0.350017492909,,,,,,,,,2018_may._10_1458,60.0599283861,Experimento Piloto1,001,117,
0.25,Stim\\02_028.jpg,Al28_15,Alegría,15,Ángel envía una carta a la abuela.,Afirmación,Al28,28,,,,,0,110,110,110,,,,,,,,,1,0.917036308496,3,0.300363067114,,,,,,,,,2018_may._10_1458,60.0599283861,Experimento Piloto1,001,117,
2.5,Stim\\02_075.jpg,Al75_13,Alegría,13,Rocío consume alimentos nutritivos.,Afirmación,Al75,75,,,,,0,111,111,111,,,,,,,,,1,1.06845127065,3,0.350051407733,,,,,,,,,2018_may._10_1458,60.0599283861,Experimento Piloto1,001,117,
2.5,Stim\\02_078.jpg,Al78_5,Alegría,5,Emilio revisa el formato del archivo.,Afirmación,Al78,78,,,,,0,112,112,112,,,,,,,,,1,1.36609088816,3,0.350576641254,,,,,,,,,2018_may._10_1458,60.0599283861,Experimento Piloto1,001,117,
2.5,Stim\\05_019.jpg,En19_12,Enojo,12,Ana compra el libro.,Afirmación,En19,19,,,,,0,113,113,113,,,,,,,,,1,0.560884694954,2,0.400340397732,,,,,,,,,2018_may._10_1458,60.0599283861,Experimento Piloto1,001,117,
2.5,Stim\\03_028.jpg,Tr28_13,Tristeza,13,Rocío consume alimentos nutritivos.,Afirmación,Tr28,28,,,,,0,114,114,114,,,,,,,,,1,0.767161347097,4,0.333690182729,,,,,,,,,2018_may._10_1458,60.0599283861,Experimento Piloto1,001,117,
2.5,Stim\\02_075.jpg,Al75_1,Alegría,1,Juan colecciona monedas antiguas.,Afirmación,Al75,75,,,,,0,115,115,115,,,,,,,,,1,1.48501277161,3,0.550152884456,,,,,,,,,2018_may._10_1458,60.0599283861,Experimento Piloto1,001,117,
2.5,Stim\\02_028.jpg,Al28_3,Alegría,3,Andrea diseña la portada del libro.,Afirmación,Al28,28,,,,,0,116,116,116,,,,,,,,,1,0.517157330868,3,0.333791034706,,,,,,,,,2018_may._10_1458,60.0599283861,Experimento Piloto1,001,117,
0.25,Stim\\05_028.jpg,En28_10,Enojo,10,Laura finaliza la obra.,Afirmación,En28,28,,,,,0,117,117,117,,,,,,,,,1,0.658927541871,2,1.16670206898,,,,,,,,,2018_may._10_1458,60.0599283861,Experimento Piloto1,001,117,
0.25,Stim\\02_078.jpg,Al78_3,Alegría,3,Andrea diseña la portada del libro.,Afirmación,Al78,78,,,,,0,118,118,118,,,,,,,,,1,0.550848138344,3,0.35031960259,,,,,,,,,2018_may._10_1458,60.0599283861,Experimento Piloto1,001,117,
2.5,Stim\\03_075.jpg,Tr75_15,Tristeza,15,Ángel envía una carta a la abuela.,Afirmación,Tr75,75,,,,,0,119,119,119,,,,,,,,,1,1.4354676765,4,1.2666222799,,,,,,,,,2018_may._10_1458,60.0599283861,Experimento Piloto1,001,117,
0.25,Stim\\03_028.jpg,Tr28_2,Tristeza,2,Jonathan pasea al perro.,Afirmación,Tr28,28,,,,,,,,,0,0,0,0,,,,,,,,,1,1.15853127393,4,0.450307196904,,,,,2018_may._10_1458,60.0599283861,Experimento Piloto1,001,117,
2.5,Stim\\05_075.jpg,En75_12,Enojo,12,Ana compra el libro.,Afirmación,En75,75,,,,,,,,,0,1,1,1,,,,,,,,,1,1.02648167618,2,0.600269176602,,,,,2018_may._10_1458,60.0599283861,Experimento Piloto1,001,117,
0.25,Stim\\02_078.jpg,Al78_11,Alegría,11,María asiste a la cena.,Afirmación,Al78,78,,,,,,,,,0,2,2,2,,,,,,,,,1,0.808401772853,3,0.350288365252,,,,,2018_may._10_1458,60.0599283861,Experimento Piloto1,001,117,
0.25,Stim\\02_078.jpg,Al78_8,Alegría,8,Estefanía despierta a las 7 a.m.,Afirmación,Al78,78,,,,,,,,,0,3,3,3,,,,,,,,,1,1.58685586378,3,0.333710263875,,,,,2018_may._10_1458,60.0599283861,Experimento Piloto1,001,117,
0.25,Stim\\05_028.jpg,En28_6,Enojo,6,Eduardo camina hacia la biblioteca.,Afirmación,En28,28,,,,,,,,,0,4,4,4,,,,,,,,,1,0.818584252455,2,0.383717671587,,,,,2018_may._10_1458,60.0599283861,Experimento Piloto1,001,117,
0.25,Stim\\02_019.jpg,Al19_14,Alegría,14,Elizabeth elige la ropa un día antes.,Afirmación,Al19,19,,,,,,,,,0,5,5,5,,,,,,,,,1,0.716746515252,3,0.33397890498,,,,,2018_may._10_1458,60.0599283861,Experimento Piloto1,001,117,
2.5,Stim\\05_078.jpg,En78_1,Enojo,1,Juan colecciona monedas antiguas.,Afirmación,En78,78,,,,,,,,,0,6,6,6,,,,,,,,,1,0.869842938666,4,0.450235797275,,,,,2018_may._10_1458,60.0599283861,Experimento Piloto1,001,117,
2.5,Stim\\02_078.jpg,Al78_15,Alegría,15,Ángel envía una carta a la abuela.,Afirmación,Al78,78,,,,,,,,,0,7,7,7,,,,,,,,,1,0.718290978478,3,0.333687951491,,,,,2018_may._10_1458,60.0599283861,Experimento Piloto1,001,117,
0.25,Stim\\02_075.jpg,Al75_14,Alegría,14,Elizabeth elige la ropa un día antes.,Afirmación,Al75,75,,,,,,,,,0,8,8,8,,,,,,,,,1,0.766866377379,2,0.383807367371,,,,,2018_may._10_1458,60.0599283861,Experimento Piloto1,001,117,
2.5,Stim\\02_075.jpg,Al75_2,Alegría,2,Jonathan pasea al perro.,Afirmación,Al75,75,,,,,,,,,0,9,9,9,,,,,,,,,1,0.674466778645,4,1.16689172425,,,,,2018_may._10_1458,60.0599283861,Experimento Piloto1,001,117,
0.25,Stim\\05_075.jpg,En75_12,Enojo,12,Ana compra el libro.,Afirmación,En75,75,,,,,,,,,0,10,10,10,,,,,,,,,1,1.37632468624,4,0.700209914909,,,,,2018_may._10_1458,60.0599283861,Experimento Piloto1,001,117,
2.5,Stim\\03_078.jpg,Tr78_8,Tristeza,8,Estefanía despierta a las 7 a.m.,Afirmación,Tr78,78,,,,,,,,,0,11,11,11,,,,,,,,,1,1.01978885345,4,0.766568283928,,,,,2018_may._10_1458,60.0599283861,Experimento Piloto1,001,117,
0.25,Stim\\03_078.jpg,Tr78_15,Tristeza,15,Ángel envía una carta a la abuela.,Afirmación,Tr78,78,,,,,,,,,0,12,12,12,,,,,,,,,1,0.901364089913,4,0.450300949437,,,,,2018_may._10_1458,60.0599283861,Experimento Piloto1,001,117,
0.25,Stim\\03_078.jpg,Tr78_5,Tristeza,5,Emilio revisa el formato del archivo.,Afirmación,Tr78,78,,,,,,,,,0,13,13,13,,,,,,,,,1,1.58255805236,4,0.383833249736,,,,,2018_may._10_1458,60.0599283861,Experimento Piloto1,001,117,
2.5,Stim\\02_019.jpg,Al19_5,Alegría,5,Emilio revisa el formato del archivo.,Afirmación,Al19,19,,,,,,,,,0,14,14,14,,,,,,,,,1,2.53306293699,3,0.433710799372,,,,,2018_may._10_1458,60.0599283861,Experimento Piloto1,001,117,
2.5,Stim\\03_075.jpg,Tr75_10,Tristeza,10,Laura finaliza la obra.,Afirmación,Tr75,75,,,,,,,,,0,15,15,15,,,,,,,,,1,0.674659111396,4,0.400260073149,,,,,2018_may._10_1458,60.0599283861,Experimento Piloto1,001,117,
2.5,Stim\\03_075.jpg,Tr75_4,Tristeza,4,Jorge sustituye a Gustavo cada sábado.,Afirmación,Tr75,75,,,,,,,,,0,16,16,16,,,,,,,,,1,1.16517143943,4,0.400366280097,,,,,2018_may._10_1458,60.0599283861,Experimento Piloto1,001,117,
0.25,Stim\\03_028.jpg,Tr28_5,Tristeza,5,Emilio revisa el formato del archivo.,Afirmación,Tr28,28,,,,,,,,,0,17,17,17,,,,,,,,,1,2.02894362464,4,0.750181176559,,,,,2018_may._10_1458,60.0599283861,Experimento Piloto1,001,117,
0.25,Stim\\05_075.jpg,En75_11,Enojo,11,María asiste a la cena.,Afirmación,En75,75,,,,,,,,,0,18,18,18,,,,,,,,,1,0.875301886557,2,0.500409655372,,,,,2018_may._10_1458,60.0599283861,Experimento Piloto1,001,117,
0.25,Stim\\02_075.jpg,Al75_6,Alegría,6,Eduardo camina hacia la biblioteca.,Afirmación,Al75,75,,,,,,,,,0,19,19,19,,,,,,,,,1,1.16694750521,3,0.383798442417,,,,,2018_may._10_1458,60.0599283861,Experimento Piloto1,001,117,
0.25,Stim\\05_078.jpg,En78_1,Enojo,1,Juan colecciona monedas antiguas.,Afirmación,En78,78,,,,,,,,,0,20,20,20,,,,,,,,,1,1.11876034179,4,0.650556827857,,,,,2018_may._10_1458,60.0599283861,Experimento Piloto1,001,117,
2.5,Stim\\03_019.jpg,Tr19_4,Tristeza,4,Jorge sustituye a Gustavo cada sábado.,Afirmación,Tr19,19,,,,,,,,,0,21,21,21,,,,,,,,,1,0.765894003681,2,0.550321119832,,,,,2018_may._10_1458,60.0599283861,Experimento Piloto1,001,117,
0.25,Stim\\03_028.jpg,Tr28_11,Tristeza,11,María asiste a la cena.,Afirmación,Tr28,28,,,,,,,,,0,22,22,22,,,,,,,,,1,1.32536632472,4,0.400307821651,,,,,2018_may._10_1458,60.0599283861,Experimento Piloto1,001,117,
0.25,Stim\\02_019.jpg,Al19_7,Alegría,7,Roberto contesta los cuestionarios solicitados.,Afirmación,Al19,19,,,,,,,,,0,23,23,23,,,,,,,,,1,1.92667302718,3,0.500190994008,,,,,2018_may._10_1458,60.0599283861,Experimento Piloto1,001,117,
0.25,Stim\\05_028.jpg,En28_1,Enojo,1,Juan colecciona monedas antiguas.,Afirmación,En28,28,,,,,,,,,0,24,24,24,,,,,,,,,1,0.91716839781,2,0.6502502557,,,,,2018_may._10_1458,60.0599283861,Experimento Piloto1,001,117,
0.25,Stim\\03_019.jpg,Tr19_6,Tristeza,6,Eduardo camina hacia la biblioteca.,Afirmación,Tr19,19,,,,,,,,,0,25,25,25,,,,,,,,,1,1.00143424005,2,0.300239902754,,,,,2018_may._10_1458,60.0599283861,Experimento Piloto1,001,117,
0.25,Stim\\03_078.jpg,Tr78_7,Tristeza,7,Roberto contesta los cuestionarios solicitados.,Afirmación,Tr78,78,,,,,,,,,0,26,26,26,,,,,,,,,1,1.36038114907,4,0.816634596333,,,,,2018_may._10_1458,60.0599283861,Experimento Piloto1,001,117,
2.5,Stim\\03_019.jpg,Tr19_15,Tristeza,15,Ángel envía una carta a la abuela.,Afirmación,Tr19,19,,,,,,,,,0,27,27,27,,,,,,,,,1,1.21814416299,2,1.51668118459,,,,,2018_may._10_1458,60.0599283861,Experimento Piloto1,001,117,
2.5,Stim\\02_028.jpg,Al28_4,Alegría,4,Jorge sustituye a Gustavo cada sábado.,Afirmación,Al28,28,,,,,,,,,0,28,28,28,,,,,,,,,1,0.866195756363,3,0.450376365295,,,,,2018_may._10_1458,60.0599283861,Experimento Piloto1,001,117,
2.5,Stim\\03_078.jpg,Tr78_5,Tristeza,5,Emilio revisa el formato del archivo.,Afirmación,Tr78,78,,,,,,,,,0,29,29,29,,,,,,,,,1,1.33152543523,4,0.383772113804,,,,,2018_may._10_1458,60.0599283861,Experimento Piloto1,001,117,
2.5,Stim\\03_028.jpg,Tr28_12,Tristeza,12,Ana compra el libro.,Afirmación,Tr28,28,,,,,,,,,0,30,30,30,,,,,,,,,1,0.525900661696,4,0.850262929134,,,,,2018_may._10_1458,60.0599283861,Experimento Piloto1,001,117,
0.25,Stim\\02_028.jpg,Al28_2,Alegría,2,Jonathan pasea al perro.,Afirmación,Al28,28,,,,,,,,,0,31,31,31,,,,,,,,,1,0.924236068594,3,0.550039537545,,,,,2018_may._10_1458,60.0599283861,Experimento Piloto1,001,117,
0.25,Stim\\05_019.jpg,En19_8,Enojo,8,Estefanía despierta a las 7 a.m.,Afirmación,En19,19,,,,,,,,,0,32,32,32,,,,,,,,,1,1.06955439492,2,0.950257217164,,,,,2018_may._10_1458,60.0599283861,Experimento Piloto1,001,117,
0.25,Stim\\03_019.jpg,Tr19_9,Tristeza,9,Marco colabora en la organización del evento.,Afirmación,Tr19,19,,,,,,,,,0,33,33,33,,,,,,,,,1,0.911789774502,2,0.433580495049,,,,,2018_may._10_1458,60.0599283861,Experimento Piloto1,001,117,
2.5,Stim\\02_078.jpg,Al78_10,Alegría,10,Laura finaliza la obra.,Afirmación,Al78,78,,,,,,,,,0,34,34,34,,,,,,,,,1,0.992609692143,3,0.383756048887,,,,,2018_may._10_1458,60.0599283861,Experimento Piloto1,001,117,
2.5,Stim\\02_075.jpg,Al75_15,Alegría,15,Ángel envía una carta a la abuela.,Afirmación,Al75,75,,,,,,,,,0,35,35,35,,,,,,,,,1,0.81795370448,2,0.966794710002,,,,,2018_may._10_1458,60.0599283861,Experimento Piloto1,001,117,
2.5,Stim\\03_028.jpg,Tr28_6,Tristeza,6,Eduardo camina hacia la biblioteca.,Afirmación,Tr28,28,,,,,,,,,0,36,36,36,,,,,,,,,1,0.967234710216,4,1.51662004866,,,,,2018_may._10_1458,60.0599283861,Experimento Piloto1,001,117,
0.25,Stim\\03_075.jpg,Tr75_14,Tristeza,14,Elizabeth elige la ropa un día antes.,Afirmación,Tr75,75,,,,,,,,,0,37,37,37,,,,,,,,,1,0.916607910722,4,0.383781485005,,,,,2018_may._10_1458,60.0599283861,Experimento Piloto1,001,117,
2.5,Stim\\05_075.jpg,En75_13,Enojo,13,Rocío consume alimentos nutritivos.,Afirmación,En75,75,,,,,,,,,0,38,38,38,,,,,,,,,1,1.38258330998,4,0.600204470688,,,,,2018_may._10_1458,60.0599283861,Experimento Piloto1,001,117,
2.5,Stim\\03_075.jpg,Tr75_8,Tristeza,8,Estefanía despierta a las 7 a.m.,Afirmación,Tr75,75,,,,,,,,,0,39,39,39,,,,,,,,,1,0.619264155423,4,0.700251862191,,,,,2018_may._10_1458,60.0599283861,Experimento Piloto1,001,117,
0.25,Stim\\05_075.jpg,En75_7,Enojo,7,Roberto contesta los cuestionarios solicitados.,Afirmación,En75,75,,,,,,,,,0,40,40,40,,,,,,,,,1,1.06017471489,4,0.383615927115,,,,,2018_may._10_1458,60.0599283861,Experimento Piloto1,001,117,
2.5,Stim\\03_019.jpg,Tr19_10,Tristeza,10,Laura finaliza la obra.,Afirmación,Tr19,19,,,,,,,,,0,41,41,41,,,,,,,,,1,2.05791268539,3,1.46683219481,,,,,2018_may._10_1458,60.0599283861,Experimento Piloto1,001,117,
2.5,Stim\\03_019.jpg,Tr19_2,Tristeza,2,Jonathan pasea al perro.,Afirmación,Tr19,19,,,,,,,,,0,42,42,42,,,,,,,,,1,0.674794324443,2,0.333720973819,,,,,2018_may._10_1458,60.0599283861,Experimento Piloto1,001,117,
0.25,Stim\\03_075.jpg,Tr75_15,Tristeza,15,Ángel envía una carta a la abuela.,Afirmación,Tr75,75,,,,,,,,,0,43,43,43,,,,,,,,,1,1.06828928274,2,0.816863075146,,,,,2018_may._10_1458,60.0599283861,Experimento Piloto1,001,117,
0.25,Stim\\05_019.jpg,En19_1,Enojo,1,Juan colecciona monedas antiguas.,Afirmación,En19,19,,,,,,,,,0,44,44,44,,,,,,,,,1,0.652327538658,2,0.550419740569,,,,,2018_may._10_1458,60.0599283861,Experimento Piloto1,001,117,
0.25,Stim\\03_078.jpg,Tr78_2,Tristeza,2,Jonathan pasea al perro.,Afirmación,Tr78,78,,,,,,,,,0,45,45,45,,,,,,,,,1,0.707362819,4,0.600242847989,,,,,2018_may._10_1458,60.0599283861,Experimento Piloto1,001,117,
2.5,Stim\\02_019.jpg,Al19_9,Alegría,9,Marco colabora en la organización del evento.,Afirmación,Al19,19,,,,,,,,,0,46,46,46,,,,,,,,,1,0.711392881814,3,0.38373239776,,,,,2018_may._10_1458,60.0599283861,Experimento Piloto1,001,117,
2.5,Stim\\03_028.jpg,Tr28_11,Tristeza,11,María asiste a la cena.,Afirmación,Tr28,28,,,,,,,,,0,47,47,47,,,,,,,,,1,0.775320985957,4,0.50023874251,,,,,2018_may._10_1458,60.0599283861,Experimento Piloto1,001,117,
2.5,Stim\\05_078.jpg,En78_6,Enojo,6,Eduardo camina hacia la biblioteca.,Afirmación,En78,78,,,,,,,,,0,48,48,48,,,,,,,,,1,1.28421737974,4,0.549981079098,,,,,2018_may._10_1458,60.0599283861,Experimento Piloto1,001,117,
2.5,Stim\\02_028.jpg,Al28_14,Alegría,14,Elizabeth elige la ropa un día antes.,Afirmación,Al28,28,,,,,,,,,0,49,49,49,,,,,,,,,1,1.41540661196,3,0.400351553924,,,,,2018_may._10_1458,60.0599283861,Experimento Piloto1,001,117,
0.25,Stim\\03_019.jpg,Tr19_10,Tristeza,10,Laura finaliza la obra.,Afirmación,Tr19,19,,,,,,,,,0,50,50,50,,,,,,,,,1,1.37491677481,3,0.350312016379,,,,,2018_may._10_1458,60.0599283861,Experimento Piloto1,001,117,
2.5,Stim\\05_019.jpg,En19_2,Enojo,2,Jonathan pasea al perro.,Afirmación,En19,19,,,,,,,,,0,51,51,51,,,,,,,,,1,0.974872685536,4,0.400331919026,,,,,2018_may._10_1458,60.0599283861,Experimento Piloto1,001,117,
0.25,Stim\\05_078.jpg,En78_5,Enojo,5,Emilio revisa el formato del archivo.,Afirmación,En78,78,,,,,,,,,0,52,52,52,,,,,,,,,1,0.999261460087,4,0.350409744621,,,,,2018_may._10_1458,60.0599283861,Experimento Piloto1,001,117,
2.5,Stim\\02_075.jpg,Al75_5,Alegría,5,Emilio revisa el formato del archivo.,Afirmación,Al75,75,,,,,,,,,0,53,53,53,,,,,,,,,1,0.633520430112,4,0.283607805408,,,,,2018_may._10_1458,60.0599283861,Experimento Piloto1,001,117,
0.25,Stim\\05_028.jpg,En28_9,Enojo,9,Marco colabora en la organización del evento.,Afirmación,En28,28,,,,,,,,,0,54,54,54,,,,,,,,,1,0.912034764479,2,0.500103529462,,,,,2018_may._10_1458,60.0599283861,Experimento Piloto1,001,117,
2.5,Stim\\03_019.jpg,Tr19_1,Tristeza,1,Juan colecciona monedas antiguas.,Afirmación,Tr19,19,,,,,,,,,0,55,55,55,,,,,,,,,1,0.602106824555,3,0.350297290206,,,,,2018_may._10_1458,60.0599283861,Experimento Piloto1,001,117,
0.25,Stim\\02_028.jpg,Al28_3,Alegría,3,Andrea diseña la portada del libro.,Afirmación,Al28,28,,,,,,,,,0,56,56,56,,,,,,,,,1,0.850582442474,3,0.350379399779,,,,,2018_may._10_1458,60.0599283861,Experimento Piloto1,001,117,
0.25,Stim\\05_028.jpg,En28_5,Enojo,5,Emilio revisa el formato del archivo.,Afirmación,En28,28,,,,,,,,,0,57,57,57,,,,,,,,,1,0.649808470495,2,0.350307107655,,,,,2018_may._10_1458,60.0599283861,Experimento Piloto1,001,117,
2.5,Stim\\03_078.jpg,Tr78_15,Tristeza,15,Ángel envía una carta a la abuela.,Afirmación,Tr78,78,,,,,,,,,0,58,58,58,,,,,,,,,1,0.652717559132,4,0.55048890896,,,,,2018_may._10_1458,60.0599283861,Experimento Piloto1,001,117,
0.25,Stim\\02_078.jpg,Al78_10,Alegría,10,Laura finaliza la obra.,Afirmación,Al78,78,,,,,,,,,0,59,59,59,,,,,,,,,1,0.608665772981,3,0.400287740505,,,,,2018_may._10_1458,60.0599283861,Experimento Piloto1,001,117,
0.25,Stim\\03_075.jpg,Tr75_7,Tristeza,7,Roberto contesta los cuestionarios solicitados.,Afirmación,Tr75,75,,,,,,,,,0,60,60,60,,,,,,,,,1,0.693746909735,4,0.650362263868,,,,,2018_may._10_1458,60.0599283861,Experimento Piloto1,001,117,
0.25,Stim\\03_075.jpg,Tr75_5,Tristeza,5,Emilio revisa el formato del archivo.,Afirmación,Tr75,75,,,,,,,,,0,61,61,61,,,,,,,,,1,0.566385590127,2,0.533598434206,,,,,2018_may._10_1458,60.0599283861,Experimento Piloto1,001,117,
0.25,Stim\\05_075.jpg,En75_14,Enojo,14,Elizabeth elige la ropa un día antes.,Afirmación,En75,75,,,,,,,,,0,62,62,62,,,,,,,,,1,0.764747593386,4,0.550289436246,,,,,2018_may._10_1458,60.0599283861,Experimento Piloto1,001,117,
0.25,Stim\\05_075.jpg,En75_2,Enojo,2,Jonathan pasea al perro.,Afirmación,En75,75,,,,,,,,,0,63,63,63,,,,,,,,,1,0.407017601794,4,0.483640559987,,,,,2018_may._10_1458,60.0599283861,Experimento Piloto1,001,117,
0.25,Stim\\02_078.jpg,Al78_6,Alegría,6,Eduardo camina hacia la biblioteca.,Afirmación,Al78,78,,,,,,,,,0,64,64,64,,,,,,,,,1,0.716709922942,3,0.550272925082,,,,,2018_may._10_1458,60.0599283861,Experimento Piloto1,001,117,
0.25,Stim\\03_075.jpg,Tr75_4,Tristeza,4,Jorge sustituye a Gustavo cada sábado.,Afirmación,Tr75,75,,,,,,,,,0,65,65,65,,,,,,,,,1,0.6997016388,4,0.400345752704,,,,,2018_may._10_1458,60.0599283861,Experimento Piloto1,001,117,
0.25,Stim\\03_075.jpg,Tr75_3,Tristeza,3,Andrea diseña la portada del libro.,Afirmación,Tr75,75,,,,,,,,,0,66,66,66,,,,,,,,,1,0.950650361371,2,0.500365476851,,,,,2018_may._10_1458,60.0599283861,Experimento Piloto1,001,117,
0.25,Stim\\02_028.jpg,Al28_10,Alegría,10,Laura finaliza la obra.,Afirmación,Al28,28,,,,,,,,,0,67,67,67,,,,,,,,,1,0.60873717261,3,0.601035383871,,,,,2018_may._10_1458,60.0599283861,Experimento Piloto1,001,117,
0.25,Stim\\03_028.jpg,Tr28_12,Tristeza,12,Ana compra el libro.,Afirmación,Tr28,28,,,,,,,,,0,68,68,68,,,,,,,,,1,1.07680190351,4,0.917296024647,,,,,2018_may._10_1458,60.0599283861,Experimento Piloto1,001,117,
0.25,Stim\\03_075.jpg,Tr75_10,Tristeza,10,Laura finaliza la obra.,Afirmación,Tr75,75,,,,,,,,,0,69,69,69,,,,,,,,,1,0.508453716083,4,0.333783894743,,,,,2018_may._10_1458,60.0599283861,Experimento Piloto1,001,117,
0.25,Stim\\02_028.jpg,Al28_8,Alegría,8,Estefanía despierta a las 7 a.m.,Afirmación,Al28,28,,,,,,,,,0,70,70,70,,,,,,,,,1,0.819958249067,3,0.333741054965,,,,,2018_may._10_1458,60.0599283861,Experimento Piloto1,001,117,
0.25,Stim\\05_078.jpg,En78_14,Enojo,14,Elizabeth elige la ropa un día antes.,Afirmación,En78,78,,,,,,,,,0,71,71,71,,,,,,,,,1,1.16400271676,4,0.400303359174,,,,,2018_may._10_1458,60.0599283861,Experimento Piloto1,001,117,
2.5,Stim\\03_078.jpg,Tr78_9,Tristeza,9,Marco colabora en la organización del evento.,Afirmación,Tr78,78,,,,,,,,,0,72,72,72,,,,,,,,,1,0.811808873903,4,0.800246150221,,,,,2018_may._10_1458,60.0599283861,Experimento Piloto1,001,117,
0.25,Stim\\02_019.jpg,Al19_3,Alegría,3,Andrea diseña la portada del libro.,Afirmación,Al19,19,,,,,,,,,0,73,73,73,,,,,,,,,1,0.451790524198,3,0.350176357084,,,,,2018_may._10_1458,60.0599283861,Experimento Piloto1,001,117,
0.25,Stim\\03_078.jpg,Tr78_6,Tristeza,6,Eduardo camina hacia la biblioteca.,Afirmación,Tr78,78,,,,,,,,,0,74,74,74,,,,,,,,,1,0.600582442474,4,0.650405549893,,,,,2018_may._10_1458,60.0599283861,Experimento Piloto1,001,117,
0.25,Stim\\03_028.jpg,Tr28_8,Tristeza,8,Estefanía despierta a las 7 a.m.,Afirmación,Tr28,28,,,,,,,,,0,75,75,75,,,,,,,,,1,0.503150954881,4,0.50028872225,,,,,2018_may._10_1458,60.0599283861,Experimento Piloto1,001,117,
2.5,Stim\\05_078.jpg,En78_9,Enojo,9,Marco colabora en la organización del evento.,Afirmación,En78,78,,,,,,,,,0,76,76,76,,,,,,,,,1,0.395105912425,2,1.01681595139,,,,,2018_may._10_1458,60.0599283861,Experimento Piloto1,001,117,
2.5,Stim\\02_028.jpg,Al28_6,Alegría,6,Eduardo camina hacia la biblioteca.,Afirmación,Al28,28,,,,,,,,,0,77,77,77,,,,,,,,,1,1.88440801675,3,0.350256235419,,,,,2018_may._10_1458,60.0599283861,Experimento Piloto1,001,117,
2.5,Stim\\03_078.jpg,Tr78_6,Tristeza,6,Eduardo camina hacia la biblioteca.,Afirmación,Tr78,78,,,,,,,,,0,78,78,78,,,,,,,,,1,1.03348374855,4,0.600295505215,,,,,2018_may._10_1458,60.0599283861,Experimento Piloto1,001,117,
2.5,Stim\\02_078.jpg,Al78_2,Alegría,2,Jonathan pasea al perro.,Afirmación,Al78,78,,,,,,,,,0,79,79,79,,,,,,,,,1,0.724541123509,3,0.700309428143,,,,,2018_may._10_1458,60.0599283861,Experimento Piloto1,001,117,
2.5,Stim\\02_028.jpg,Al28_10,Alegría,10,Laura finaliza la obra.,Afirmación,Al28,28,,,,,,,,,0,80,80,80,,,,,,,,,1,0.974842786942,3,0.333775416037,,,,,2018_may._10_1458,60.0599283861,Experimento Piloto1,001,117,
2.5,Stim\\02_019.jpg,Al19_15,Alegría,15,Ángel envía una carta a la abuela.,Afirmación,Al19,19,,,,,,,,,0,81,81,81,,,,,,,,,1,1.33550373331,3,0.400299789193,,,,,2018_may._10_1458,60.0599283861,Experimento Piloto1,001,117,
0.25,Stim\\03_019.jpg,Tr19_5,Tristeza,5,Emilio revisa el formato del archivo.,Afirmación,Tr19,19,,,,,,,,,0,82,82,82,,,,,,,,,1,0.850946580583,2,0.400339058988,,,,,2018_may._10_1458,60.0599283861,Experimento Piloto1,001,117,
0.25,Stim\\02_075.jpg,Al75_12,Alegría,12,Ana compra el libro.,Afirmación,Al75,75,,,,,,,,,0,83,83,83,,,,,,,,,1,0.660505027426,3,0.300339862234,,,,,2018_may._10_1458,60.0599283861,Experimento Piloto1,001,117,
2.5,Stim\\05_078.jpg,En78_3,Enojo,3,Andrea diseña la portada del libro.,Afirmación,En78,78,,,,,,,,,0,84,84,84,,,,,,,,,1,1.06794701077,4,0.400302466679,,,,,2018_may._10_1458,60.0599283861,Experimento Piloto1,001,117,
2.5,Stim\\03_075.jpg,Tr75_5,Tristeza,5,Emilio revisa el formato del archivo.,Afirmación,Tr75,75,,,,,,,,,0,85,85,85,,,,,,,,,1,0.599810880232,4,0.300330491033,,,,,2018_may._10_1458,60.0599283861,Experimento Piloto1,001,117,
2.5,Stim\\05_028.jpg,En28_2,Enojo,2,Jonathan pasea al perro.,Afirmación,En28,28,,,,,,,,,0,86,86,86,,,,,,,,,1,0.507794162009,2,0.35031960259,,,,,2018_may._10_1458,60.0599283861,Experimento Piloto1,001,117,
0.25,Stim\\03_028.jpg,Tr28_9,Tristeza,9,Marco colabora en la organización del evento.,Afirmación,Tr28,28,,,,,,,,,0,87,87,87,,,,,,,,,1,2.02833092657,4,0.600170555864,,,,,2018_may._10_1458,60.0599283861,Experimento Piloto1,001,117,
0.25,Stim\\03_078.jpg,Tr78_9,Tristeza,9,Marco colabora en la organización del evento.,Afirmación,Tr78,78,,,,,,,,,0,88,88,88,,,,,,,,,1,0.816901452447,4,0.300321566079,,,,,2018_may._10_1458,60.0599283861,Experimento Piloto1,001,117,
2.5,Stim\\03_075.jpg,Tr75_12,Tristeza,12,Ana compra el libro.,Afirmación,Tr75,75,,,,,,,,,0,89,89,89,,,,,,,,,1,0.776950682491,4,0.383766758832,,,,,2018_may._10_1458,60.0599283861,Experimento Piloto1,001,117,
2.5,Stim\\05_078.jpg,En78_11,Enojo,11,María asiste a la cena.,Afirmación,En78,78,,,,,,,,,0,90,90,90,,,,,,,,,1,0.725443882569,4,0.700200543708,,,,,2018_may._10_1458,60.0599283861,Experimento Piloto1,001,117,
2.5,Stim\\02_075.jpg,Al75_14,Alegría,14,Elizabeth elige la ropa un día antes.,Afirmación,Al75,75,,,,,,,,,0,91,91,91,,,,,,,,,1,0.965011950513,2,0.700385736496,,,,,2018_may._10_1458,60.0599283861,Experimento Piloto1,001,117,
0.25,Stim\\03_019.jpg,Tr19_7,Tristeza,7,Roberto contesta los cuestionarios solicitados.,Afirmación,Tr19,19,,,,,,,,,0,92,92,92,,,,,,,,,1,0.861369141437,2,0.450367440341,,,,,2018_may._10_1458,60.0599283861,Experimento Piloto1,001,117,
0.25,Stim\\05_075.jpg,En75_5,Enojo,5,Emilio revisa el formato del archivo.,Afirmación,En75,75,,,,,,,,,0,93,93,93,,,,,,,,,1,0.648957922414,2,0.450283545777,,,,,2018_may._10_1458,60.0599283861,Experimento Piloto1,001,117,
2.5,Stim\\05_019.jpg,En19_14,Enojo,14,Elizabeth elige la ropa un día antes.,Afirmación,En19,19,,,,,,,,,0,94,94,94,,,,,,,,,1,0.650818328999,2,1.11679372826,,,,,2018_may._10_1458,60.0599283861,Experimento Piloto1,001,117,
0.25,Stim\\02_075.jpg,Al75_2,Alegría,2,Jonathan pasea al perro.,Afirmación,Al75,75,,,,,,,,,0,95,95,95,,,,,,,,,1,0.724479095081,3,0.433773274048,,,,,2018_may._10_1458,60.0599283861,Experimento Piloto1,001,117,
2.5,Stim\\03_028.jpg,Tr28_10,Tristeza,10,Laura finaliza la obra.,Afirmación,Tr28,28,,,,,,,,,0,96,96,96,,,,,,,,,1,0.575148109606,4,0.60025802041,,,,,2018_may._10_1458,60.0599283861,Experimento Piloto1,001,117,
2.5,Stim\\02_078.jpg,Al78_3,Alegría,3,Andrea diseña la portada del libro.,Afirmación,Al78,78,,,,,,,,,0,97,97,97,,,,,,,,,1,0.818359789871,3,0.333786125981,,,,,2018_may._10_1458,60.0599283861,Experimento Piloto1,001,117,
2.5,Stim\\05_075.jpg,En75_3,Enojo,3,Andrea diseña la portada del libro.,Afirmación,En75,75,,,,,,,,,0,98,98,98,,,,,,,,,1,1.2500673834,4,0.433836641219,,,,,2018_may._10_1458,60.0599283861,Experimento Piloto1,001,117,
2.5,Stim\\03_075.jpg,Tr75_3,Tristeza,3,Andrea diseña la portada del libro.,Afirmación,Tr75,75,,,,,,,,,0,99,99,99,,,,,,,,,1,0.633586921016,4,0.55021178915,,,,,2018_may._10_1458,60.0599283861,Experimento Piloto1,001,117,
2.5,Stim\\03_075.jpg,Tr75_7,Tristeza,7,Roberto contesta los cuestionarios solicitados.,Afirmación,Tr75,75,,,,,,,,,0,100,100,100,,,,,,,,,1,1.11044139251,4,0.350309338893,,,,,2018_may._10_1458,60.0599283861,Experimento Piloto1,001,117,
2.5,Stim\\03_019.jpg,Tr19_14,Tristeza,14,Elizabeth elige la ropa un día antes.,Afirmación,Tr19,19,,,,,,,,,0,101,101,101,,,,,,,,,1,1.11712886027,2,1.01682309135,,,,,2018_may._10_1458,60.0599283861,Experimento Piloto1,001,117,
2.5,Stim\\05_078.jpg,En78_5,Enojo,5,Emilio revisa el formato del archivo.,Afirmación,En78,78,,,,,,,,,0,102,102,102,,,,,,,,,1,0.699621760465,2,0.450238474761,,,,,2018_may._10_1458,60.0599283861,Experimento Piloto1,001,117,
2.5,Stim\\02_078.jpg,Al78_12,Alegría,12,Ana compra el libro.,Afirmación,Al78,78,,,,,,,,,0,103,103,103,,,,,,,,,1,0.676755136757,3,0.333757119882,,,,,2018_may._10_1458,60.0599283861,Experimento Piloto1,001,117,
2.5,Stim\\02_028.jpg,Al28_13,Alegría,13,Rocío consume alimentos nutritivos.,Afirmación,Al28,28,,,,,,,,,0,104,104,104,,,,,,,,,1,0.567369566265,3,0.284029509467,,,,,2018_may._10_1458,60.0599283861,Experimento Piloto1,001,117,
2.5,Stim\\05_028.jpg,En28_4,Enojo,4,Jorge sustituye a Gustavo cada sábado.,Afirmación,En28,28,,,,,,,,,0,105,105,105,,,,,,,,,1,2.1494715535,2,1.51706228011,,,,,2018_may._10_1458,60.0599283861,Experimento Piloto1,001,117,
0.25,Stim\\02_028.jpg,Al28_7,Alegría,7,Roberto contesta los cuestionarios solicitados.,Afirmación,Al28,28,,,,,,,,,0,106,106,106,,,,,,,,,1,0.710913611804,3,0.399936989827,,,,,2018_may._10_1458,60.0599283861,Experimento Piloto1,001,117,
0.25,Stim\\02_078.jpg,Al78_12,Alegría,12,Ana compra el libro.,Afirmación,Al78,78,,,,,,,,,0,107,107,107,,,,,,,,,1,0.709165213387,3,0.450280422043,,,,,2018_may._10_1458,60.0599283861,Experimento Piloto1,001,117,
2.5,Stim\\02_028.jpg,Al28_7,Alegría,7,Roberto contesta los cuestionarios solicitados.,Afirmación,Al28,28,,,,,,,,,0,108,108,108,,,,,,,,,1,1.11045701118,3,0.350044714018,,,,,2018_may._10_1458,60.0599283861,Experimento Piloto1,001,117,
0.25,Stim\\02_075.jpg,Al75_7,Alegría,7,Roberto contesta los cuestionarios solicitados.,Afirmación,Al75,75,,,,,,,,,0,109,109,109,,,,,,,,,1,0.766855221187,3,0.400343075218,,,,,2018_may._10_1458,60.0599283861,Experimento Piloto1,001,117,
0.25,Stim\\05_075.jpg,En75_10,Enojo,10,Laura finaliza la obra.,Afirmación,En75,75,,,,,,,,,0,110,110,110,,,,,,,,,1,0.658564742506,4,0.399956178478,,,,,2018_may._10_1458,60.0599283861,Experimento Piloto1,001,117,
2.5,Stim\\05_028.jpg,En28_8,Enojo,8,Estefanía despierta a las 7 a.m.,Afirmación,En28,28,,,,,,,,,0,111,111,111,,,,,,,,,1,0.75397115812,2,0.500265071123,,,,,2018_may._10_1458,60.0599283861,Experimento Piloto1,001,117,
0.25,Stim\\03_075.jpg,Tr75_6,Tristeza,6,Eduardo camina hacia la biblioteca.,Afirmación,Tr75,75,,,,,,,,,0,112,112,112,,,,,,,,,1,1.06780064153,4,0.650250701948,,,,,2018_may._10_1458,60.0599283861,Experimento Piloto1,001,117,
0.25,Stim\\02_078.jpg,Al78_4,Alegría,4,Jorge sustituye a Gustavo cada sábado.,Afirmación,Al78,78,,,,,,,,,0,113,113,113,,,,,,,,,1,1.41556413739,3,0.350334775011,,,,,2018_may._10_1458,60.0599283861,Experimento Piloto1,001,117,
2.5,Stim\\02_019.jpg,Al19_13,Alegría,13,Rocío consume alimentos nutritivos.,Afirmación,Al19,19,,,,,,,,,0,114,114,114,,,,,,,,,1,1.2340046981,3,0.333641541732,,,,,2018_may._10_1458,60.0599283861,Experimento Piloto1,001,117,
0.25,Stim\\02_078.jpg,Al78_15,Alegría,15,Ángel envía una carta a la abuela.,Afirmación,Al78,78,,,,,,,,,0,115,115,115,,,,,,,,,1,0.71814639423,3,0.333613874376,,,,,2018_may._10_1458,60.0599283861,Experimento Piloto1,001,117,
2.5,Stim\\05_019.jpg,En19_4,Enojo,4,Jorge sustituye a Gustavo cada sábado.,Afirmación,En19,19,,,,,,,,,0,116,116,116,,,,,,,,,1,0.665786814988,2,0.383808706114,,,,,2018_may._10_1458,60.0599283861,Experimento Piloto1,001,117,
2.5,Stim\\05_075.jpg,En75_9,Enojo,9,Marco colabora en la organización del evento.,Afirmación,En75,75,,,,,,,,,0,117,117,117,,,,,,,,,1,0.712320184497,4,1.11678078707,,,,,2018_may._10_1458,60.0599283861,Experimento Piloto1,001,117,
0.25,Stim\\05_078.jpg,En78_8,Enojo,8,Estefanía despierta a las 7 a.m.,Afirmación,En78,78,,,,,,,,,0,118,118,118,,,,,,,,,1,0.653472163962,2,0.700124235355,,,,,2018_may._10_1458,60.0599283861,Experimento Piloto1,001,117,
0.25,Stim\\03_075.jpg,Tr75_12,Tristeza,12,Ana compra el libro.,Afirmación,Tr75,75,,,,,,,,,0,119,119,119,,,,,,,,,1,0.926228564492,2,0.33376515234,,,,,2018_may._10_1458,60.0599283861,Experimento Piloto1,001,117,
2.5,Stim\\03_028.jpg,Tr28_1,Tristeza,1,Juan colecciona monedas antiguas.,Afirmación,Tr28,28,,,,,,,,,,,,,0,0,0,0,,,,,,,,,1,0.802339944344,4,0.333684827757,2018_may._10_1458,60.0599283861,Experimento Piloto1,001,117,
0.25,Stim\\03_019.jpg,Tr19_1,Tristeza,1,Juan colecciona monedas antiguas.,Afirmación,Tr19,19,,,,,,,,,,,,,0,1,1,1,,,,,,,,,1,0.783557379419,2,0.383596292217,2018_may._10_1458,60.0599283861,Experimento Piloto1,001,117,
2.5,Stim\\03_078.jpg,Tr78_10,Tristeza,10,Laura finaliza la obra.,Afirmación,Tr78,78,,,,,,,,,,,,,0,2,2,2,,,,,,,,,1,0.675976434552,4,0.333756673634,2018_may._10_1458,60.0599283861,Experimento Piloto1,001,117,
0.25,Stim\\02_075.jpg,Al75_5,Alegría,5,Emilio revisa el formato del archivo.,Afirmación,Al75,75,,,,,,,,,,,,,0,3,3,3,,,,,,,,,1,0.667172414039,3,0.433833517485,2018_may._10_1458,60.0599283861,Experimento Piloto1,001,117,
0.25,Stim\\02_019.jpg,Al19_15,Alegría,15,Ángel envía una carta a la abuela.,Afirmación,Al19,19,,,,,,,,,,,,,0,4,4,4,,,,,,,,,1,0.667289330932,3,0.383737306485,2018_may._10_1458,60.0599283861,Experimento Piloto1,001,117,
2.5,Stim\\02_075.jpg,Al75_7,Alegría,7,Roberto contesta los cuestionarios solicitados.,Afirmación,Al75,75,,,,,,,,,,,,,0,5,5,5,,,,,,,,,1,0.561640192279,3,1.05022428408,2018_may._10_1458,60.0599283861,Experimento Piloto1,001,117,
0.25,Stim\\03_075.jpg,Tr75_8,Tristeza,8,Estefanía despierta a las 7 a.m.,Afirmación,Tr75,75,,,,,,,,,,,,,0,6,6,6,,,,,,,,,1,0.869181599602,4,0.550412154359,2018_may._10_1458,60.0599283861,Experimento Piloto1,001,117,
0.25,Stim\\02_019.jpg,Al19_11,Alegría,11,María asiste a la cena.,Afirmación,Al19,19,,,,,,,,,,,,,0,7,7,7,,,,,,,,,1,0.975370697949,3,0.650230620802,2018_may._10_1458,60.0599283861,Experimento Piloto1,001,117,
2.5,Stim\\02_019.jpg,Al19_2,Alegría,2,Jonathan pasea al perro.,Afirmación,Al19,19,,,,,,,,,,,,,0,8,8,8,,,,,,,,,1,0.603722687411,3,0.40031183788,2018_may._10_1458,60.0599283861,Experimento Piloto1,001,117,
2.5,Stim\\05_075.jpg,En75_5,Enojo,5,Emilio revisa el formato del archivo.,Afirmación,En75,75,,,,,,,,,,,,,0,9,9,9,,,,,,,,,1,2.14926717206,4,1.88320270176,2018_may._10_1458,60.0599283861,Experimento Piloto1,001,117,
0.25,Stim\\03_078.jpg,Tr78_10,Tristeza,10,Laura finaliza la obra.,Afirmación,Tr78,78,,,,,,,,,,,,,0,10,10,10,,,,,,,,,1,0.808941732548,4,0.400192243501,2018_may._10_1458,60.0599283861,Experimento Piloto1,001,117,
0.25,Stim\\02_019.jpg,Al19_6,Alegría,6,Eduardo camina hacia la biblioteca.,Afirmación,Al19,19,,,,,,,,,,,,,0,11,11,11,,,,,,,,,1,0.600440981959,3,0.400430539763,2018_may._10_1458,60.0599283861,Experimento Piloto1,001,117,
2.5,Stim\\05_019.jpg,En19_3,Enojo,3,Andrea diseña la portada del libro.,Afirmación,En19,19,,,,,,,,,,,,,0,12,12,12,,,,,,,,,1,1.01453160951,2,0.800193492995,2018_may._10_1458,60.0599283861,Experimento Piloto1,001,117,
0.25,Stim\\05_019.jpg,En19_3,Enojo,3,Andrea diseña la portada del libro.,Afirmación,En19,19,,,,,,,,,,,,,0,13,13,13,,,,,,,,,1,0.783469022379,2,0.533634580268,2018_may._10_1458,60.0599283861,Experimento Piloto1,001,117,
2.5,Stim\\02_028.jpg,Al28_1,Alegría,1,Juan colecciona monedas antiguas.,Afirmación,Al28,28,,,,,,,,,,,,,0,14,14,14,,,,,,,,,1,0.768934289136,3,0.350255342924,2018_may._10_1458,60.0599283861,Experimento Piloto1,001,117,
0.25,Stim\\02_019.jpg,Al19_2,Alegría,2,Jonathan pasea al perro.,Afirmación,Al19,19,,,,,,,,,,,,,0,15,15,15,,,,,,,,,1,0.557963557629,3,0.450354945406,2018_may._10_1458,60.0599283861,Experimento Piloto1,001,117,
0.25,Stim\\05_028.jpg,En28_11,Enojo,11,María asiste a la cena.,Afirmación,En28,28,,,,,,,,,,,,,0,16,16,16,,,,,,,,,1,0.807658324215,2,0.350390555971,2018_may._10_1458,60.0599283861,Experimento Piloto1,001,117,
0.25,Stim\\03_028.jpg,Tr28_1,Tristeza,1,Juan colecciona monedas antiguas.,Afirmación,Tr28,28,,,,,,,,,,,,,0,17,17,17,,,,,,,,,1,1.26772317293,4,0.450394215202,2018_may._10_1458,60.0599283861,Experimento Piloto1,001,117,
0.25,Stim\\03_078.jpg,Tr78_1,Tristeza,1,Juan colecciona monedas antiguas.,Afirmación,Tr78,78,,,,,,,,,,,,,0,18,18,18,,,,,,,,,1,0.916880121808,4,0.550519253803,2018_may._10_1458,60.0599283861,Experimento Piloto1,001,117,
0.25,Stim\\02_019.jpg,Al19_1,Alegría,1,Juan colecciona monedas antiguas.,Afirmación,Al19,19,,,,,,,,,,,,,0,19,19,19,,,,,,,,,1,0.566976422057,3,0.800507205115,2018_may._10_1458,60.0599283861,Experimento Piloto1,001,117,
0.25,Stim\\02_019.jpg,Al19_10,Alegría,10,Laura finaliza la obra.,Afirmación,Al19,19,,,,,,,,,,,,,0,20,20,20,,,,,,,,,1,0.975184612666,3,0.350274977822,2018_may._10_1458,60.0599283861,Experimento Piloto1,001,117,
2.5,Stim\\03_019.jpg,Tr19_13,Tristeza,13,Rocío consume alimentos nutritivos.,Afirmación,Tr19,19,,,,,,,,,,,,,0,21,21,21,,,,,,,,,1,0.767754410266,2,0.333690628977,2018_may._10_1458,60.0599283861,Experimento Piloto1,001,117,
2.5,Stim\\05_075.jpg,En75_6,Enojo,6,Eduardo camina hacia la biblioteca.,Afirmación,En75,75,,,,,,,,,,,,,0,22,22,22,,,,,,,,,1,0.56856015508,4,0.43375363915,2018_may._10_1458,60.0599283861,Experimento Piloto1,001,117,
0.25,Stim\\05_078.jpg,En78_10,Enojo,10,Laura finaliza la obra.,Afirmación,En78,78,,,,,,,,,,,,,0,23,23,23,,,,,,,,,1,1.6420883856,4,0.400260519397,2018_may._10_1458,60.0599283861,Experimento Piloto1,001,117,
2.5,Stim\\05_075.jpg,En75_14,Enojo,14,Elizabeth elige la ropa un día antes.,Afirmación,En75,75,,,,,,,,,,,,,0,24,24,24,,,,,,,,,1,0.665924259273,4,0.383677955543,2018_may._10_1458,60.0599283861,Experimento Piloto1,001,117,
0.25,Stim\\05_019.jpg,En19_7,Enojo,7,Roberto contesta los cuestionarios solicitados.,Afirmación,En19,19,,,,,,,,,,,,,0,25,25,25,,,,,,,,,1,0.64361499892,2,0.866835229291,2018_may._10_1458,60.0599283861,Experimento Piloto1,001,117,
0.25,Stim\\02_078.jpg,Al78_14,Alegría,14,Elizabeth elige la ropa un día antes.,Afirmación,Al78,78,,,,,,,,,,,,,0,26,26,26,,,,,,,,,1,0.449824356912,3,0.600221874347,2018_may._10_1458,60.0599283861,Experimento Piloto1,001,117,
0.25,Stim\\03_028.jpg,Tr28_13,Tristeza,13,Rocío consume alimentos nutritivos.,Afirmación,Tr28,28,,,,,,,,,,,,,0,27,27,27,,,,,,,,,1,0.700392876459,4,0.700287115759,2018_may._10_1458,60.0599283861,Experimento Piloto1,001,117,
2.5,Stim\\03_019.jpg,Tr19_8,Tristeza,8,Estefanía despierta a las 7 a.m.,Afirmación,Tr19,19,,,,,,,,,,,,,0,28,28,28,,,,,,,,,1,0.620323101171,2,0.383813168591,2018_may._10_1458,60.0599283861,Experimento Piloto1,001,117,
2.5,Stim\\02_019.jpg,Al19_8,Alegría,8,Estefanía despierta a las 7 a.m.,Afirmación,Al19,19,,,,,,,,,,,,,0,29,29,29,,,,,,,,,1,1.1001353023,3,0.433763902847,2018_may._10_1458,60.0599283861,Experimento Piloto1,001,117,
2.5,Stim\\02_028.jpg,Al28_9,Alegría,9,Marco colabora en la organización del evento.,Afirmación,Al28,28,,,,,,,,,,,,,0,30,30,30,,,,,,,,,1,1.47807897513,2,0.50028113604,2018_may._10_1458,60.0599283861,Experimento Piloto1,001,117,
2.5,Stim\\03_075.jpg,Tr75_1,Tristeza,1,Juan colecciona monedas antiguas.,Afirmación,Tr75,75,,,,,,,,,,,,,0,31,31,31,,,,,,,,,1,0.718305704652,4,1.05020152545,2018_may._10_1458,60.0599283861,Experimento Piloto1,001,117,
2.5,Stim\\05_078.jpg,En78_8,Enojo,8,Estefanía despierta a las 7 a.m.,Afirmación,En78,78,,,,,,,,,,,,,0,32,32,32,,,,,,,,,1,0.720601648974,4,0.350376276045,2018_may._10_1458,60.0599283861,Experimento Piloto1,001,117,
0.25,Stim\\02_028.jpg,Al28_12,Alegría,12,Ana compra el libro.,Afirmación,Al28,28,,,,,,,,,,,,,0,33,33,33,,,,,,,,,1,0.706640790251,3,0.400353338914,2018_may._10_1458,60.0599283861,Experimento Piloto1,001,117,
0.25,Stim\\05_075.jpg,En75_1,Enojo,1,Juan colecciona monedas antiguas.,Afirmación,En75,75,,,,,,,,,,,,,0,34,34,34,,,,,,,,,1,0.852160374277,4,0.350353517413,2018_may._10_1458,60.0599283861,Experimento Piloto1,001,117,
0.25,Stim\\03_028.jpg,Tr28_4,Tristeza,4,Jorge sustituye a Gustavo cada sábado.,Afirmación,Tr28,28,,,,,,,,,,,,,0,35,35,35,,,,,,,,,1,0.548964526879,4,0.900187781024,2018_may._10_1458,60.0599283861,Experimento Piloto1,001,117,
2.5,Stim\\03_078.jpg,Tr78_3,Tristeza,3,Andrea diseña la portada del libro.,Afirmación,Tr78,78,,,,,,,,,,,,,0,36,36,36,,,,,,,,,1,0.417727992403,4,0.383841728442,2018_may._10_1458,60.0599283861,Experimento Piloto1,001,117,
0.25,Stim\\05_078.jpg,En78_4,Enojo,4,Jorge sustituye a Gustavo cada sábado.,Afirmación,En78,78,,,,,,,,,,,,,0,37,37,37,,,,,,,,,1,1.88229458773,3,0.400482304495,2018_may._10_1458,60.0599283861,Experimento Piloto1,001,117,
2.5,Stim\\03_019.jpg,Tr19_7,Tristeza,7,Roberto contesta los cuestionarios solicitados.,Afirmación,Tr19,19,,,,,,,,,,,,,0,38,38,38,,,,,,,,,1,0.661042309635,2,0.483807010372,2018_may._10_1458,60.0599283861,Experimento Piloto1,001,117,
0.25,Stim\\02_078.jpg,Al78_2,Alegría,2,Jonathan pasea al perro.,Afirmación,Al78,78,,,,,,,,,,,,,0,39,39,39,,,,,,,,,1,0.625003793105,3,0.383781038757,2018_may._10_1458,60.0599283861,Experimento Piloto1,001,117,
0.25,Stim\\02_078.jpg,Al78_5,Alegría,5,Emilio revisa el formato del archivo.,Afirmación,Al78,78,,,,,,,,,,,,,0,40,40,40,,,,,,,,,1,0.866881192802,3,0.350011245442,2018_may._10_1458,60.0599283861,Experimento Piloto1,001,117,
2.5,Stim\\05_019.jpg,En19_11,Enojo,11,María asiste a la cena.,Afirmación,En19,19,,,,,,,,,,,,,0,41,41,41,,,,,,,,,1,0.709126836086,2,0.916806937188,2018_may._10_1458,60.0599283861,Experimento Piloto1,001,117,
2.5,Stim\\02_028.jpg,Al28_15,Alegría,15,Ángel envía una carta a la abuela.,Afirmación,Al28,28,,,,,,,,,,,,,0,42,42,42,,,,,,,,,1,1.01897266644,3,0.8502214281,2018_may._10_1458,60.0599283861,Experimento Piloto1,001,117,
0.25,Stim\\03_019.jpg,Tr19_4,Tristeza,4,Jorge sustituye a Gustavo cada sábado.,Afirmación,Tr19,19,,,,,,,,,,,,,0,43,43,43,,,,,,,,,1,0.816308835526,4,0.433653679669,2018_may._10_1458,60.0599283861,Experimento Piloto1,001,117,
2.5,Stim\\02_075.jpg,Al75_12,Alegría,12,Ana compra el libro.,Afirmación,Al75,75,,,,,,,,,,,,,0,44,44,44,,,,,,,,,1,0.576477035202,3,0.800381809516,2018_may._10_1458,60.0599283861,Experimento Piloto1,001,117,
2.5,Stim\\05_028.jpg,En28_12,Enojo,12,Ana compra el libro.,Afirmación,En28,28,,,,,,,,,,,,,0,45,45,45,,,,,,,,,1,0.833521947354,2,0.550401890662,2018_may._10_1458,60.0599283861,Experimento Piloto1,001,117,
0.25,Stim\\02_028.jpg,Al28_14,Alegría,14,Elizabeth elige la ropa un día antes.,Afirmación,Al28,28,,,,,,,,,,,,,0,46,46,46,,,,,,,,,1,1.73248745598,3,0.450022937131,2018_may._10_1458,60.0599283861,Experimento Piloto1,001,117,
2.5,Stim\\03_075.jpg,Tr75_6,Tristeza,6,Eduardo camina hacia la biblioteca.,Afirmación,Tr75,75,,,,,,,,,,,,,0,47,47,47,,,,,,,,,1,2.2507019476,4,0.483754799394,2018_may._10_1458,60.0599283861,Experimento Piloto1,001,117,
0.25,Stim\\05_028.jpg,En28_8,Enojo,8,Estefanía despierta a las 7 a.m.,Afirmación,En28,28,,,,,,,,,,,,,0,48,48,48,,,,,,,,,1,0.620430200615,2,0.650345306456,2018_may._10_1458,60.0599283861,Experimento Piloto1,001,117,
2.5,Stim\\05_019.jpg,En19_7,Enojo,7,Roberto contesta los cuestionarios solicitados.,Afirmación,En19,19,,,,,,,,,,,,,0,49,49,49,,,,,,,,,1,0.69067940317,4,0.450349590434,2018_may._10_1458,60.0599283861,Experimento Piloto1,001,117,
2.5,Stim\\02_019.jpg,Al19_10,Alegría,10,Laura finaliza la obra.,Afirmación,Al19,19,,,,,,,,,,,,,0,50,50,50,,,,,,,,,1,0.408551801323,3,0.400266766864,2018_may._10_1458,60.0599283861,Experimento Piloto1,001,117,
0.25,Stim\\05_028.jpg,En28_14,Enojo,14,Elizabeth elige la ropa un día antes.,Afirmación,En28,28,,,,,,,,,,,,,0,51,51,51,,,,,,,,,1,0.599169176066,2,0.600382523513,2018_may._10_1458,60.0599283861,Experimento Piloto1,001,117,
2.5,Stim\\03_028.jpg,Tr28_8,Tristeza,8,Estefanía despierta a las 7 a.m.,Afirmación,Tr28,28,,,,,,,,,,,,,0,52,52,52,,,,,,,,,1,1.73648405022,4,0.350382969761,2018_may._10_1458,60.0599283861,Experimento Piloto1,001,117,
0.25,Stim\\02_075.jpg,Al75_3,Alegría,3,Andrea diseña la portada del libro.,Afirmación,Al75,75,,,,,,,,,,,,,0,53,53,53,,,,,,,,,1,3.01731619504,3,0.383631545784,2018_may._10_1458,60.0599283861,Experimento Piloto1,001,117,
0.25,Stim\\02_028.jpg,Al28_1,Alegría,1,Juan colecciona monedas antiguas.,Afirmación,Al28,28,,,,,,,,,,,,,0,54,54,54,,,,,,,,,1,0.868783100422,3,0.0338367304682,2018_may._10_1458,60.0599283861,Experimento Piloto1,001,117,
0.25,Stim\\03_028.jpg,Tr28_3,Tristeza,3,Andrea diseña la portada del libro.,Afirmación,Tr28,28,,,,,,,,,,,,,0,55,55,55,,,,,,,,,1,2.29988245836,4,0.550308624897,2018_may._10_1458,60.0599283861,Experimento Piloto1,001,117,
2.5,Stim\\02_078.jpg,Al78_11,Alegría,11,María asiste a la cena.,Afirmación,Al78,78,,,,,,,,,,,,,0,56,56,56,,,,,,,,,1,0.925076799226,3,1.26672179313,2018_may._10_1458,60.0599283861,Experimento Piloto1,001,117,
0.25,Stim\\03_019.jpg,Tr19_12,Tristeza,12,Ana compra el libro.,Afirmación,Tr19,19,,,,,,,,,,,,,0,57,57,57,,,,,,,,,1,0.973219784123,2,0.333648681695,2018_may._10_1458,60.0599283861,Experimento Piloto1,001,117,
2.5,Stim\\02_078.jpg,Al78_14,Alegría,14,Elizabeth elige la ropa un día antes.,Afirmación,Al78,78,,,,,,,,,,,,,0,58,58,58,,,,,,,,,1,1.18247737078,3,0.699898434028,2018_may._10_1458,60.0599283861,Experimento Piloto1,001,117,
0.25,Stim\\03_019.jpg,Tr19_2,Tristeza,2,Jonathan pasea al perro.,Afirmación,Tr19,19,,,,,,,,,,,,,0,59,59,59,,,,,,,,,1,0.907836912537,2,0.550258645156,2018_may._10_1458,60.0599283861,Experimento Piloto1,001,117,
2.5,Stim\\03_078.jpg,Tr78_1,Tristeza,1,Juan colecciona monedas antiguas.,Afirmación,Tr78,78,,,,,,,,,,,,,0,60,60,60,,,,,,,,,1,2.00173991971,4,1.51669189454,2018_may._10_1458,60.0599283861,Experimento Piloto1,001,117,
0.25,Stim\\03_078.jpg,Tr78_4,Tristeza,4,Jorge sustituye a Gustavo cada sábado.,Afirmación,Tr78,78,,,,,,,,,,,,,0,61,61,61,,,,,,,,,1,1.73077207989,3,0.0339117000788,2018_may._10_1458,60.0599283861,Experimento Piloto1,001,117,
0.25,Stim\\05_019.jpg,En19_14,Enojo,14,Elizabeth elige la ropa un día antes.,Afirmación,En19,19,,,,,,,,,,,,,0,62,62,62,,,,,,,,,1,3.11634524934,4,0.350345484955,2018_may._10_1458,60.0599283861,Experimento Piloto1,001,117,
0.25,Stim\\02_075.jpg,Al75_15,Alegría,15,Ángel envía una carta a la abuela.,Afirmación,Al75,75,,,,,,,,,,,,,0,63,63,63,,,,,,,,,1,0.901566240113,3,0.400401087416,2018_may._10_1458,60.0599283861,Experimento Piloto1,001,117,
2.5,Stim\\03_028.jpg,Tr28_2,Tristeza,2,Jonathan pasea al perro.,Afirmación,Tr28,28,,,,,,,,,,,,,0,64,64,64,,,,,,,,,1,0.974309074714,4,0.450287562006,2018_may._10_1458,60.0599283861,Experimento Piloto1,001,117,
0.25,Stim\\05_028.jpg,En28_3,Enojo,3,Andrea diseña la portada del libro.,Afirmación,En28,28,,,,,,,,,,,,,0,65,65,65,,,,,,,,,1,0.600858223542,2,0.400427862277,2018_may._10_1458,60.0599283861,Experimento Piloto1,001,117,
0.25,Stim\\05_078.jpg,En78_3,Enojo,3,Andrea diseña la portada del libro.,Afirmación,En78,78,,,,,,,,,,,,,0,66,66,66,,,,,,,,,1,1.84976804046,3,0.750726491226,2018_may._10_1458,60.0599283861,Experimento Piloto1,001,117,
0.25,Stim\\05_075.jpg,En75_9,Enojo,9,Marco colabora en la organización del evento.,Afirmación,En75,75,,,,,,,,,,,,,0,67,67,67,,,,,,,,,1,3.30807824328,4,0.300367529591,2018_may._10_1458,60.0599283861,Experimento Piloto1,001,117,
2.5,Stim\\05_075.jpg,En75_7,Enojo,7,Roberto contesta los cuestionarios solicitados.,Afirmación,En75,75,,,,,,,,,,,,,0,68,68,68,,,,,,,,,1,0.808888629074,4,0.38370740789,2018_may._10_1458,60.0599283861,Experimento Piloto1,001,117,
0.25,Stim\\03_078.jpg,Tr78_14,Tristeza,14,Elizabeth elige la ropa un día antes.,Afirmación,Tr78,78,,,,,,,,,,,,,0,69,69,69,,,,,,,,,1,0.866181476437,4,1.00024008125,2018_may._10_1458,60.0599283861,Experimento Piloto1,001,117,
2.5,Stim\\03_019.jpg,Tr19_5,Tristeza,5,Emilio revisa el formato del archivo.,Afirmación,Tr19,19,,,,,,,,,,,,,0,70,70,70,,,,,,,,,1,0.966409152004,4,0.350324511314,2018_may._10_1458,60.0599283861,Experimento Piloto1,001,117,
2.5,Stim\\05_028.jpg,En28_13,Enojo,13,Rocío consume alimentos nutritivos.,Afirmación,En28,28,,,,,,,,,,,,,0,71,71,71,,,,,,,,,1,0.501100446783,2,0.866812024412,2018_may._10_1458,60.0599283861,Experimento Piloto1,001,117,
0.25,Stim\\05_075.jpg,En75_15,Enojo,15,Ángel envía una carta a la abuela.,Afirmación,En75,75,,,,,,,,,,,,,0,72,72,72,,,,,,,,,1,2.08448584235,4,0.650329687787,2018_may._10_1458,60.0599283861,Experimento Piloto1,001,117,
2.5,Stim\\05_019.jpg,En19_6,Enojo,6,Eduardo camina hacia la biblioteca.,Afirmación,En19,19,,,,,,,,,,,,,0,73,73,73,,,,,,,,,1,0.918373266551,2,0.750286491012,2018_may._10_1458,60.0599283861,Experimento Piloto1,001,117,
2.5,Stim\\05_078.jpg,En78_10,Enojo,10,Laura finaliza la obra.,Afirmación,En78,78,,,,,,,,,,,,,0,74,74,74,,,,,,,,,1,1.29133904649,2,0.350361549872,2018_may._10_1458,60.0599283861,Experimento Piloto1,001,117,
2.5,Stim\\05_019.jpg,En19_9,Enojo,9,Marco colabora en la organización del evento.,Afirmación,En19,19,,,,,,,,,,,,,0,75,75,75,,,,,,,,,1,0.74475658974,4,0.350329420039,2018_may._10_1458,60.0599283861,Experimento Piloto1,001,117,
2.5,Stim\\02_078.jpg,Al78_6,Alegría,6,Eduardo camina hacia la biblioteca.,Afirmación,Al78,78,,,,,,,,,,,,,0,76,76,76,,,,,,,,,1,0.668284463262,3,0.750344949458,2018_may._10_1458,60.0599283861,Experimento Piloto1,001,117,
2.5,Stim\\05_078.jpg,En78_13,Enojo,13,Rocío consume alimentos nutritivos.,Afirmación,En78,78,,,,,,,,,,,,,0,77,77,77,,,,,,,,,1,1.21604322891,4,0.650323886568,2018_may._10_1458,60.0599283861,Experimento Piloto1,001,117,
0.25,Stim\\05_028.jpg,En28_2,Enojo,2,Jonathan pasea al perro.,Afirmación,En28,28,,,,,,,,,,,,,0,78,78,78,,,,,,,,,1,0.824289975314,2,0.333724543801,2018_may._10_1458,60.0599283861,Experimento Piloto1,001,117,
0.25,Stim\\05_019.jpg,En19_6,Enojo,6,Eduardo camina hacia la biblioteca.,Afirmación,En19,19,,,,,,,,,,,,,0,79,79,79,,,,,,,,,1,0.96768809786,2,0.650300681688,2018_may._10_1458,60.0599283861,Experimento Piloto1,001,117,
2.5,Stim\\03_019.jpg,Tr19_11,Tristeza,11,María asiste a la cena.,Afirmación,Tr19,19,,,,,,,,,,,,,0,80,80,80,,,,,,,,,1,0.975194430115,3,0.350421347061,2018_may._10_1458,60.0599283861,Experimento Piloto1,001,117,
2.5,Stim\\05_028.jpg,En28_11,Enojo,11,María asiste a la cena.,Afirmación,En28,28,,,,,,,,,,,,,0,81,81,81,,,,,,,,,1,0.733618247603,2,0.483599951448,2018_may._10_1458,60.0599283861,Experimento Piloto1,001,117,
0.25,Stim\\02_078.jpg,Al78_9,Alegría,9,Marco colabora en la organización del evento.,Afirmación,Al78,78,,,,,,,,,,,,,0,82,82,82,,,,,,,,,1,0.561393417311,3,0.483733379505,2018_may._10_1458,60.0599283861,Experimento Piloto1,001,117,
0.25,Stim\\05_019.jpg,En19_13,Enojo,13,Rocío consume alimentos nutritivos.,Afirmación,En19,19,,,,,,,,,,,,,0,83,83,83,,,,,,,,,1,0.617754945763,2,0.383747123934,2018_may._10_1458,60.0599283861,Experimento Piloto1,001,117,
0.25,Stim\\03_078.jpg,Tr78_11,Tristeza,11,María asiste a la cena.,Afirmación,Tr78,78,,,,,,,,,,,,,0,84,84,84,,,,,,,,,1,0.658409002065,4,0.500390466722,2018_may._10_1458,60.0599283861,Experimento Piloto1,001,117,
2.5,Stim\\05_028.jpg,En28_5,Enojo,5,Emilio revisa el formato del archivo.,Afirmación,En28,28,,,,,,,,,,,,,0,85,85,85,,,,,,,,,1,0.916293306106,2,0.300420186817,2018_may._10_1458,60.0599283861,Experimento Piloto1,001,117,
0.25,Stim\\03_028.jpg,Tr28_10,Tristeza,10,Laura finaliza la obra.,Afirmación,Tr28,28,,,,,,,,,,,,,0,86,86,86,,,,,,,,,1,1.1248409127,4,0.433676884549,2018_may._10_1458,60.0599283861,Experimento Piloto1,001,117,
0.25,Stim\\05_019.jpg,En19_11,Enojo,11,María asiste a la cena.,Afirmación,En19,19,,,,,,,,,,,,,0,87,87,87,,,,,,,,,1,0.726016418345,3,0.0337782720219,2018_may._10_1458,60.0599283861,Experimento Piloto1,001,117,
2.5,Stim\\03_028.jpg,Tr28_9,Tristeza,9,Marco colabora en la organización del evento.,Afirmación,Tr28,28,,,,,,,,,,,,,0,88,88,88,,,,,,,,,1,2.29483004211,4,0.300033736325,2018_may._10_1458,60.0599283861,Experimento Piloto1,001,117,
2.5,Stim\\05_019.jpg,En19_8,Enojo,8,Estefanía despierta a las 7 a.m.,Afirmación,En19,19,,,,,,,,,,,,,0,89,89,89,,,,,,,,,1,0.60369189632,2,0.550196616729,2018_may._10_1458,60.0599283861,Experimento Piloto1,001,117,
0.25,Stim\\03_075.jpg,Tr75_9,Tristeza,9,Marco colabora en la organización del evento.,Afirmación,Tr75,75,,,,,,,,,,,,,0,90,90,90,,,,,,,,,1,1.52857056158,4,0.650219018362,2018_may._10_1458,60.0599283861,Experimento Piloto1,001,117,
2.5,Stim\\02_075.jpg,Al75_3,Alegría,3,Andrea diseña la portada del libro.,Afirmación,Al75,75,,,,,,,,,,,,,0,91,91,91,,,,,,,,,1,0.868559530333,3,0.0340063045871,2018_may._10_1458,60.0599283861,Experimento Piloto1,001,117,
0.25,Stim\\05_028.jpg,En28_12,Enojo,12,Ana compra el libro.,Afirmación,En28,28,,,,,,,,,,,,,0,92,92,92,,,,,,,,,1,1.42720227693,2,0.350276316565,2018_may._10_1458,60.0599283861,Experimento Piloto1,001,117,
0.25,Stim\\03_028.jpg,Tr28_7,Tristeza,7,Roberto contesta los cuestionarios solicitados.,Afirmación,Tr28,28,,,,,,,,,,,,,0,93,93,93,,,,,,,,,1,1.06106319403,4,0.383701160422,2018_may._10_1458,60.0599283861,Experimento Piloto1,001,117,
0.25,Stim\\03_019.jpg,Tr19_8,Tristeza,8,Estefanía despierta a las 7 a.m.,Afirmación,Tr19,19,,,,,,,,,,,,,0,94,94,94,,,,,,,,,1,0.669752618135,3,0.433675992053,2018_may._10_1458,60.0599283861,Experimento Piloto1,001,117,
0.25,Stim\\02_019.jpg,Al19_4,Alegría,4,Jorge sustituye a Gustavo cada sábado.,Afirmación,Al19,19,,,,,,,,,,,,,0,95,95,95,,,,,,,,,1,0.71464290368,3,0.533673403817,2018_may._10_1458,60.0599283861,Experimento Piloto1,001,117,
2.5,Stim\\05_019.jpg,En19_15,Enojo,15,Ángel envía una carta a la abuela.,Afirmación,En19,19,,,,,,,,,,,,,0,96,96,96,,,,,,,,,1,1.13248915172,2,0.499881744364,2018_may._10_1458,60.0599283861,Experimento Piloto1,001,117,
0.25,Stim\\05_075.jpg,En75_13,Enojo,13,Rocío consume alimentos nutritivos.,Afirmación,En75,75,,,,,,,,,,,,,0,97,97,97,,,,,,,,,1,0.848600210272,4,0.450330401784,2018_may._10_1458,60.0599283861,Experimento Piloto1,001,117,
0.25,Stim\\02_078.jpg,Al78_7,Alegría,7,Roberto contesta los cuestionarios solicitados.,Afirmación,Al78,78,,,,,,,,,,,,,0,98,98,98,,,,,,,,,1,3.06059374147,3,0.333748641176,2018_may._10_1458,60.0599283861,Experimento Piloto1,001,117,
2.5,Stim\\03_028.jpg,Tr28_3,Tristeza,3,Andrea diseña la portada del libro.,Afirmación,Tr28,28,,,,,,,,,,,,,0,99,99,99,,,,,,,,,1,1.33418417891,4,0.350066580154,2018_may._10_1458,60.0599283861,Experimento Piloto1,001,117,
2.5,Stim\\05_075.jpg,En75_15,Enojo,15,Ángel envía una carta a la abuela.,Afirmación,En75,75,,,,,,,,,,,,,0,100,100,100,,,,,,,,,1,0.967972803881,4,0.433757209131,2018_may._10_1458,60.0599283861,Experimento Piloto1,001,117,
0.25,Stim\\02_028.jpg,Al28_13,Alegría,13,Rocío consume alimentos nutritivos.,Afirmación,Al28,28,,,,,,,,,,,,,0,101,101,101,,,,,,,,,1,0.539382696657,3,0.383733290256,2018_may._10_1458,60.0599283861,Experimento Piloto1,001,117,
0.25,Stim\\03_028.jpg,Tr28_15,Tristeza,15,Ángel envía una carta a la abuela.,Afirmación,Tr28,28,,,,,,,,,,,,,0,102,102,102,,,,,,,,,1,1.06851017534,4,0.450555756863,2018_may._10_1458,60.0599283861,Experimento Piloto1,001,117,
0.25,Stim\\05_019.jpg,En19_2,Enojo,2,Jonathan pasea al perro.,Afirmación,En19,19,,,,,,,,,,,,,0,103,103,103,,,,,,,,,1,1.02450033647,2,0.333695537702,2018_may._10_1458,60.0599283861,Experimento Piloto1,001,117,
0.25,Stim\\03_078.jpg,Tr78_13,Tristeza,13,Rocío consume alimentos nutritivos.,Afirmación,Tr78,78,,,,,,,,,,,,,0,104,104,104,,,,,,,,,1,0.768348812178,4,0.383760957612,2018_may._10_1458,60.0599283861,Experimento Piloto1,001,117,
2.5,Stim\\03_075.jpg,Tr75_2,Tristeza,2,Jonathan pasea al perro.,Afirmación,Tr75,75,,,,,,,,,,,,,0,105,105,105,,,,,,,,,1,0.624936409705,4,0.350124146105,2018_may._10_1458,60.0599283861,Experimento Piloto1,001,117,
2.5,Stim\\05_075.jpg,En75_10,Enojo,10,Laura finaliza la obra.,Afirmación,En75,75,,,,,,,,,,,,,0,106,106,106,,,,,,,,,1,1.2248994604,2,0.349922442153,2018_may._10_1458,60.0599283861,Experimento Piloto1,001,117,
2.5,Stim\\05_028.jpg,En28_3,Enojo,3,Andrea diseña la portada del libro.,Afirmación,En28,28,,,,,,,,,,,,,0,107,107,107,,,,,,,,,1,0.601832828478,4,0.650471148302,2018_may._10_1458,60.0599283861,Experimento Piloto1,001,117,
2.5,Stim\\02_078.jpg,Al78_8,Alegría,8,Estefanía despierta a las 7 a.m.,Afirmación,Al78,78,,,,,,,,,,,,,0,108,108,108,,,,,,,,,1,0.470108991534,3,0.333710710123,2018_may._10_1458,60.0599283861,Experimento Piloto1,001,117,
2.5,Stim\\05_075.jpg,En75_2,Enojo,2,Jonathan pasea al perro.,Afirmación,En75,75,,,,,,,,,,,,,0,109,109,109,,,,,,,,,1,0.524926949254,2,0.333762474854,2018_may._10_1458,60.0599283861,Experimento Piloto1,001,117,
0.25,Stim\\05_078.jpg,En78_2,Enojo,2,Jonathan pasea al perro.,Afirmación,En78,78,,,,,,,,,,,,,0,110,110,110,,,,,,,,,1,2.1664298579,2,1.10025445043,2018_may._10_1458,60.0599283861,Experimento Piloto1,001,117,
2.5,Stim\\05_078.jpg,En78_14,Enojo,14,Elizabeth elige la ropa un día antes.,Afirmación,En78,78,,,,,,,,,,,,,0,111,111,111,,,,,,,,,1,0.766284024154,4,0.350326296305,2018_may._10_1458,60.0599283861,Experimento Piloto1,001,117,
2.5,Stim\\05_028.jpg,En28_1,Enojo,1,Juan colecciona monedas antiguas.,Afirmación,En28,28,,,,,,,,,,,,,0,112,112,112,,,,,,,,,1,0.868681802198,2,0.433713476858,2018_may._10_1458,60.0599283861,Experimento Piloto1,001,117,
0.25,Stim\\05_019.jpg,En19_12,Enojo,12,Ana compra el libro.,Afirmación,En19,19,,,,,,,,,,,,,0,113,113,113,,,,,,,,,1,1.17748430547,2,0.816671188643,2018_may._10_1458,60.0599283861,Experimento Piloto1,001,117,
0.25,Stim\\02_075.jpg,Al75_13,Alegría,13,Rocío consume alimentos nutritivos.,Afirmación,Al75,75,,,,,,,,,,,,,0,114,114,114,,,,,,,,,1,1.01770710801,3,0.483760154366,2018_may._10_1458,60.0599283861,Experimento Piloto1,001,117,
2.5,Stim\\03_019.jpg,Tr19_6,Tristeza,6,Eduardo camina hacia la biblioteca.,Afirmación,Tr19,19,,,,,,,,,,,,,0,115,115,115,,,,,,,,,1,2.0500091927,2,1.2666597647,2018_may._10_1458,60.0599283861,Experimento Piloto1,001,117,
2.5,Stim\\05_028.jpg,En28_14,Enojo,14,Elizabeth elige la ropa un día antes.,Afirmación,En28,28,,,,,,,,,,,,,0,116,116,116,,,,,,,,,1,0.566498937038,2,0.383585582273,2018_may._10_1458,60.0599283861,Experimento Piloto1,001,117,
2.5,Stim\\02_028.jpg,Al28_5,Alegría,5,Emilio revisa el formato del archivo.,Afirmación,Al28,28,,,,,,,,,,,,,0,117,117,117,,,,,,,,,1,0.917147424169,3,0.866541152069,2018_may._10_1458,60.0599283861,Experimento Piloto1,001,117,
2.5,Stim\\02_078.jpg,Al78_9,Alegría,9,Marco colabora en la organización del evento.,Afirmación,Al78,78,,,,,,,,,,,,,0,118,118,118,,,,,,,,,1,1.26223075646,3,0.350345038707,2018_may._10_1458,60.0599283861,Experimento Piloto1,001,117,
0.25,Stim\\03_019.jpg,Tr19_3,Tristeza,3,Andrea diseña la portada del libro.,Afirmación,Tr19,19,,,,,,,,,,,,,0,119,119,119,,,,,,,,,1,1.73387885625,2,0.950179570067,2018_may._10_1458,60.0599283861,Experimento Piloto1,001,117,
