Tiempo,ImagenesE,ClaveEn,Emocion,NumEn,Enunciado,ActoHabla,Clave,Cara,trials.thisRepN,trials.thisTrialN,trials.thisN,trials.thisIndex,Bloque1.thisRepN,Bloque1.thisTrialN,Bloque1.thisN,Bloque1.thisIndex,Bloque3.thisRepN,Bloque3.thisTrialN,Bloque3.thisN,Bloque3.thisIndex,Bloque2.thisRepN,Bloque2.thisTrialN,Bloque2.thisN,Bloque2.thisIndex,Sig_B1.keys,Sig_B1.rt,Resp_Bloque1.keys,Resp_Bloque1.rt,Sig_B3.keys,Sig_B3.rt,Resp_Bloque3.keys,Resp_Bloque3.rt,Sig_B2.keys,Sig_B2.rt,Resp_Bloque2.keys,Resp_Bloque2.rt,date,frameRate,expName,session,participant,
0.25,Stim\\03_028.jpg,Tr28_2,Tristeza,2,Jonathan pasea al perro.,Afirmación,Tr28,28,,,,,0,0,0,0,,,,,,,,,1,4.13804448911,2,3.36571202388,,,,,,,,,2018_may._10_1821,60.0193912642,Experimento Piloto1,001,118,
2.5,Stim\\05_075.jpg,En75_12,Enojo,12,Ana compra el libro.,Afirmación,En75,75,,,,,0,1,1,1,,,,,,,,,1,2.50905793544,2,1.58278742367,,,,,,,,,2018_may._10_1821,60.0193912642,Experimento Piloto1,001,118,
0.25,Stim\\02_078.jpg,Al78_11,Alegría,11,María asiste a la cena.,Afirmación,Al78,78,,,,,0,2,2,2,,,,,,,,,1,3.00760763048,4,2.81593175623,,,,,,,,,2018_may._10_1821,60.0193912642,Experimento Piloto1,001,118,
0.25,Stim\\02_078.jpg,Al78_8,Alegría,8,Estefanía despierta a las 7 a.m.,Afirmación,Al78,78,,,,,0,3,3,3,,,,,,,,,1,3.31672161463,4,1.31677471811,,,,,,,,,2018_may._10_1821,60.0193912642,Experimento Piloto1,001,118,
0.25,Stim\\05_028.jpg,En28_6,Enojo,6,Eduardo camina hacia la biblioteca.,Afirmación,En28,28,,,,,0,4,4,4,,,,,,,,,1,3.68242158982,2,2.0833876268,,,,,,,,,2018_may._10_1821,60.0193912642,Experimento Piloto1,001,118,
0.25,Stim\\02_019.jpg,Al19_14,Alegría,14,Elizabeth elige la ropa un día antes.,Afirmación,Al19,19,,,,,0,5,5,5,,,,,,,,,1,2.96526229546,3,5.14894765872,,,,,,,,,2018_may._10_1821,60.0193912642,Experimento Piloto1,001,118,
2.5,Stim\\05_078.jpg,En78_1,Enojo,1,Juan colecciona monedas antiguas.,Afirmación,En78,78,,,,,0,6,6,6,,,,,,,,,1,3.8005687873,2,4.18243274601,,,,,,,,,2018_may._10_1821,60.0193912642,Experimento Piloto1,001,118,
2.5,Stim\\02_078.jpg,Al78_15,Alegría,15,Ángel envía una carta a la abuela.,Afirmación,Al78,78,,,,,0,7,7,7,,,,,,,,,1,5.48043917912,4,7.31487370298,,,,,,,,,2018_may._10_1821,60.0193912642,Experimento Piloto1,001,118,
0.25,Stim\\02_075.jpg,Al75_14,Alegría,14,Elizabeth elige la ropa un día antes.,Afirmación,Al75,75,,,,,0,8,8,8,,,,,,,,,1,3.8318677072,3,1.21659702228,,,,,,,,,2018_may._10_1821,60.0193912642,Experimento Piloto1,001,118,
2.5,Stim\\02_075.jpg,Al75_2,Alegría,2,Jonathan pasea al perro.,Afirmación,Al75,75,,,,,0,9,9,9,,,,,,,,,1,2.45668006005,4,1.3669008277,,,,,,,,,2018_may._10_1821,60.0193912642,Experimento Piloto1,001,118,
0.25,Stim\\05_075.jpg,En75_12,Enojo,12,Ana compra el libro.,Afirmación,En75,75,,,,,0,10,10,10,,,,,,,,,1,1.64265155018,2,1.26636033251,,,,,,,,,2018_may._10_1821,60.0193912642,Experimento Piloto1,001,118,
2.5,Stim\\03_078.jpg,Tr78_8,Tristeza,8,Estefanía despierta a las 7 a.m.,Afirmación,Tr78,78,,,,,0,11,11,11,,,,,,,,,1,3.43534451213,2,1.16666369168,,,,,,,,,2018_may._10_1821,60.0193912642,Experimento Piloto1,001,118,
0.25,Stim\\03_078.jpg,Tr78_15,Tristeza,15,Ángel envía una carta a la abuela.,Afirmación,Tr78,78,,,,,0,12,12,12,,,,,,,,,1,3.61737518899,4,3.16605099361,,,,,,,,,2018_may._10_1821,60.0193912642,Experimento Piloto1,001,118,
0.25,Stim\\03_078.jpg,Tr78_5,Tristeza,5,Emilio revisa el formato del archivo.,Afirmación,Tr78,78,,,,,0,13,13,13,,,,,,,,,1,7.82480539138,4,9.98037581195,,,,,,,,,2018_may._10_1821,60.0193912642,Experimento Piloto1,001,118,
2.5,Stim\\02_019.jpg,Al19_5,Alegría,5,Emilio revisa el formato del archivo.,Afirmación,Al19,19,,,,,0,14,14,14,,,,,,,,,1,3.86591506657,3,4.84902369932,,,,,,,,,2018_may._10_1821,60.0193912642,Experimento Piloto1,001,118,
2.5,Stim\\03_075.jpg,Tr75_10,Tristeza,10,Laura finaliza la obra.,Afirmación,Tr75,75,,,,,0,15,15,15,,,,,,,,,1,2.4553132034,2,1.98349419075,,,,,,,,,2018_may._10_1821,60.0193912642,Experimento Piloto1,001,118,
2.5,Stim\\03_075.jpg,Tr75_4,Tristeza,4,Jorge sustituye a Gustavo cada sábado.,Afirmación,Tr75,75,,,,,0,16,16,16,,,,,,,,,1,7.17880162862,4,1.16650215002,,,,,,,,,2018_may._10_1821,60.0193912642,Experimento Piloto1,001,118,
0.25,Stim\\03_028.jpg,Tr28_5,Tristeza,5,Emilio revisa el formato del archivo.,Afirmación,Tr28,28,,,,,0,17,17,17,,,,,,,,,1,2.74844125685,4,3.73259767915,,,,,,,,,2018_may._10_1821,60.0193912642,Experimento Piloto1,001,118,
0.25,Stim\\05_075.jpg,En75_11,Enojo,11,María asiste a la cena.,Afirmación,En75,75,,,,,0,18,18,18,,,,,,,,,1,1.79114180502,2,0.850115221152,,,,,,,,,2018_may._10_1821,60.0193912642,Experimento Piloto1,001,118,
0.25,Stim\\02_075.jpg,Al75_6,Alegría,6,Eduardo camina hacia la biblioteca.,Afirmación,Al75,75,,,,,0,19,19,19,,,,,,,,,1,3.31661585393,3,0.916764989905,,,,,,,,,2018_may._10_1821,60.0193912642,Experimento Piloto1,001,118,
0.25,Stim\\05_078.jpg,En78_1,Enojo,1,Juan colecciona monedas antiguas.,Afirmación,En78,78,,,,,0,20,20,20,,,,,,,,,1,2.18530167236,2,1.01681193516,,,,,,,,,2018_may._10_1821,60.0193912642,Experimento Piloto1,001,118,
2.5,Stim\\03_019.jpg,Tr19_4,Tristeza,4,Jorge sustituye a Gustavo cada sábado.,Afirmación,Tr19,19,,,,,0,21,21,21,,,,,,,,,1,3.48085061948,4,2.28308480312,,,,,,,,,2018_may._10_1821,60.0193912642,Experimento Piloto1,001,118,
0.25,Stim\\03_028.jpg,Tr28_11,Tristeza,11,María asiste a la cena.,Afirmación,Tr28,28,,,,,0,22,22,22,,,,,,,,,1,1.99127407283,2,6.03203612107,,,,,,,,,2018_may._10_1821,60.0193912642,Experimento Piloto1,001,118,
0.25,Stim\\02_019.jpg,Al19_7,Alegría,7,Roberto contesta los cuestionarios solicitados.,Afirmación,Al19,19,,,,,0,23,23,23,,,,,,,,,1,2.75587306574,3,1.16677212987,,,,,,,,,2018_may._10_1821,60.0193912642,Experimento Piloto1,001,118,
0.25,Stim\\05_028.jpg,En28_1,Enojo,1,Juan colecciona monedas antiguas.,Afirmación,En28,28,,,,,0,24,24,24,,,,,,,,,1,2.1855444311,2,2.74964880307,,,,,,,,,2018_may._10_1821,60.0193912642,Experimento Piloto1,001,118,
0.25,Stim\\03_019.jpg,Tr19_6,Tristeza,6,Eduardo camina hacia la biblioteca.,Afirmación,Tr19,19,,,,,0,25,25,25,,,,,,,,,1,1.99976214999,3,1.10009067753,,,,,,,,,2018_may._10_1821,60.0193912642,Experimento Piloto1,001,118,
0.25,Stim\\03_078.jpg,Tr78_7,Tristeza,7,Roberto contesta los cuestionarios solicitados.,Afirmación,Tr78,78,,,,,0,26,26,26,,,,,,,,,1,2.65905338372,4,0.700220178607,,,,,,,,,2018_may._10_1821,60.0193912642,Experimento Piloto1,001,118,
2.5,Stim\\03_019.jpg,Tr19_15,Tristeza,15,Ángel envía una carta a la abuela.,Afirmación,Tr19,19,,,,,0,27,27,27,,,,,,,,,1,2.66688726177,3,2.63323527784,,,,,,,,,2018_may._10_1821,60.0193912642,Experimento Piloto1,001,118,
2.5,Stim\\02_028.jpg,Al28_4,Alegría,4,Jorge sustituye a Gustavo cada sábado.,Afirmación,Al28,28,,,,,0,28,28,28,,,,,,,,,1,1.74799143918,3,3.46609900987,,,,,,,,,2018_may._10_1821,60.0193912642,Experimento Piloto1,001,118,
2.5,Stim\\03_078.jpg,Tr78_5,Tristeza,5,Emilio revisa el formato del archivo.,Afirmación,Tr78,78,,,,,0,29,29,29,,,,,,,,,1,2.24694588087,4,1.16651152122,,,,,,,,,2018_may._10_1821,60.0193912642,Experimento Piloto1,001,118,
2.5,Stim\\03_028.jpg,Tr28_12,Tristeza,12,Ana compra el libro.,Afirmación,Tr28,28,,,,,0,30,30,30,,,,,,,,,1,1.59302300674,4,0.80035235717,,,,,,,,,2018_may._10_1821,60.0193912642,Experimento Piloto1,001,118,
0.25,Stim\\02_028.jpg,Al28_2,Alegría,2,Jonathan pasea al perro.,Afirmación,Al28,28,,,,,0,31,31,31,,,,,,,,,1,3.63973309034,3,0.75023874251,,,,,,,,,2018_may._10_1821,60.0193912642,Experimento Piloto1,001,118,
0.25,Stim\\05_019.jpg,En19_8,Enojo,8,Estefanía despierta a las 7 a.m.,Afirmación,En19,19,,,,,0,32,32,32,,,,,,,,,1,2.30164290547,2,0.70020188245,,,,,,,,,2018_may._10_1821,60.0193912642,Experimento Piloto1,001,118,
0.25,Stim\\03_019.jpg,Tr19_9,Tristeza,9,Marco colabora en la organización del evento.,Afirmación,Tr19,19,,,,,0,33,33,33,,,,,,,,,1,4.29293393571,3,0.950200543708,,,,,,,,,2018_may._10_1821,60.0193912642,Experimento Piloto1,001,118,
2.5,Stim\\02_078.jpg,Al78_10,Alegría,10,Laura finaliza la obra.,Afirmación,Al78,78,,,,,0,34,34,34,,,,,,,,,1,2.10744126934,3,0.90024266949,,,,,,,,,2018_may._10_1821,60.0193912642,Experimento Piloto1,001,118,
2.5,Stim\\02_075.jpg,Al75_15,Alegría,15,Ángel envía una carta a la abuela.,Afirmación,Al75,75,,,,,0,35,35,35,,,,,,,,,1,2.00003212983,4,4.89892490009,,,,,,,,,2018_may._10_1821,60.0193912642,Experimento Piloto1,001,118,
2.5,Stim\\03_028.jpg,Tr28_6,Tristeza,6,Eduardo camina hacia la biblioteca.,Afirmación,Tr28,28,,,,,0,36,36,36,,,,,,,,,1,2.91625225132,2,1.06691350113,,,,,,,,,2018_may._10_1821,60.0193912642,Experimento Piloto1,001,118,
0.25,Stim\\03_075.jpg,Tr75_14,Tristeza,14,Elizabeth elige la ropa un día antes.,Afirmación,Tr75,75,,,,,0,37,37,37,,,,,,,,,1,1.78002354403,2,0.7004428562,,,,,,,,,2018_may._10_1821,60.0193912642,Experimento Piloto1,001,118,
2.5,Stim\\05_075.jpg,En75_13,Enojo,13,Rocío consume alimentos nutritivos.,Afirmación,En75,75,,,,,0,38,38,38,,,,,,,,,1,2.71605483135,2,0.800430896761,,,,,,,,,2018_may._10_1821,60.0193912642,Experimento Piloto1,001,118,
2.5,Stim\\03_075.jpg,Tr75_8,Tristeza,8,Estefanía despierta a las 7 a.m.,Afirmación,Tr75,75,,,,,0,39,39,39,,,,,,,,,1,2.41859862163,4,0.850299967691,,,,,,,,,2018_may._10_1821,60.0193912642,Experimento Piloto1,001,118,
0.25,Stim\\05_075.jpg,En75_7,Enojo,7,Roberto contesta los cuestionarios solicitados.,Afirmación,En75,75,,,,,0,40,40,40,,,,,,,,,1,1.97668668236,2,1.21680140372,,,,,,,,,2018_may._10_1821,60.0193912642,Experimento Piloto1,001,118,
2.5,Stim\\03_019.jpg,Tr19_10,Tristeza,10,Laura finaliza la obra.,Afirmación,Tr19,19,,,,,0,41,41,41,,,,,,,,,1,3.84056150453,3,0.8671123491,,,,,,,,,2018_may._10_1821,60.0193912642,Experimento Piloto1,001,118,
2.5,Stim\\03_019.jpg,Tr19_2,Tristeza,2,Jonathan pasea al perro.,Afirmación,Tr19,19,,,,,0,42,42,42,,,,,,,,,1,1.69075437278,3,0.550243472735,,,,,,,,,2018_may._10_1821,60.0193912642,Experimento Piloto1,001,118,
0.25,Stim\\03_075.jpg,Tr75_15,Tristeza,15,Ángel envía una carta a la abuela.,Afirmación,Tr75,75,,,,,0,43,43,43,,,,,,,,,1,3.78266711529,4,2.69970253129,,,,,,,,,2018_may._10_1821,60.0193912642,Experimento Piloto1,001,118,
0.25,Stim\\05_019.jpg,En19_1,Enojo,1,Juan colecciona monedas antiguas.,Afirmación,En19,19,,,,,0,44,44,44,,,,,,,,,1,2.0343499153,2,1.78326821092,,,,,,,,,2018_may._10_1821,60.0193912642,Experimento Piloto1,001,118,
0.25,Stim\\03_078.jpg,Tr78_2,Tristeza,2,Jonathan pasea al perro.,Afirmación,Tr78,78,,,,,0,45,45,45,,,,,,,,,1,2.30710006836,4,0.849888081082,,,,,,,,,2018_may._10_1821,60.0193912642,Experimento Piloto1,001,118,
2.5,Stim\\02_019.jpg,Al19_9,Alegría,9,Marco colabora en la organización del evento.,Afirmación,Al19,19,,,,,0,46,46,46,,,,,,,,,1,2.8076132532,3,1.26671911565,,,,,,,,,2018_may._10_1821,60.0193912642,Experimento Piloto1,001,118,
2.5,Stim\\03_028.jpg,Tr28_11,Tristeza,11,María asiste a la cena.,Afirmación,Tr28,28,,,,,0,47,47,47,,,,,,,,,1,3.74014685119,4,0.700115756648,,,,,,,,,2018_may._10_1821,60.0193912642,Experimento Piloto1,001,118,
2.5,Stim\\05_078.jpg,En78_6,Enojo,6,Eduardo camina hacia la biblioteca.,Afirmación,En78,78,,,,,0,48,48,48,,,,,,,,,1,1.58395436136,2,1.06680952542,,,,,,,,,2018_may._10_1821,60.0193912642,Experimento Piloto1,001,118,
2.5,Stim\\02_028.jpg,Al28_14,Alegría,14,Elizabeth elige la ropa un día antes.,Afirmación,Al28,28,,,,,0,49,49,49,,,,,,,,,1,5.16433026255,3,3.11606589829,,,,,,,,,2018_may._10_1821,60.0193912642,Experimento Piloto1,001,118,
0.25,Stim\\03_019.jpg,Tr19_10,Tristeza,10,Laura finaliza la obra.,Afirmación,Tr19,19,,,,,0,50,50,50,,,,,,,,,1,1.69035051863,4,7.83130677386,,,,,,,,,2018_may._10_1821,60.0193912642,Experimento Piloto1,001,118,
2.5,Stim\\05_019.jpg,En19_2,Enojo,2,Jonathan pasea al perro.,Afirmación,En19,19,,,,,0,51,51,51,,,,,,,,,1,2.40632547164,2,0.800223391589,,,,,,,,,2018_may._10_1821,60.0193912642,Experimento Piloto1,001,118,
0.25,Stim\\05_078.jpg,En78_5,Enojo,5,Emilio revisa el formato del archivo.,Afirmación,En78,78,,,,,0,52,52,52,,,,,,,,,1,1.53204326104,2,0.750238296263,,,,,,,,,2018_may._10_1821,60.0193912642,Experimento Piloto1,001,118,
2.5,Stim\\02_075.jpg,Al75_5,Alegría,5,Emilio revisa el formato del archivo.,Afirmación,Al75,75,,,,,0,53,53,53,,,,,,,,,1,4.31569613746,3,0.700408941377,,,,,,,,,2018_may._10_1821,60.0193912642,Experimento Piloto1,001,118,
0.25,Stim\\05_028.jpg,En28_9,Enojo,9,Marco colabora en la organización del evento.,Afirmación,En28,28,,,,,0,54,54,54,,,,,,,,,1,1.92758828118,2,0.650325671557,,,,,,,,,2018_may._10_1821,60.0193912642,Experimento Piloto1,001,118,
2.5,Stim\\03_019.jpg,Tr19_1,Tristeza,1,Juan colecciona monedas antiguas.,Afirmación,Tr19,19,,,,,0,55,55,55,,,,,,,,,1,1.9511157977,3,0.900285509266,,,,,,,,,2018_may._10_1821,60.0193912642,Experimento Piloto1,001,118,
0.25,Stim\\02_028.jpg,Al28_3,Alegría,3,Andrea diseña la portada del libro.,Afirmación,Al28,28,,,,,0,56,56,56,,,,,,,,,1,3.68169777608,4,1.21687324959,,,,,,,,,2018_may._10_1821,60.0193912642,Experimento Piloto1,001,118,
0.25,Stim\\05_028.jpg,En28_5,Enojo,5,Emilio revisa el formato del archivo.,Afirmación,En28,28,,,,,0,57,57,57,,,,,,,,,1,2.96525470925,2,0.85057173253,,,,,,,,,2018_may._10_1821,60.0193912642,Experimento Piloto1,001,118,
2.5,Stim\\03_078.jpg,Tr78_15,Tristeza,15,Ángel envía una carta a la abuela.,Afirmación,Tr78,78,,,,,0,58,58,58,,,,,,,,,1,3.53358638552,4,0.800321566079,,,,,,,,,2018_may._10_1821,60.0193912642,Experimento Piloto1,001,118,
0.25,Stim\\02_078.jpg,Al78_10,Alegría,10,Laura finaliza la obra.,Afirmación,Al78,78,,,,,0,59,59,59,,,,,,,,,1,1.17434673802,3,0.816851472706,,,,,,,,,2018_may._10_1821,60.0193912642,Experimento Piloto1,001,118,
0.25,Stim\\03_075.jpg,Tr75_7,Tristeza,7,Roberto contesta los cuestionarios solicitados.,Afirmación,Tr75,75,,,,,0,60,60,60,,,,,,,,,1,1.82636234955,4,5.14903110703,,,,,,,,,2018_may._10_1821,60.0193912642,Experimento Piloto1,001,118,
0.25,Stim\\03_075.jpg,Tr75_5,Tristeza,5,Emilio revisa el formato del archivo.,Afirmación,Tr75,75,,,,,0,61,61,61,,,,,,,,,1,3.01476722828,4,0.450328170546,,,,,,,,,2018_may._10_1821,60.0193912642,Experimento Piloto1,001,118,
0.25,Stim\\05_075.jpg,En75_14,Enojo,14,Elizabeth elige la ropa un día antes.,Afirmación,En75,75,,,,,0,62,62,62,,,,,,,,,1,1.36635863677,2,0.816897436218,,,,,,,,,2018_may._10_1821,60.0193912642,Experimento Piloto1,001,118,
0.25,Stim\\05_075.jpg,En75_2,Enojo,2,Jonathan pasea al perro.,Afirmación,En75,75,,,,,0,63,63,63,,,,,,,,,1,1.27408264864,2,0.800173858097,,,,,,,,,2018_may._10_1821,60.0193912642,Experimento Piloto1,001,118,
0.25,Stim\\02_078.jpg,Al78_6,Alegría,6,Eduardo camina hacia la biblioteca.,Afirmación,Al78,78,,,,,0,64,64,64,,,,,,,,,1,2.69982971188,3,1.26666378093,,,,,,,,,2018_may._10_1821,60.0193912642,Experimento Piloto1,001,118,
0.25,Stim\\03_075.jpg,Tr75_4,Tristeza,4,Jorge sustituye a Gustavo cada sábado.,Afirmación,Tr75,75,,,,,0,65,65,65,,,,,,,,,1,3.83057492766,4,0.766853882444,,,,,,,,,2018_may._10_1821,60.0193912642,Experimento Piloto1,001,118,
0.25,Stim\\03_075.jpg,Tr75_3,Tristeza,3,Andrea diseña la portada del libro.,Afirmación,Tr75,75,,,,,0,66,66,66,,,,,,,,,1,1.71631767123,4,2.54973921285,,,,,,,,,2018_may._10_1821,60.0193912642,Experimento Piloto1,001,118,
0.25,Stim\\02_028.jpg,Al28_10,Alegría,10,Laura finaliza la obra.,Afirmación,Al28,28,,,,,0,67,67,67,,,,,,,,,1,1.17476576459,3,1.48328579308,,,,,,,,,2018_may._10_1821,60.0193912642,Experimento Piloto1,001,118,
0.25,Stim\\03_028.jpg,Tr28_12,Tristeza,12,Ana compra el libro.,Afirmación,Tr28,28,,,,,0,68,68,68,,,,,,,,,1,1.27653076342,4,1.36666788641,,,,,,,,,2018_may._10_1821,60.0193912642,Experimento Piloto1,001,118,
0.25,Stim\\03_075.jpg,Tr75_10,Tristeza,10,Laura finaliza la obra.,Afirmación,Tr75,75,,,,,0,69,69,69,,,,,,,,,1,1.59078418213,3,1.51665574847,,,,,,,,,2018_may._10_1821,60.0193912642,Experimento Piloto1,001,118,
0.25,Stim\\02_028.jpg,Al28_8,Alegría,8,Estefanía despierta a las 7 a.m.,Afirmación,Al28,28,,,,,0,70,70,70,,,,,,,,,1,1.83472547735,3,8.94781445735,,,,,,,,,2018_may._10_1821,60.0193912642,Experimento Piloto1,001,118,
0.25,Stim\\05_078.jpg,En78_14,Enojo,14,Elizabeth elige la ropa un día antes.,Afirmación,En78,78,,,,,0,71,71,71,,,,,,,,,1,1.78166975172,2,0.766823091353,,,,,,,,,2018_may._10_1821,60.0193912642,Experimento Piloto1,001,118,
2.5,Stim\\03_078.jpg,Tr78_9,Tristeza,9,Marco colabora en la organización del evento.,Afirmación,Tr78,78,,,,,0,72,72,72,,,,,,,,,1,2.81014303131,4,0.800205987931,,,,,,,,,2018_may._10_1821,60.0193912642,Experimento Piloto1,001,118,
0.25,Stim\\02_019.jpg,Al19_3,Alegría,3,Andrea diseña la portada del libro.,Afirmación,Al19,19,,,,,0,73,73,73,,,,,,,,,1,4.03217535035,3,5.11546881889,,,,,,,,,2018_may._10_1821,60.0193912642,Experimento Piloto1,001,118,
0.25,Stim\\03_078.jpg,Tr78_6,Tristeza,6,Eduardo camina hacia la biblioteca.,Afirmación,Tr78,78,,,,,0,74,74,74,,,,,,,,,1,3.58044462334,4,0.900099423983,,,,,,,,,2018_may._10_1821,60.0193912642,Experimento Piloto1,001,118,
0.25,Stim\\03_028.jpg,Tr28_8,Tristeza,8,Estefanía despierta a las 7 a.m.,Afirmación,Tr28,28,,,,,0,75,75,75,,,,,,,,,1,1.73623459776,4,1.26678114407,,,,,,,,,2018_may._10_1821,60.0193912642,Experimento Piloto1,001,118,
2.5,Stim\\05_078.jpg,En78_9,Enojo,9,Marco colabora en la organización del evento.,Afirmación,En78,78,,,,,0,76,76,76,,,,,,,,,1,2.04370103547,2,0.800231424048,,,,,,,,,2018_may._10_1821,60.0193912642,Experimento Piloto1,001,118,
2.5,Stim\\02_028.jpg,Al28_6,Alegría,6,Eduardo camina hacia la biblioteca.,Afirmación,Al28,28,,,,,0,77,77,77,,,,,,,,,1,1.93326098171,3,2.03326821092,,,,,,,,,2018_may._10_1821,60.0193912642,Experimento Piloto1,001,118,
2.5,Stim\\03_078.jpg,Tr78_6,Tristeza,6,Eduardo camina hacia la biblioteca.,Afirmación,Tr78,78,,,,,0,78,78,78,,,,,,,,,1,1.66622904644,4,0.750216430126,,,,,,,,,2018_may._10_1821,60.0193912642,Experimento Piloto1,001,118,
2.5,Stim\\02_078.jpg,Al78_2,Alegría,2,Jonathan pasea al perro.,Afirmación,Al78,78,,,,,0,79,79,79,,,,,,,,,1,2.15733800763,3,3.76606670153,,,,,,,,,2018_may._10_1821,60.0193912642,Experimento Piloto1,001,118,
2.5,Stim\\02_028.jpg,Al28_10,Alegría,10,Laura finaliza la obra.,Afirmación,Al28,28,,,,,0,80,80,80,,,,,,,,,1,1.85764743577,3,1.16654766728,,,,,,,,,2018_may._10_1821,60.0193912642,Experimento Piloto1,001,118,
2.5,Stim\\02_019.jpg,Al19_15,Alegría,15,Ángel envía una carta a la abuela.,Afirmación,Al19,19,,,,,0,81,81,81,,,,,,,,,1,1.93433465363,3,2.34976759421,,,,,,,,,2018_may._10_1821,60.0193912642,Experimento Piloto1,001,118,
0.25,Stim\\03_019.jpg,Tr19_5,Tristeza,5,Emilio revisa el formato del archivo.,Afirmación,Tr19,19,,,,,0,82,82,82,,,,,,,,,1,1.92926617246,4,2.08312612566,,,,,,,,,2018_may._10_1821,60.0193912642,Experimento Piloto1,001,118,
0.25,Stim\\02_075.jpg,Al75_12,Alegría,12,Ana compra el libro.,Afirmación,Al75,75,,,,,0,83,83,83,,,,,,,,,1,1.9932344389,3,1.83309310333,,,,,,,,,2018_may._10_1821,60.0193912642,Experimento Piloto1,001,118,
2.5,Stim\\05_078.jpg,En78_3,Enojo,3,Andrea diseña la portada del libro.,Afirmación,En78,78,,,,,0,84,84,84,,,,,,,,,1,3.78258991444,2,0.816931351043,,,,,,,,,2018_may._10_1821,60.0193912642,Experimento Piloto1,001,118,
2.5,Stim\\03_075.jpg,Tr75_5,Tristeza,5,Emilio revisa el formato del archivo.,Afirmación,Tr75,75,,,,,0,85,85,85,,,,,,,,,1,2.4491148231,4,1.41677123737,,,,,,,,,2018_may._10_1821,60.0193912642,Experimento Piloto1,001,118,
2.5,Stim\\05_028.jpg,En28_2,Enojo,2,Jonathan pasea al perro.,Afirmación,En28,28,,,,,0,86,86,86,,,,,,,,,1,1.09016702158,2,1.00001561867,,,,,,,,,2018_may._10_1821,60.0193912642,Experimento Piloto1,001,118,
0.25,Stim\\03_028.jpg,Tr28_9,Tristeza,9,Marco colabora en la organización del evento.,Afirmación,Tr28,28,,,,,0,87,87,87,,,,,,,,,1,3.42639813861,4,2.58297440145,,,,,,,,,2018_may._10_1821,60.0193912642,Experimento Piloto1,001,118,
0.25,Stim\\03_078.jpg,Tr78_9,Tristeza,9,Marco colabora en la organización del evento.,Afirmación,Tr78,78,,,,,0,88,88,88,,,,,,,,,1,1.86620378882,4,0.483736056991,,,,,,,,,2018_may._10_1821,60.0193912642,Experimento Piloto1,001,118,
2.5,Stim\\03_075.jpg,Tr75_12,Tristeza,12,Ana compra el libro.,Afirmación,Tr75,75,,,,,0,89,89,89,,,,,,,,,1,1.39251008966,4,1.11674330227,,,,,,,,,2018_may._10_1821,60.0193912642,Experimento Piloto1,001,118,
2.5,Stim\\05_078.jpg,En78_11,Enojo,11,María asiste a la cena.,Afirmación,En78,78,,,,,0,90,90,90,,,,,,,,,1,1.59111128168,2,2.74954036489,,,,,,,,,2018_may._10_1821,60.0193912642,Experimento Piloto1,001,118,
2.5,Stim\\02_075.jpg,Al75_14,Alegría,14,Elizabeth elige la ropa un día antes.,Afirmación,Al75,75,,,,,0,91,91,91,,,,,,,,,1,2.14822562997,3,3.41604608489,,,,,,,,,2018_may._10_1821,60.0193912642,Experimento Piloto1,001,118,
0.25,Stim\\03_019.jpg,Tr19_7,Tristeza,7,Roberto contesta los cuestionarios solicitados.,Afirmación,Tr19,19,,,,,0,92,92,92,,,,,,,,,1,2.64240165147,3,8.39770218144,,,,,,,,,2018_may._10_1821,60.0193912642,Experimento Piloto1,001,118,
0.25,Stim\\05_075.jpg,En75_5,Enojo,5,Emilio revisa el formato del archivo.,Afirmación,En75,75,,,,,0,93,93,93,,,,,,,,,1,1.78158674966,2,1.61672366737,,,,,,,,,2018_may._10_1821,60.0193912642,Experimento Piloto1,001,118,
2.5,Stim\\05_019.jpg,En19_14,Enojo,14,Elizabeth elige la ropa un día antes.,Afirmación,En19,19,,,,,0,94,94,94,,,,,,,,,1,3.64570566931,2,0.950352267921,,,,,,,,,2018_may._10_1821,60.0193912642,Experimento Piloto1,001,118,
0.25,Stim\\02_075.jpg,Al75_2,Alegría,2,Jonathan pasea al perro.,Afirmación,Al75,75,,,,,0,95,95,95,,,,,,,,,1,3.37378330569,4,14.1962432193,,,,,,,,,2018_may._10_1821,60.0193912642,Experimento Piloto1,001,118,
2.5,Stim\\03_028.jpg,Tr28_10,Tristeza,10,Laura finaliza la obra.,Afirmación,Tr28,28,,,,,0,96,96,96,,,,,,,,,1,1.99169979312,3,1.11670492497,,,,,,,,,2018_may._10_1821,60.0193912642,Experimento Piloto1,001,118,
2.5,Stim\\02_078.jpg,Al78_3,Alegría,3,Andrea diseña la portada del libro.,Afirmación,Al78,78,,,,,0,97,97,97,,,,,,,,,1,1.28278358594,3,5.2152261494,,,,,,,,,2018_may._10_1821,60.0193912642,Experimento Piloto1,001,118,
2.5,Stim\\05_075.jpg,En75_3,Enojo,3,Andrea diseña la portada del libro.,Afirmación,En75,75,,,,,0,98,98,98,,,,,,,,,1,1.08343180532,2,0.650262750634,,,,,,,,,2018_may._10_1821,60.0193912642,Experimento Piloto1,001,118,
2.5,Stim\\03_075.jpg,Tr75_3,Tristeza,3,Andrea diseña la portada del libro.,Afirmación,Tr75,75,,,,,0,99,99,99,,,,,,,,,1,2.83272851898,4,2.2330416956,,,,,,,,,2018_may._10_1821,60.0193912642,Experimento Piloto1,001,118,
2.5,Stim\\03_075.jpg,Tr75_7,Tristeza,7,Roberto contesta los cuestionarios solicitados.,Afirmación,Tr75,75,,,,,0,100,100,100,,,,,,,,,1,1.62646793175,4,2.2497014603,,,,,,,,,2018_may._10_1821,60.0193912642,Experimento Piloto1,001,118,
2.5,Stim\\03_019.jpg,Tr19_14,Tristeza,14,Elizabeth elige la ropa un día antes.,Afirmación,Tr19,19,,,,,0,101,101,101,,,,,,,,,1,1.3654755126,4,4.81570327742,,,,,,,,,2018_may._10_1821,60.0193912642,Experimento Piloto1,001,118,
2.5,Stim\\05_078.jpg,En78_5,Enojo,5,Emilio revisa el formato del archivo.,Afirmación,En78,78,,,,,0,102,102,102,,,,,,,,,1,1.26593996719,2,1.73330989046,,,,,,,,,2018_may._10_1821,60.0193912642,Experimento Piloto1,001,118,
2.5,Stim\\02_078.jpg,Al78_12,Alegría,12,Ana compra el libro.,Afirmación,Al78,78,,,,,0,103,103,103,,,,,,,,,1,4.67506118056,3,3.71594371567,,,,,,,,,2018_may._10_1821,60.0193912642,Experimento Piloto1,001,118,
2.5,Stim\\02_028.jpg,Al28_13,Alegría,13,Rocío consume alimentos nutritivos.,Afirmación,Al28,28,,,,,0,104,104,104,,,,,,,,,1,3.53178265239,3,3.11610338309,,,,,,,,,2018_may._10_1821,60.0193912642,Experimento Piloto1,001,118,
2.5,Stim\\05_028.jpg,En28_4,Enojo,4,Jorge sustituye a Gustavo cada sábado.,Afirmación,En28,28,,,,,0,105,105,105,,,,,,,,,1,2.86440942689,3,15.712319292,,,,,,,,,2018_may._10_1821,60.0193912642,Experimento Piloto1,001,118,
0.25,Stim\\02_028.jpg,Al28_7,Alegría,7,Roberto contesta los cuestionarios solicitados.,Afirmación,Al28,28,,,,,0,106,106,106,,,,,,,,,1,3.99253740002,4,1.10015092097,,,,,,,,,2018_may._10_1821,60.0193912642,Experimento Piloto1,001,118,
0.25,Stim\\02_078.jpg,Al78_12,Alegría,12,Ana compra el libro.,Afirmación,Al78,78,,,,,0,107,107,107,,,,,,,,,1,2.77342800329,3,6.49843367064,,,,,,,,,2018_may._10_1821,60.0193912642,Experimento Piloto1,001,118,
2.5,Stim\\02_028.jpg,Al28_7,Alegría,7,Roberto contesta los cuestionarios solicitados.,Afirmación,Al28,28,,,,,0,108,108,108,,,,,,,,,1,1.82603837373,4,10.1807396823,,,,,,,,,2018_may._10_1821,60.0193912642,Experimento Piloto1,001,118,
0.25,Stim\\02_075.jpg,Al75_7,Alegría,7,Roberto contesta los cuestionarios solicitados.,Afirmación,Al75,75,,,,,0,109,109,109,,,,,,,,,1,4.93222211711,4,1.51672580936,,,,,,,,,2018_may._10_1821,60.0193912642,Experimento Piloto1,001,118,
0.25,Stim\\05_075.jpg,En75_10,Enojo,10,Laura finaliza la obra.,Afirmación,En75,75,,,,,0,110,110,110,,,,,,,,,1,2.20737665268,2,1.31671447467,,,,,,,,,2018_may._10_1821,60.0193912642,Experimento Piloto1,001,118,
2.5,Stim\\05_028.jpg,En28_8,Enojo,8,Estefanía despierta a las 7 a.m.,Afirmación,En28,28,,,,,0,111,111,111,,,,,,,,,1,1.16850312463,2,1.48329784177,,,,,,,,,2018_may._10_1821,60.0193912642,Experimento Piloto1,001,118,
0.25,Stim\\03_075.jpg,Tr75_6,Tristeza,6,Eduardo camina hacia la biblioteca.,Afirmación,Tr75,75,,,,,0,112,112,112,,,,,,,,,1,2.94918176025,4,1.48332283164,,,,,,,,,2018_may._10_1821,60.0193912642,Experimento Piloto1,001,118,
0.25,Stim\\02_078.jpg,Al78_4,Alegría,4,Jorge sustituye a Gustavo cada sábado.,Afirmación,Al78,78,,,,,0,113,113,113,,,,,,,,,1,1.46548140307,2,0.966782215068,,,,,,,,,2018_may._10_1821,60.0193912642,Experimento Piloto1,001,118,
2.5,Stim\\02_019.jpg,Al19_13,Alegría,13,Rocío consume alimentos nutritivos.,Afirmación,Al19,19,,,,,0,114,114,114,,,,,,,,,1,2.5992106771,4,2.08316004048,,,,,,,,,2018_may._10_1821,60.0193912642,Experimento Piloto1,001,118,
0.25,Stim\\02_078.jpg,Al78_15,Alegría,15,Ángel envía una carta a la abuela.,Afirmación,Al78,78,,,,,0,115,115,115,,,,,,,,,1,2.04993823932,3,6.13186842119,,,,,,,,,2018_may._10_1821,60.0193912642,Experimento Piloto1,001,118,
2.5,Stim\\05_019.jpg,En19_4,Enojo,4,Jorge sustituye a Gustavo cada sábado.,Afirmación,En19,19,,,,,0,116,116,116,,,,,,,,,1,2.61117279246,2,1.15022571208,,,,,,,,,2018_may._10_1821,60.0193912642,Experimento Piloto1,001,118,
2.5,Stim\\05_075.jpg,En75_9,Enojo,9,Marco colabora en la organización del evento.,Afirmación,En75,75,,,,,0,117,117,117,,,,,,,,,1,3.27710017546,2,1.83331711967,,,,,,,,,2018_may._10_1821,60.0193912642,Experimento Piloto1,001,118,
0.25,Stim\\05_078.jpg,En78_8,Enojo,8,Estefanía despierta a las 7 a.m.,Afirmación,En78,78,,,,,0,118,118,118,,,,,,,,,1,1.68563100315,2,2.03320484375,,,,,,,,,2018_may._10_1821,60.0193912642,Experimento Piloto1,001,118,
0.25,Stim\\03_075.jpg,Tr75_12,Tristeza,12,Ana compra el libro.,Afirmación,Tr75,75,,,,,0,119,119,119,,,,,,,,,1,1.67652174922,4,1.6832636592,,,,,,,,,2018_may._10_1821,60.0193912642,Experimento Piloto1,001,118,
0.25,Stim\\02_075.jpg,Al75_11,Alegría,11,María asiste a la cena.,Afirmación,Al75,75,,,,,,,,,0,0,0,0,,,,,,,,,1,2.69077713141,3,1.41630535479,,,,,2018_may._10_1821,60.0193912642,Experimento Piloto1,001,118,
2.5,Stim\\03_019.jpg,Tr19_9,Tristeza,9,Marco colabora en la organización del evento.,Afirmación,Tr19,19,,,,,,,,,0,1,1,1,,,,,,,,,1,2.40961833328,3,0.649903521253,,,,,2018_may._10_1821,60.0193912642,Experimento Piloto1,001,118,
2.5,Stim\\02_075.jpg,Al75_8,Alegría,8,Estefanía despierta a las 7 a.m.,Afirmación,Al75,75,,,,,,,,,0,2,2,2,,,,,,,,,1,1.21838112051,3,2.39971609722,,,,,2018_may._10_1821,60.0193912642,Experimento Piloto1,001,118,
2.5,Stim\\03_075.jpg,Tr75_13,Tristeza,13,Rocío consume alimentos nutritivos.,Afirmación,Tr75,75,,,,,,,,,0,3,3,3,,,,,,,,,1,1.78384297793,3,3.21632704243,,,,,2018_may._10_1821,60.0193912642,Experimento Piloto1,001,118,
0.25,Stim\\03_019.jpg,Tr19_15,Tristeza,15,Ángel envía una carta a la abuela.,Afirmación,Tr19,19,,,,,,,,,0,4,4,4,,,,,,,,,1,2.6007698665,3,0.916519107433,,,,,2018_may._10_1821,60.0193912642,Experimento Piloto1,001,118,
2.5,Stim\\05_075.jpg,En75_11,Enojo,11,María asiste a la cena.,Afirmación,En75,75,,,,,,,,,0,5,5,5,,,,,,,,,1,1.37424963452,2,0.966735805308,,,,,2018_may._10_1821,60.0193912642,Experimento Piloto1,001,118,
0.25,Stim\\05_028.jpg,En28_4,Enojo,4,Jorge sustituye a Gustavo cada sábado.,Afirmación,En28,28,,,,,,,,,0,6,6,6,,,,,,,,,1,1.68185128528,4,2.23314299382,,,,,2018_may._10_1821,60.0193912642,Experimento Piloto1,001,118,
2.5,Stim\\05_028.jpg,En28_9,Enojo,9,Marco colabora en la organización del evento.,Afirmación,En28,28,,,,,,,,,0,7,7,7,,,,,,,,,1,1.3235233218,2,5.71536984115,,,,,2018_may._10_1821,60.0193912642,Experimento Piloto1,001,118,
2.5,Stim\\03_075.jpg,Tr75_9,Tristeza,9,Marco colabora en la organización del evento.,Afirmación,Tr75,75,,,,,,,,,0,8,8,8,,,,,,,,,1,3.14960676654,4,1.20034602045,,,,,2018_may._10_1821,60.0193912642,Experimento Piloto1,001,118,
2.5,Stim\\05_028.jpg,En28_15,Enojo,15,Ángel envía una carta a la abuela.,Afirmación,En28,28,,,,,,,,,0,9,9,9,,,,,,,,,1,0.983586564018,2,1.05010424346,,,,,2018_may._10_1821,60.0193912642,Experimento Piloto1,001,118,
0.25,Stim\\03_078.jpg,Tr78_8,Tristeza,8,Estefanía despierta a las 7 a.m.,Afirmación,Tr78,78,,,,,,,,,0,10,10,10,,,,,,,,,1,1.33513290148,3,0.383864933321,,,,,2018_may._10_1821,60.0193912642,Experimento Piloto1,001,118,
0.25,Stim\\02_075.jpg,Al75_1,Alegría,1,Juan colecciona monedas antiguas.,Afirmación,Al75,75,,,,,,,,,0,11,11,11,,,,,,,,,1,2.25110133928,3,1.83326803242,,,,,2018_may._10_1821,60.0193912642,Experimento Piloto1,001,118,
0.25,Stim\\05_078.jpg,En78_11,Enojo,11,María asiste a la cena.,Afirmación,En78,78,,,,,,,,,0,12,12,12,,,,,,,,,1,1.94077311518,2,3.71595174813,,,,,2018_may._10_1821,60.0193912642,Experimento Piloto1,001,118,
2.5,Stim\\03_028.jpg,Tr28_15,Tristeza,15,Ángel envía una carta a la abuela.,Afirmación,Tr28,28,,,,,,,,,0,13,13,13,,,,,,,,,1,1.17966110166,3,7.83140762584,,,,,2018_may._10_1821,60.0193912642,Experimento Piloto1,001,118,
2.5,Stim\\02_019.jpg,Al19_3,Alegría,3,Andrea diseña la portada del libro.,Afirmación,Al19,19,,,,,,,,,0,14,14,14,,,,,,,,,1,2.45017555384,3,0.450354499158,,,,,2018_may._10_1821,60.0193912642,Experimento Piloto1,001,118,
2.5,Stim\\05_019.jpg,En19_5,Enojo,5,Emilio revisa el formato del archivo.,Afirmación,En19,19,,,,,,,,,0,15,15,15,,,,,,,,,1,1.58231083115,2,2.03319904253,,,,,2018_may._10_1821,60.0193912642,Experimento Piloto1,001,118,
0.25,Stim\\02_028.jpg,Al28_11,Alegría,11,María asiste a la cena.,Afirmación,Al28,28,,,,,,,,,0,16,16,16,,,,,,,,,1,1.84059541936,3,0.700225979826,,,,,2018_may._10_1821,60.0193912642,Experimento Piloto1,001,118,
0.25,Stim\\03_019.jpg,Tr19_11,Tristeza,11,María asiste a la cena.,Afirmación,Tr19,19,,,,,,,,,0,17,17,17,,,,,,,,,1,1.54974367533,3,0.383669923085,,,,,2018_may._10_1821,60.0193912642,Experimento Piloto1,001,118,
2.5,Stim\\03_078.jpg,Tr78_14,Tristeza,14,Elizabeth elige la ropa un día antes.,Afirmación,Tr78,78,,,,,,,,,0,18,18,18,,,,,,,,,1,2.76548479456,2,8.39773252628,,,,,2018_may._10_1821,60.0193912642,Experimento Piloto1,001,118,
0.25,Stim\\02_019.jpg,Al19_9,Alegría,9,Marco colabora en la organización del evento.,Afirmación,Al19,19,,,,,,,,,0,19,19,19,,,,,,,,,1,2.84335367628,3,0.550577266002,,,,,2018_may._10_1821,60.0193912642,Experimento Piloto1,001,118,
2.5,Stim\\02_075.jpg,Al75_11,Alegría,11,María asiste a la cena.,Afirmación,Al75,75,,,,,,,,,0,20,20,20,,,,,,,,,1,1.23978539056,3,0.383820308554,,,,,2018_may._10_1821,60.0193912642,Experimento Piloto1,001,118,
0.25,Stim\\02_028.jpg,Al28_4,Alegría,4,Jorge sustituye a Gustavo cada sábado.,Afirmación,Al28,28,,,,,,,,,0,21,21,21,,,,,,,,,1,1.4315014271,3,0.700218393615,,,,,2018_may._10_1821,60.0193912642,Experimento Piloto1,001,118,
2.5,Stim\\02_075.jpg,Al75_10,Alegría,10,Laura finaliza la obra.,Afirmación,Al75,75,,,,,,,,,0,22,22,22,,,,,,,,,1,1.59073821861,3,1.88350927392,,,,,2018_may._10_1821,60.0193912642,Experimento Piloto1,001,118,
0.25,Stim\\05_075.jpg,En75_4,Enojo,4,Jorge sustituye a Gustavo cada sábado.,Afirmación,En75,75,,,,,,,,,0,23,23,23,,,,,,,,,1,1.01464183269,2,0.750116470645,,,,,2018_may._10_1821,60.0193912642,Experimento Piloto1,001,118,
2.5,Stim\\02_028.jpg,Al28_11,Alegría,11,María asiste a la cena.,Afirmación,Al28,28,,,,,,,,,0,24,24,24,,,,,,,,,1,0.874788701722,3,1.61667770386,,,,,2018_may._10_1821,60.0193912642,Experimento Piloto1,001,118,
0.25,Stim\\02_078.jpg,Al78_1,Alegría,1,Juan colecciona monedas antiguas.,Afirmación,Al78,78,,,,,,,,,0,25,25,25,,,,,,,,,1,1.21762383819,3,0.916801135967,,,,,2018_may._10_1821,60.0193912642,Experimento Piloto1,001,118,
2.5,Stim\\02_019.jpg,Al19_7,Alegría,7,Roberto contesta los cuestionarios solicitados.,Afirmación,Al19,19,,,,,,,,,0,26,26,26,,,,,,,,,1,1.82634940837,4,1.26649376057,,,,,2018_may._10_1821,60.0193912642,Experimento Piloto1,001,118,
0.25,Stim\\05_028.jpg,En28_15,Enojo,15,Ángel envía una carta a la abuela.,Afirmación,En28,28,,,,,,,,,0,27,27,27,,,,,,,,,1,2.70031567561,2,0.600370028578,,,,,2018_may._10_1821,60.0193912642,Experimento Piloto1,001,118,
0.25,Stim\\03_075.jpg,Tr75_2,Tristeza,2,Jonathan pasea al perro.,Afirmación,Tr75,75,,,,,,,,,0,28,28,28,,,,,,,,,1,2.40751115173,4,0.700377704037,,,,,2018_may._10_1821,60.0193912642,Experimento Piloto1,001,118,
0.25,Stim\\05_075.jpg,En75_3,Enojo,3,Andrea diseña la portada del libro.,Afirmación,En75,75,,,,,,,,,0,29,29,29,,,,,,,,,1,1.33292129798,2,0.600321387579,,,,,2018_may._10_1821,60.0193912642,Experimento Piloto1,001,118,
2.5,Stim\\05_028.jpg,En28_10,Enojo,10,Laura finaliza la obra.,Afirmación,En28,28,,,,,,,,,0,30,30,30,,,,,,,,,1,1.12425855948,2,1.06678230432,,,,,2018_may._10_1821,60.0193912642,Experimento Piloto1,001,118,
0.25,Stim\\05_019.jpg,En19_4,Enojo,4,Jorge sustituye a Gustavo cada sábado.,Afirmación,En19,19,,,,,,,,,0,31,31,31,,,,,,,,,1,1.66125695477,2,2.04948083545,,,,,2018_may._10_1821,60.0193912642,Experimento Piloto1,001,118,
2.5,Stim\\02_078.jpg,Al78_1,Alegría,1,Juan colecciona monedas antiguas.,Afirmación,Al78,78,,,,,,,,,0,32,32,32,,,,,,,,,1,1.58523196847,3,1.15032879529,,,,,2018_may._10_1821,60.0193912642,Experimento Piloto1,001,118,
0.25,Stim\\05_075.jpg,En75_6,Enojo,6,Eduardo camina hacia la biblioteca.,Afirmación,En75,75,,,,,,,,,0,33,33,33,,,,,,,,,1,1.95064723764,2,1.25027354983,,,,,2018_may._10_1821,60.0193912642,Experimento Piloto1,001,118,
2.5,Stim\\02_019.jpg,Al19_12,Alegría,12,Ana compra el libro.,Afirmación,Al19,19,,,,,,,,,0,34,34,34,,,,,,,,,1,1.39277783827,4,1.31651143197,,,,,2018_may._10_1821,60.0193912642,Experimento Piloto1,001,118,
0.25,Stim\\05_075.jpg,En75_8,Enojo,8,Estefanía despierta a las 7 a.m.,Afirmación,En75,75,,,,,,,,,0,35,35,35,,,,,,,,,1,1.38536209429,2,0.533780949509,,,,,2018_may._10_1821,60.0193912642,Experimento Piloto1,001,118,
2.5,Stim\\03_028.jpg,Tr28_4,Tristeza,4,Jorge sustituye a Gustavo cada sábado.,Afirmación,Tr28,28,,,,,,,,,0,36,36,36,,,,,,,,,1,1.84787550404,4,1.00030478717,,,,,2018_may._10_1821,60.0193912642,Experimento Piloto1,001,118,
0.25,Stim\\03_078.jpg,Tr78_12,Tristeza,12,Ana compra el libro.,Afirmación,Tr78,78,,,,,,,,,0,37,37,37,,,,,,,,,1,2.30716298929,4,0.916826572085,,,,,2018_may._10_1821,60.0193912642,Experimento Piloto1,001,118,
2.5,Stim\\03_019.jpg,Tr19_3,Tristeza,3,Andrea diseña la portada del libro.,Afirmación,Tr19,19,,,,,,,,,0,38,38,38,,,,,,,,,1,1.68311595121,3,1.56668502232,,,,,2018_may._10_1821,60.0193912642,Experimento Piloto1,001,118,
2.5,Stim\\05_075.jpg,En75_4,Enojo,4,Jorge sustituye a Gustavo cada sábado.,Afirmación,En75,75,,,,,,,,,0,39,39,39,,,,,,,,,1,1.2316453866,2,1.21675677895,,,,,2018_may._10_1821,60.0193912642,Experimento Piloto1,001,118,
0.25,Stim\\05_078.jpg,En78_6,Enojo,6,Eduardo camina hacia la biblioteca.,Afirmación,En78,78,,,,,,,,,0,40,40,40,,,,,,,,,1,1.46666128195,2,0.650445265936,,,,,2018_may._10_1821,60.0193912642,Experimento Piloto1,001,118,
0.25,Stim\\03_078.jpg,Tr78_3,Tristeza,3,Andrea diseña la portada del libro.,Afirmación,Tr78,78,,,,,,,,,0,41,41,41,,,,,,,,,1,1.58112425856,3,0.449960016207,,,,,2018_may._10_1821,60.0193912642,Experimento Piloto1,001,118,
0.25,Stim\\05_078.jpg,En78_15,Enojo,15,Ángel envía una carta a la abuela.,Afirmación,En78,78,,,,,,,,,0,42,42,42,,,,,,,,,1,2.0317799749,2,0.650229728306,,,,,2018_may._10_1821,60.0193912642,Experimento Piloto1,001,118,
2.5,Stim\\05_078.jpg,En78_2,Enojo,2,Jonathan pasea al perro.,Afirmación,En78,78,,,,,,,,,0,43,43,43,,,,,,,,,1,1.89016550434,2,0.600320495085,,,,,2018_may._10_1821,60.0193912642,Experimento Piloto1,001,118,
2.5,Stim\\02_078.jpg,Al78_4,Alegría,4,Jorge sustituye a Gustavo cada sábado.,Afirmación,Al78,78,,,,,,,,,0,44,44,44,,,,,,,,,1,2.09841590998,4,1.83321626769,,,,,2018_may._10_1821,60.0193912642,Experimento Piloto1,001,118,
2.5,Stim\\05_078.jpg,En78_4,Enojo,4,Jorge sustituye a Gustavo cada sábado.,Afirmación,En78,78,,,,,,,,,0,45,45,45,,,,,,,,,1,1.24972823516,2,0.533755959637,,,,,2018_may._10_1821,60.0193912642,Experimento Piloto1,001,118,
0.25,Stim\\05_019.jpg,En19_9,Enojo,9,Marco colabora en la organización del evento.,Afirmación,En19,19,,,,,,,,,0,46,46,46,,,,,,,,,1,1.94422216351,2,0.383718564082,,,,,2018_may._10_1821,60.0193912642,Experimento Piloto1,001,118,
0.25,Stim\\05_019.jpg,En19_15,Enojo,15,Ángel envía una carta a la abuela.,Afirmación,En19,19,,,,,,,,,0,47,47,47,,,,,,,,,1,1.43440783825,2,1.26673027184,,,,,2018_may._10_1821,60.0193912642,Experimento Piloto1,001,118,
2.5,Stim\\02_028.jpg,Al28_2,Alegría,2,Jonathan pasea al perro.,Afirmación,Al28,28,,,,,,,,,0,48,48,48,,,,,,,,,1,1.0742645392,4,1.88316387821,,,,,2018_may._10_1821,60.0193912642,Experimento Piloto1,001,118,
0.25,Stim\\03_075.jpg,Tr75_1,Tristeza,1,Juan colecciona monedas antiguas.,Afirmación,Tr75,75,,,,,,,,,0,49,49,49,,,,,,,,,1,1.68447879163,3,1.36666922515,,,,,2018_may._10_1821,60.0193912642,Experimento Piloto1,001,118,
2.5,Stim\\02_028.jpg,Al28_12,Alegría,12,Ana compra el libro.,Afirmación,Al28,28,,,,,,,,,0,50,50,50,,,,,,,,,1,1.12513052745,3,0.85014824348,,,,,2018_may._10_1821,60.0193912642,Experimento Piloto1,001,118,
0.25,Stim\\05_019.jpg,En19_5,Enojo,5,Emilio revisa el formato del archivo.,Afirmación,En19,19,,,,,,,,,0,51,51,51,,,,,,,,,1,1.28205932595,2,1.71654972002,,,,,2018_may._10_1821,60.0193912642,Experimento Piloto1,001,118,
0.25,Stim\\02_075.jpg,Al75_9,Alegría,9,Marco colabora en la organización del evento.,Afirmación,Al75,75,,,,,,,,,0,52,52,52,,,,,,,,,1,1.82785638679,4,0.800313533622,,,,,2018_may._10_1821,60.0193912642,Experimento Piloto1,001,118,
2.5,Stim\\03_019.jpg,Tr19_12,Tristeza,12,Ana compra el libro.,Afirmación,Tr19,19,,,,,,,,,0,53,53,53,,,,,,,,,1,0.942538024765,3,2.13316298572,,,,,2018_may._10_1821,60.0193912642,Experimento Piloto1,001,118,
2.5,Stim\\02_019.jpg,Al19_4,Alegría,4,Jorge sustituye a Gustavo cada sábado.,Afirmación,Al19,19,,,,,,,,,0,54,54,54,,,,,,,,,1,2.29745531722,4,1.26674053553,,,,,2018_may._10_1821,60.0193912642,Experimento Piloto1,001,118,
0.25,Stim\\02_019.jpg,Al19_12,Alegría,12,Ana compra el libro.,Afirmación,Al19,19,,,,,,,,,0,55,55,55,,,,,,,,,1,2.75937343255,3,1.88307507492,,,,,2018_may._10_1821,60.0193912642,Experimento Piloto1,001,118,
2.5,Stim\\02_078.jpg,Al78_7,Alegría,7,Roberto contesta los cuestionarios solicitados.,Afirmación,Al78,78,,,,,,,,,0,56,56,56,,,,,,,,,1,3.94183786215,4,1.26673071808,,,,,2018_may._10_1821,60.0193912642,Experimento Piloto1,001,118,
2.5,Stim\\03_078.jpg,Tr78_13,Tristeza,13,Rocío consume alimentos nutritivos.,Afirmación,Tr78,78,,,,,,,,,0,57,57,57,,,,,,,,,1,1.2667851603,3,0.350453030645,,,,,2018_may._10_1821,60.0193912642,Experimento Piloto1,001,118,
2.5,Stim\\02_075.jpg,Al75_9,Alegría,9,Marco colabora en la organización del evento.,Afirmación,Al75,75,,,,,,,,,0,58,58,58,,,,,,,,,1,1.87809584329,4,1.36674821099,,,,,2018_may._10_1821,60.0193912642,Experimento Piloto1,001,118,
0.25,Stim\\02_028.jpg,Al28_5,Alegría,5,Emilio revisa el formato del archivo.,Afirmación,Al28,28,,,,,,,,,0,59,59,59,,,,,,,,,1,1.43249655943,4,1.36679238951,,,,,2018_may._10_1821,60.0193912642,Experimento Piloto1,001,118,
2.5,Stim\\03_028.jpg,Tr28_7,Tristeza,7,Roberto contesta los cuestionarios solicitados.,Afirmación,Tr28,28,,,,,,,,,0,60,60,60,,,,,,,,,1,1.67627899048,2,0.650369850078,,,,,2018_may._10_1821,60.0193912642,Experimento Piloto1,001,118,
0.25,Stim\\05_078.jpg,En78_7,Enojo,7,Roberto contesta los cuestionarios solicitados.,Afirmación,En78,78,,,,,,,,,0,61,61,61,,,,,,,,,1,1.80002347263,2,0.550174750591,,,,,2018_may._10_1821,60.0193912642,Experimento Piloto1,001,118,
2.5,Stim\\03_028.jpg,Tr28_5,Tristeza,5,Emilio revisa el formato del archivo.,Afirmación,Tr28,28,,,,,,,,,0,62,62,62,,,,,,,,,1,1.73066051797,4,2.14956749675,,,,,2018_may._10_1821,60.0193912642,Experimento Piloto1,001,118,
0.25,Stim\\02_019.jpg,Al19_13,Alegría,13,Rocío consume alimentos nutritivos.,Afirmación,Al19,19,,,,,,,,,0,63,63,63,,,,,,,,,1,2.38369803669,4,1.68325071801,,,,,2018_may._10_1821,60.0193912642,Experimento Piloto1,001,118,
2.5,Stim\\05_019.jpg,En19_13,Enojo,13,Rocío consume alimentos nutritivos.,Afirmación,En19,19,,,,,,,,,0,64,64,64,,,,,,,,,1,2.316457436,2,0.650465793331,,,,,2018_may._10_1821,60.0193912642,Experimento Piloto1,001,118,
2.5,Stim\\03_078.jpg,Tr78_4,Tristeza,4,Jorge sustituye a Gustavo cada sábado.,Afirmación,Tr78,78,,,,,,,,,0,65,65,65,,,,,,,,,1,1.63098261954,4,0.650159221173,,,,,2018_may._10_1821,60.0193912642,Experimento Piloto1,001,118,
0.25,Stim\\05_028.jpg,En28_13,Enojo,13,Rocío consume alimentos nutritivos.,Afirmación,En28,28,,,,,,,,,0,66,66,66,,,,,,,,,1,1.88274172791,2,0.55033093728,,,,,2018_may._10_1821,60.0193912642,Experimento Piloto1,001,118,
0.25,Stim\\02_075.jpg,Al75_4,Alegría,4,Jorge sustituye a Gustavo cada sábado.,Afirmación,Al75,75,,,,,,,,,0,67,67,67,,,,,,,,,1,2.7138017268,4,1.0502216066,,,,,2018_may._10_1821,60.0193912642,Experimento Piloto1,001,118,
0.25,Stim\\03_019.jpg,Tr19_14,Tristeza,14,Elizabeth elige la ropa un día antes.,Afirmación,Tr19,19,,,,,,,,,0,68,68,68,,,,,,,,,1,1.73170652253,3,0.750403407905,,,,,2018_may._10_1821,60.0193912642,Experimento Piloto1,001,118,
2.5,Stim\\02_075.jpg,Al75_4,Alegría,4,Jorge sustituye a Gustavo cada sábado.,Afirmación,Al75,75,,,,,,,,,0,69,69,69,,,,,,,,,1,1.43164511886,4,0.500305233414,,,,,2018_may._10_1821,60.0193912642,Experimento Piloto1,001,118,
2.5,Stim\\05_078.jpg,En78_7,Enojo,7,Roberto contesta los cuestionarios solicitados.,Afirmación,En78,78,,,,,,,,,0,70,70,70,,,,,,,,,1,5.10824139144,2,0.816914839877,,,,,2018_may._10_1821,60.0193912642,Experimento Piloto1,001,118,
2.5,Stim\\05_028.jpg,En28_6,Enojo,6,Eduardo camina hacia la biblioteca.,Afirmación,En28,28,,,,,,,,,0,71,71,71,,,,,,,,,1,1.73398238571,2,0.70028309953,,,,,2018_may._10_1821,60.0193912642,Experimento Piloto1,001,118,
2.5,Stim\\05_028.jpg,En28_7,Enojo,7,Roberto contesta los cuestionarios solicitados.,Afirmación,En28,28,,,,,,,,,0,72,72,72,,,,,,,,,1,1.47604676319,2,0.750133428057,,,,,2018_may._10_1821,60.0193912642,Experimento Piloto1,001,118,
2.5,Stim\\03_028.jpg,Tr28_14,Tristeza,14,Elizabeth elige la ropa un día antes.,Afirmación,Tr28,28,,,,,,,,,0,73,73,73,,,,,,,,,1,1.53153186119,4,6.69843429538,,,,,2018_may._10_1821,60.0193912642,Experimento Piloto1,001,118,
2.5,Stim\\02_019.jpg,Al19_11,Alegría,11,María asiste a la cena.,Afirmación,Al19,19,,,,,,,,,0,74,74,74,,,,,,,,,1,1.07513159844,4,0.817259343088,,,,,2018_may._10_1821,60.0193912642,Experimento Piloto1,001,118,
0.25,Stim\\05_028.jpg,En28_7,Enojo,7,Roberto contesta los cuestionarios solicitados.,Afirmación,En28,28,,,,,,,,,0,75,75,75,,,,,,,,,1,1.40948847521,2,0.450315229362,,,,,2018_may._10_1821,60.0193912642,Experimento Piloto1,001,118,
0.25,Stim\\05_078.jpg,En78_13,Enojo,13,Rocío consume alimentos nutritivos.,Afirmación,En78,78,,,,,,,,,0,76,76,76,,,,,,,,,1,1.1666404868,2,0.600298182702,,,,,2018_may._10_1821,60.0193912642,Experimento Piloto1,001,118,
0.25,Stim\\03_028.jpg,Tr28_14,Tristeza,14,Elizabeth elige la ropa un día antes.,Afirmación,Tr28,28,,,,,,,,,0,77,77,77,,,,,,,,,1,2.13120752838,4,1.48295601604,,,,,2018_may._10_1821,60.0193912642,Experimento Piloto1,001,118,
2.5,Stim\\03_075.jpg,Tr75_14,Tristeza,14,Elizabeth elige la ropa un día antes.,Afirmación,Tr75,75,,,,,,,,,0,78,78,78,,,,,,,,,1,1.43337522112,4,1.93315432851,,,,,2018_may._10_1821,60.0193912642,Experimento Piloto1,001,118,
0.25,Stim\\05_019.jpg,En19_10,Enojo,10,Laura finaliza la obra.,Afirmación,En19,19,,,,,,,,,0,79,79,79,,,,,,,,,1,2.67435923295,2,1.05027471007,,,,,2018_may._10_1821,60.0193912642,Experimento Piloto1,001,118,
0.25,Stim\\05_078.jpg,En78_9,Enojo,9,Marco colabora en la organización del evento.,Afirmación,En78,78,,,,,,,,,0,80,80,80,,,,,,,,,1,1.3095870067,2,0.450470077309,,,,,2018_may._10_1821,60.0193912642,Experimento Piloto1,001,118,
0.25,Stim\\02_028.jpg,Al28_6,Alegría,6,Eduardo camina hacia la biblioteca.,Afirmación,Al28,28,,,,,,,,,0,81,81,81,,,,,,,,,1,2.29523166502,3,0.80028497377,,,,,2018_may._10_1821,60.0193912642,Experimento Piloto1,001,118,
0.25,Stim\\05_078.jpg,En78_12,Enojo,12,Ana compra el libro.,Afirmación,En78,78,,,,,,,,,0,82,82,82,,,,,,,,,1,2.82529224761,2,0.850096924996,,,,,2018_may._10_1821,60.0193912642,Experimento Piloto1,001,118,
2.5,Stim\\05_075.jpg,En75_1,Enojo,1,Juan colecciona monedas antiguas.,Afirmación,En75,75,,,,,,,,,0,83,83,83,,,,,,,,,1,1.23514396843,3,1.66654097357,,,,,2018_may._10_1821,60.0193912642,Experimento Piloto1,001,118,
0.25,Stim\\03_019.jpg,Tr19_13,Tristeza,13,Rocío consume alimentos nutritivos.,Afirmación,Tr19,19,,,,,,,,,0,84,84,84,,,,,,,,,1,1.93400621534,3,0.350323172572,,,,,2018_may._10_1821,60.0193912642,Experimento Piloto1,001,118,
2.5,Stim\\03_078.jpg,Tr78_11,Tristeza,11,María asiste a la cena.,Afirmación,Tr78,78,,,,,,,,,0,85,85,85,,,,,,,,,1,1.12412513142,3,0.350399480923,,,,,2018_may._10_1821,60.0193912642,Experimento Piloto1,001,118,
2.5,Stim\\05_019.jpg,En19_1,Enojo,1,Juan colecciona monedas antiguas.,Afirmación,En19,19,,,,,,,,,0,86,86,86,,,,,,,,,1,2.96532834012,4,4.18259027144,,,,,2018_may._10_1821,60.0193912642,Experimento Piloto1,001,118,
0.25,Stim\\02_075.jpg,Al75_10,Alegría,10,Laura finaliza la obra.,Afirmación,Al75,75,,,,,,,,,0,87,87,87,,,,,,,,,1,1.44079185759,3,1.00012718059,,,,,2018_may._10_1821,60.0193912642,Experimento Piloto1,001,118,
2.5,Stim\\02_019.jpg,Al19_14,Alegría,14,Elizabeth elige la ropa un día antes.,Afirmación,Al19,19,,,,,,,,,0,88,88,88,,,,,,,,,1,1.53184334207,4,0.500367708089,,,,,2018_may._10_1821,60.0193912642,Experimento Piloto1,001,118,
0.25,Stim\\03_028.jpg,Tr28_6,Tristeza,6,Eduardo camina hacia la biblioteca.,Afirmación,Tr28,28,,,,,,,,,0,89,89,89,,,,,,,,,1,1.48305731427,4,4.43238499751,,,,,2018_may._10_1821,60.0193912642,Experimento Piloto1,001,118,
0.25,Stim\\02_075.jpg,Al75_8,Alegría,8,Estefanía despierta a las 7 a.m.,Afirmación,Al75,75,,,,,,,,,0,90,90,90,,,,,,,,,1,1.93492057684,3,0.250285152268,,,,,2018_may._10_1821,60.0193912642,Experimento Piloto1,001,118,
2.5,Stim\\02_019.jpg,Al19_6,Alegría,6,Eduardo camina hacia la biblioteca.,Afirmación,Al19,19,,,,,,,,,0,91,91,91,,,,,,,,,1,3.93192179242,3,3.31620262858,,,,,2018_may._10_1821,60.0193912642,Experimento Piloto1,001,118,
2.5,Stim\\03_078.jpg,Tr78_7,Tristeza,7,Roberto contesta los cuestionarios solicitados.,Afirmación,Tr78,78,,,,,,,,,0,92,92,92,,,,,,,,,1,1.74359902325,4,0.800193046747,,,,,2018_may._10_1821,60.0193912642,Experimento Piloto1,001,118,
2.5,Stim\\02_028.jpg,Al28_8,Alegría,8,Estefanía despierta a las 7 a.m.,Afirmación,Al28,28,,,,,,,,,0,93,93,93,,,,,,,,,1,1.73519751815,4,0.450303180676,,,,,2018_may._10_1821,60.0193912642,Experimento Piloto1,001,118,
0.25,Stim\\03_075.jpg,Tr75_13,Tristeza,13,Rocío consume alimentos nutritivos.,Afirmación,Tr75,75,,,,,,,,,0,94,94,94,,,,,,,,,1,1.41654231231,4,4.59913079877,,,,,2018_may._10_1821,60.0193912642,Experimento Piloto1,001,118,
2.5,Stim\\02_075.jpg,Al75_6,Alegría,6,Eduardo camina hacia la biblioteca.,Afirmación,Al75,75,,,,,,,,,0,95,95,95,,,,,,,,,1,5.1828874724,4,1.61671384992,,,,,2018_may._10_1821,60.0193912642,Experimento Piloto1,001,118,
0.25,Stim\\02_028.jpg,Al28_9,Alegría,9,Marco colabora en la organización del evento.,Afirmación,Al28,28,,,,,,,,,0,96,96,96,,,,,,,,,1,2.09337331118,3,0.900247131967,,,,,2018_may._10_1821,60.0193912642,Experimento Piloto1,001,118,
0.25,Stim\\02_019.jpg,Al19_8,Alegría,8,Estefanía despierta a las 7 a.m.,Afirmación,Al19,19,,,,,,,,,0,97,97,97,,,,,,,,,1,1.26886824448,3,1.68327615413,,,,,2018_may._10_1821,60.0193912642,Experimento Piloto1,001,118,
2.5,Stim\\02_019.jpg,Al19_1,Alegría,1,Juan colecciona monedas antiguas.,Afirmación,Al19,19,,,,,,,,,0,98,98,98,,,,,,,,,1,1.26888966437,3,0.450398231433,,,,,2018_may._10_1821,60.0193912642,Experimento Piloto1,001,118,
0.25,Stim\\02_019.jpg,Al19_5,Alegría,5,Emilio revisa el formato del archivo.,Afirmación,Al19,19,,,,,,,,,0,99,99,99,,,,,,,,,1,1.68089140652,3,0.35000365923,,,,,2018_may._10_1821,60.0193912642,Experimento Piloto1,001,118,
2.5,Stim\\02_078.jpg,Al78_13,Alegría,13,Rocío consume alimentos nutritivos.,Afirmación,Al78,78,,,,,,,,,0,100,100,100,,,,,,,,,1,1.36660675048,3,1.83315379302,,,,,2018_may._10_1821,60.0193912642,Experimento Piloto1,001,118,
2.5,Stim\\05_078.jpg,En78_12,Enojo,12,Ana compra el libro.,Afirmación,En78,78,,,,,,,,,0,101,101,101,,,,,,,,,1,2.20877430042,2,1.16669760651,,,,,2018_may._10_1821,60.0193912642,Experimento Piloto1,001,118,
2.5,Stim\\03_075.jpg,Tr75_11,Tristeza,11,María asiste a la cena.,Afirmación,Tr75,75,,,,,,,,,0,102,102,102,,,,,,,,,1,1.22421134647,3,0.75041010162,,,,,2018_may._10_1821,60.0193912642,Experimento Piloto1,001,118,
0.25,Stim\\02_078.jpg,Al78_13,Alegría,13,Rocío consume alimentos nutritivos.,Afirmación,Al78,78,,,,,,,,,0,103,103,103,,,,,,,,,1,2.4494218415,3,2.39967771992,,,,,2018_may._10_1821,60.0193912642,Experimento Piloto1,001,118,
0.25,Stim\\03_075.jpg,Tr75_11,Tristeza,11,María asiste a la cena.,Afirmación,Tr75,75,,,,,,,,,0,104,104,104,,,,,,,,,1,1.84112779284,3,0.249903164253,,,,,2018_may._10_1821,60.0193912642,Experimento Piloto1,001,118,
2.5,Stim\\05_075.jpg,En75_8,Enojo,8,Estefanía despierta a las 7 a.m.,Afirmación,En75,75,,,,,,,,,0,105,105,105,,,,,,,,,1,1.31946559163,2,0.750368154337,,,,,2018_may._10_1821,60.0193912642,Experimento Piloto1,001,118,
2.5,Stim\\03_078.jpg,Tr78_2,Tristeza,2,Jonathan pasea al perro.,Afirmación,Tr78,78,,,,,,,,,0,106,106,106,,,,,,,,,1,1.33719233454,4,1.46669876675,,,,,2018_may._10_1821,60.0193912642,Experimento Piloto1,001,118,
2.5,Stim\\03_078.jpg,Tr78_12,Tristeza,12,Ana compra el libro.,Afirmación,Tr78,78,,,,,,,,,0,107,107,107,,,,,,,,,1,0.874743184459,4,1.16682255586,,,,,2018_may._10_1821,60.0193912642,Experimento Piloto1,001,118,
2.5,Stim\\05_019.jpg,En19_10,Enojo,10,Laura finaliza la obra.,Afirmación,En19,19,,,,,,,,,0,108,108,108,,,,,,,,,1,2.15780835269,2,0.900275691818,,,,,2018_may._10_1821,60.0193912642,Experimento Piloto1,001,118,
2.5,Stim\\05_078.jpg,En78_15,Enojo,15,Ángel envía una carta a la abuela.,Afirmación,En78,78,,,,,,,,,0,109,109,109,,,,,,,,,1,1.84991797968,2,0.383825217277,,,,,2018_may._10_1821,60.0193912642,Experimento Piloto1,001,118,
0.25,Stim\\02_028.jpg,Al28_15,Alegría,15,Ángel envía una carta a la abuela.,Afirmación,Al28,28,,,,,,,,,0,110,110,110,,,,,,,,,1,2.31655962672,4,1.63341288442,,,,,2018_may._10_1821,60.0193912642,Experimento Piloto1,001,118,
2.5,Stim\\02_075.jpg,Al75_13,Alegría,13,Rocío consume alimentos nutritivos.,Afirmación,Al75,75,,,,,,,,,0,111,111,111,,,,,,,,,1,1.26523266462,3,0.450336203003,,,,,2018_may._10_1821,60.0193912642,Experimento Piloto1,001,118,
2.5,Stim\\02_078.jpg,Al78_5,Alegría,5,Emilio revisa el formato del archivo.,Afirmación,Al78,78,,,,,,,,,0,112,112,112,,,,,,,,,1,3.33198239285,3,4.33255849861,,,,,2018_may._10_1821,60.0193912642,Experimento Piloto1,001,118,
2.5,Stim\\05_019.jpg,En19_12,Enojo,12,Ana compra el libro.,Afirmación,En19,19,,,,,,,,,0,113,113,113,,,,,,,,,1,1.59254909171,2,0.400322994074,,,,,2018_may._10_1821,60.0193912642,Experimento Piloto1,001,118,
2.5,Stim\\03_028.jpg,Tr28_13,Tristeza,13,Rocío consume alimentos nutritivos.,Afirmación,Tr28,28,,,,,,,,,0,114,114,114,,,,,,,,,1,1.38361101839,3,1.76680211771,,,,,2018_may._10_1821,60.0193912642,Experimento Piloto1,001,118,
2.5,Stim\\02_075.jpg,Al75_1,Alegría,1,Juan colecciona monedas antiguas.,Afirmación,Al75,75,,,,,,,,,0,115,115,115,,,,,,,,,1,1.75155874315,3,0.433800941404,,,,,2018_may._10_1821,60.0193912642,Experimento Piloto1,001,118,
2.5,Stim\\02_028.jpg,Al28_3,Alegría,3,Andrea diseña la portada del libro.,Afirmación,Al28,28,,,,,,,,,0,116,116,116,,,,,,,,,1,1.43327124541,4,0.800266231367,,,,,2018_may._10_1821,60.0193912642,Experimento Piloto1,001,118,
0.25,Stim\\05_028.jpg,En28_10,Enojo,10,Laura finaliza la obra.,Afirmación,En28,28,,,,,,,,,0,117,117,117,,,,,,,,,1,1.79161170383,2,0.550359497132,,,,,2018_may._10_1821,60.0193912642,Experimento Piloto1,001,118,
0.25,Stim\\02_078.jpg,Al78_3,Alegría,3,Andrea diseña la portada del libro.,Afirmación,Al78,78,,,,,,,,,0,118,118,118,,,,,,,,,1,1.83423237366,4,0.600301752682,,,,,2018_may._10_1821,60.0193912642,Experimento Piloto1,001,118,
2.5,Stim\\03_075.jpg,Tr75_15,Tristeza,15,Ángel envía una carta a la abuela.,Afirmación,Tr75,75,,,,,,,,,0,119,119,119,,,,,,,,,1,2.56730486035,4,0.850335221257,,,,,2018_may._10_1821,60.0193912642,Experimento Piloto1,001,118,
2.5,Stim\\03_028.jpg,Tr28_1,Tristeza,1,Juan colecciona monedas antiguas.,Afirmación,Tr28,28,,,,,,,,,,,,,0,0,0,0,,,,,,,,,1,3.15148011431,2,12.6465432762,2018_may._10_1821,60.0193912642,Experimento Piloto1,001,118,
0.25,Stim\\03_019.jpg,Tr19_1,Tristeza,1,Juan colecciona monedas antiguas.,Afirmación,Tr19,19,,,,,,,,,,,,,0,1,1,1,,,,,,,,,1,1.94996135495,3,0.400210539656,2018_may._10_1821,60.0193912642,Experimento Piloto1,001,118,
2.5,Stim\\03_078.jpg,Tr78_10,Tristeza,10,Laura finaliza la obra.,Afirmación,Tr78,78,,,,,,,,,,,,,0,2,2,2,,,,,,,,,1,3.22425864873,3,1.11675222722,2018_may._10_1821,60.0193912642,Experimento Piloto1,001,118,
0.25,Stim\\02_075.jpg,Al75_5,Alegría,5,Emilio revisa el formato del archivo.,Afirmación,Al75,75,,,,,,,,,,,,,0,3,3,3,,,,,,,,,1,1.31587195904,4,0.699864072956,2018_may._10_1821,60.0193912642,Experimento Piloto1,001,118,
0.25,Stim\\02_019.jpg,Al19_15,Alegría,15,Ángel envía una carta a la abuela.,Afirmación,Al19,19,,,,,,,,,,,,,0,4,4,4,,,,,,,,,1,1.90087277122,3,0.533596202968,2018_may._10_1821,60.0193912642,Experimento Piloto1,001,118,
2.5,Stim\\02_075.jpg,Al75_7,Alegría,7,Roberto contesta los cuestionarios solicitados.,Afirmación,Al75,75,,,,,,,,,,,,,0,5,5,5,,,,,,,,,1,3.12571957439,4,0.550317103602,2018_may._10_1821,60.0193912642,Experimento Piloto1,001,118,
0.25,Stim\\03_075.jpg,Tr75_8,Tristeza,8,Estefanía despierta a las 7 a.m.,Afirmación,Tr75,75,,,,,,,,,,,,,0,6,6,6,,,,,,,,,1,2.2855543378,3,0.450213931139,2018_may._10_1821,60.0193912642,Experimento Piloto1,001,118,
0.25,Stim\\02_019.jpg,Al19_11,Alegría,11,María asiste a la cena.,Afirmación,Al19,19,,,,,,,,,,,,,0,7,7,7,,,,,,,,,1,1.89061933823,3,1.21675410146,2018_may._10_1821,60.0193912642,Experimento Piloto1,001,118,
2.5,Stim\\02_019.jpg,Al19_2,Alegría,2,Jonathan pasea al perro.,Afirmación,Al19,19,,,,,,,,,,,,,0,8,8,8,,,,,,,,,1,1.38979065629,4,1.11685352545,2018_may._10_1821,60.0193912642,Experimento Piloto1,001,118,
2.5,Stim\\05_075.jpg,En75_5,Enojo,5,Emilio revisa el formato del archivo.,Afirmación,En75,75,,,,,,,,,,,,,0,9,9,9,,,,,,,,,1,1.73151820601,2,0.900059707939,2018_may._10_1821,60.0193912642,Experimento Piloto1,001,118,
0.25,Stim\\03_078.jpg,Tr78_10,Tristeza,10,Laura finaliza la obra.,Afirmación,Tr78,78,,,,,,,,,,,,,0,10,10,10,,,,,,,,,1,2.60735960602,3,7.78155461982,2018_may._10_1821,60.0193912642,Experimento Piloto1,001,118,
0.25,Stim\\02_019.jpg,Al19_6,Alegría,6,Eduardo camina hacia la biblioteca.,Afirmación,Al19,19,,,,,,,,,,,,,0,11,11,11,,,,,,,,,1,1.93378978521,4,5.2655142469,2018_may._10_1821,60.0193912642,Experimento Piloto1,001,118,
2.5,Stim\\05_019.jpg,En19_3,Enojo,3,Andrea diseña la portada del libro.,Afirmación,En19,19,,,,,,,,,,,,,0,12,12,12,,,,,,,,,1,1.33374551744,2,0.849991164296,2018_may._10_1821,60.0193912642,Experimento Piloto1,001,118,
0.25,Stim\\05_019.jpg,En19_3,Enojo,3,Andrea diseña la portada del libro.,Afirmación,En19,19,,,,,,,,,,,,,0,13,13,13,,,,,,,,,1,2.16650572,2,0.650274799322,2018_may._10_1821,60.0193912642,Experimento Piloto1,001,118,
2.5,Stim\\02_028.jpg,Al28_1,Alegría,1,Juan colecciona monedas antiguas.,Afirmación,Al28,28,,,,,,,,,,,,,0,14,14,14,,,,,,,,,1,1.26782000867,4,3.68254073795,2018_may._10_1821,60.0193912642,Experimento Piloto1,001,118,
0.25,Stim\\02_019.jpg,Al19_2,Alegría,2,Jonathan pasea al perro.,Afirmación,Al19,19,,,,,,,,,,,,,0,15,15,15,,,,,,,,,1,1.54087004018,4,0.483744981944,2018_may._10_1821,60.0193912642,Experimento Piloto1,001,118,
0.25,Stim\\05_028.jpg,En28_11,Enojo,11,María asiste a la cena.,Afirmación,En28,28,,,,,,,,,,,,,0,16,16,16,,,,,,,,,1,1.02482431229,2,16.0294496695,2018_may._10_1821,60.0193912642,Experimento Piloto1,001,118,
0.25,Stim\\03_028.jpg,Tr28_1,Tristeza,1,Juan colecciona monedas antiguas.,Afirmación,Tr28,28,,,,,,,,,,,,,0,17,17,17,,,,,,,,,1,1.48506275135,3,7.36484764212,2018_may._10_1821,60.0193912642,Experimento Piloto1,001,118,
0.25,Stim\\03_078.jpg,Tr78_1,Tristeza,1,Juan colecciona monedas antiguas.,Afirmación,Tr78,78,,,,,,,,,,,,,0,18,18,18,,,,,,,,,1,1.33329079106,3,1.93306463273,2018_may._10_1821,60.0193912642,Experimento Piloto1,001,118,
0.25,Stim\\02_019.jpg,Al19_1,Alegría,1,Juan colecciona monedas antiguas.,Afirmación,Al19,19,,,,,,,,,,,,,0,19,19,19,,,,,,,,,1,1.33353444229,3,1.78320038127,2018_may._10_1821,60.0193912642,Experimento Piloto1,001,118,
0.25,Stim\\02_019.jpg,Al19_10,Alegría,10,Laura finaliza la obra.,Afirmación,Al19,19,,,,,,,,,,,,,0,20,20,20,,,,,,,,,1,1.22464599172,4,4.49902048634,2018_may._10_1821,60.0193912642,Experimento Piloto1,001,118,
2.5,Stim\\03_019.jpg,Tr19_13,Tristeza,13,Rocío consume alimentos nutritivos.,Afirmación,Tr19,19,,,,,,,,,,,,,0,21,21,21,,,,,,,,,1,1.9506450064,3,0.33361298188,2018_may._10_1821,60.0193912642,Experimento Piloto1,001,118,
2.5,Stim\\05_075.jpg,En75_6,Enojo,6,Eduardo camina hacia la biblioteca.,Afirmación,En75,75,,,,,,,,,,,,,0,22,22,22,,,,,,,,,1,2.7666887708,2,0.650182872301,2018_may._10_1821,60.0193912642,Experimento Piloto1,001,118,
0.25,Stim\\05_078.jpg,En78_10,Enojo,10,Laura finaliza la obra.,Afirmación,En78,78,,,,,,,,,,,,,0,23,23,23,,,,,,,,,1,1.7411361823,2,2.4997313589,2018_may._10_1821,60.0193912642,Experimento Piloto1,001,118,
2.5,Stim\\05_075.jpg,En75_14,Enojo,14,Elizabeth elige la ropa un día antes.,Afirmación,En75,75,,,,,,,,,,,,,0,24,24,24,,,,,,,,,1,2.86459997465,2,2.84946726952,2018_may._10_1821,60.0193912642,Experimento Piloto1,001,118,
0.25,Stim\\05_019.jpg,En19_7,Enojo,7,Roberto contesta los cuestionarios solicitados.,Afirmación,En19,19,,,,,,,,,,,,,0,25,25,25,,,,,,,,,1,2.95998229289,2,1.76658970382,2018_may._10_1821,60.0193912642,Experimento Piloto1,001,118,
0.25,Stim\\02_078.jpg,Al78_14,Alegría,14,Elizabeth elige la ropa un día antes.,Afirmación,Al78,78,,,,,,,,,,,,,0,26,26,26,,,,,,,,,1,2.34786747158,4,0.96647162668,2018_may._10_1821,60.0193912642,Experimento Piloto1,001,118,
0.25,Stim\\03_028.jpg,Tr28_13,Tristeza,13,Rocío consume alimentos nutritivos.,Afirmación,Tr28,28,,,,,,,,,,,,,0,27,27,27,,,,,,,,,1,1.41578101377,4,1.83319083157,2018_may._10_1821,60.0193912642,Experimento Piloto1,001,118,
2.5,Stim\\03_019.jpg,Tr19_8,Tristeza,8,Estefanía despierta a las 7 a.m.,Afirmación,Tr19,19,,,,,,,,,,,,,0,28,28,28,,,,,,,,,1,1.11822216709,3,0.450325939306,2018_may._10_1821,60.0193912642,Experimento Piloto1,001,118,
2.5,Stim\\02_019.jpg,Al19_8,Alegría,8,Estefanía despierta a las 7 a.m.,Afirmación,Al19,19,,,,,,,,,,,,,0,29,29,29,,,,,,,,,1,1.59993002836,3,1.2168424585,2018_may._10_1821,60.0193912642,Experimento Piloto1,001,118,
2.5,Stim\\02_028.jpg,Al28_9,Alegría,9,Marco colabora en la organización del evento.,Afirmación,Al28,28,,,,,,,,,,,,,0,30,30,30,,,,,,,,,1,1.67687963986,3,8.13142975972,2018_may._10_1821,60.0193912642,Experimento Piloto1,001,118,
2.5,Stim\\03_075.jpg,Tr75_1,Tristeza,1,Juan colecciona monedas antiguas.,Afirmación,Tr75,75,,,,,,,,,,,,,0,31,31,31,,,,,,,,,1,1.84584507708,3,0.900234637031,2018_may._10_1821,60.0193912642,Experimento Piloto1,001,118,
2.5,Stim\\05_078.jpg,En78_8,Enojo,8,Estefanía despierta a las 7 a.m.,Afirmación,En78,78,,,,,,,,,,,,,0,32,32,32,,,,,,,,,1,4.35102958265,2,4.86544650651,2018_may._10_1821,60.0193912642,Experimento Piloto1,001,118,
0.25,Stim\\02_028.jpg,Al28_12,Alegría,12,Ana compra el libro.,Afirmación,Al28,28,,,,,,,,,,,,,0,33,33,33,,,,,,,,,1,1.526420094,4,0.550430004267,2018_may._10_1821,60.0193912642,Experimento Piloto1,001,118,
0.25,Stim\\05_075.jpg,En75_1,Enojo,1,Juan colecciona monedas antiguas.,Afirmación,En75,75,,,,,,,,,,,,,0,34,34,34,,,,,,,,,1,2.35101530273,2,0.600120129875,2018_may._10_1821,60.0193912642,Experimento Piloto1,001,118,
0.25,Stim\\03_028.jpg,Tr28_4,Tristeza,4,Jorge sustituye a Gustavo cada sábado.,Afirmación,Tr28,28,,,,,,,,,,,,,0,35,35,35,,,,,,,,,1,1.36399040032,3,0.700455351134,2018_may._10_1821,60.0193912642,Experimento Piloto1,001,118,
2.5,Stim\\03_078.jpg,Tr78_3,Tristeza,3,Andrea diseña la portada del libro.,Afirmación,Tr78,78,,,,,,,,,,,,,0,36,36,36,,,,,,,,,1,2.14944611738,4,4.49904413747,2018_may._10_1821,60.0193912642,Experimento Piloto1,001,118,
0.25,Stim\\05_078.jpg,En78_4,Enojo,4,Jorge sustituye a Gustavo cada sábado.,Afirmación,En78,78,,,,,,,,,,,,,0,37,37,37,,,,,,,,,1,0.964825865231,2,1.88314022709,2018_may._10_1821,60.0193912642,Experimento Piloto1,001,118,
2.5,Stim\\03_019.jpg,Tr19_7,Tristeza,7,Roberto contesta los cuestionarios solicitados.,Afirmación,Tr19,19,,,,,,,,,,,,,0,38,38,38,,,,,,,,,1,2.49261504711,3,0.500358783136,2018_may._10_1821,60.0193912642,Experimento Piloto1,001,118,
0.25,Stim\\02_078.jpg,Al78_2,Alegría,2,Jonathan pasea al perro.,Afirmación,Al78,78,,,,,,,,,,,,,0,39,39,39,,,,,,,,,1,1.22323495654,4,0.450334864259,2018_may._10_1821,60.0193912642,Experimento Piloto1,001,118,
0.25,Stim\\02_078.jpg,Al78_5,Alegría,5,Emilio revisa el formato del archivo.,Afirmación,Al78,78,,,,,,,,,,,,,0,40,40,40,,,,,,,,,1,2.74840868077,4,0.450394215201,2018_may._10_1821,60.0193912642,Experimento Piloto1,001,118,
2.5,Stim\\05_019.jpg,En19_11,Enojo,11,María asiste a la cena.,Afirmación,En19,19,,,,,,,,,,,,,0,41,41,41,,,,,,,,,1,1.02505546859,2,9.63070862347,2018_may._10_1821,60.0193912642,Experimento Piloto1,001,118,
2.5,Stim\\02_028.jpg,Al28_15,Alegría,15,Ángel envía una carta a la abuela.,Afirmación,Al28,28,,,,,,,,,,,,,0,42,42,42,,,,,,,,,1,1.36837210631,4,2.34975465303,2018_may._10_1821,60.0193912642,Experimento Piloto1,001,118,
0.25,Stim\\03_019.jpg,Tr19_4,Tristeza,4,Jorge sustituye a Gustavo cada sábado.,Afirmación,Tr19,19,,,,,,,,,,,,,0,43,43,43,,,,,,,,,1,1.06522846989,3,0.700388413981,2018_may._10_1821,60.0193912642,Experimento Piloto1,001,118,
2.5,Stim\\02_075.jpg,Al75_12,Alegría,12,Ana compra el libro.,Afirmación,Al75,75,,,,,,,,,,,,,0,44,44,44,,,,,,,,,1,0.925817570378,4,0.700162166408,2018_may._10_1821,60.0193912642,Experimento Piloto1,001,118,
2.5,Stim\\05_028.jpg,En28_12,Enojo,12,Ana compra el libro.,Afirmación,En28,28,,,,,,,,,,,,,0,45,45,45,,,,,,,,,1,1.25003391482,2,1.66668109534,2018_may._10_1821,60.0193912642,Experimento Piloto1,001,118,
0.25,Stim\\02_028.jpg,Al28_14,Alegría,14,Elizabeth elige la ropa un día antes.,Afirmación,Al28,28,,,,,,,,,,,,,0,46,46,46,,,,,,,,,1,1.63169170711,4,1.11681827188,2018_may._10_1821,60.0193912642,Experimento Piloto1,001,118,
2.5,Stim\\03_075.jpg,Tr75_6,Tristeza,6,Eduardo camina hacia la biblioteca.,Afirmación,Tr75,75,,,,,,,,,,,,,0,47,47,47,,,,,,,,,1,2.30059466966,4,2.43314227983,2018_may._10_1821,60.0193912642,Experimento Piloto1,001,118,
0.25,Stim\\05_028.jpg,En28_8,Enojo,8,Estefanía despierta a las 7 a.m.,Afirmación,En28,28,,,,,,,,,,,,,0,48,48,48,,,,,,,,,1,1.43508791972,2,1.21674160653,2018_may._10_1821,60.0193912642,Experimento Piloto1,001,118,
2.5,Stim\\05_019.jpg,En19_7,Enojo,7,Roberto contesta los cuestionarios solicitados.,Afirmación,En19,19,,,,,,,,,,,,,0,49,49,49,,,,,,,,,1,1.82612896201,2,1.63331113995,2018_may._10_1821,60.0193912642,Experimento Piloto1,001,118,
2.5,Stim\\02_019.jpg,Al19_10,Alegría,10,Laura finaliza la obra.,Afirmación,Al19,19,,,,,,,,,,,,,0,50,50,50,,,,,,,,,1,1.49025975185,3,2.63306748871,2018_may._10_1821,60.0193912642,Experimento Piloto1,001,118,
0.25,Stim\\05_028.jpg,En28_14,Enojo,14,Elizabeth elige la ropa un día antes.,Afirmación,En28,28,,,,,,,,,,,,,0,51,51,51,,,,,,,,,1,2.71456302535,3,1.41656417845,2018_may._10_1821,60.0193912642,Experimento Piloto1,001,118,
2.5,Stim\\03_028.jpg,Tr28_8,Tristeza,8,Estefanía despierta a las 7 a.m.,Afirmación,Tr28,28,,,,,,,,,,,,,0,52,52,52,,,,,,,,,1,3.28380013816,3,2.99963006067,2018_may._10_1821,60.0193912642,Experimento Piloto1,001,118,
0.25,Stim\\02_075.jpg,Al75_3,Alegría,3,Andrea diseña la portada del libro.,Afirmación,Al75,75,,,,,,,,,,,,,0,53,53,53,,,,,,,,,1,1.48355488043,4,0.48401942427,2018_may._10_1821,60.0193912642,Experimento Piloto1,001,118,
0.25,Stim\\02_028.jpg,Al28_1,Alegría,1,Juan colecciona monedas antiguas.,Afirmación,Al28,28,,,,,,,,,,,,,0,54,54,54,,,,,,,,,1,1.58523241472,3,0.300370207076,2018_may._10_1821,60.0193912642,Experimento Piloto1,001,118,
0.25,Stim\\03_028.jpg,Tr28_3,Tristeza,3,Andrea diseña la portada del libro.,Afirmación,Tr28,28,,,,,,,,,,,,,0,55,55,55,,,,,,,,,1,1.31750433306,3,4.13257126129,2018_may._10_1821,60.0193912642,Experimento Piloto1,001,118,
2.5,Stim\\02_078.jpg,Al78_11,Alegría,11,María asiste a la cena.,Afirmación,Al78,78,,,,,,,,,,,,,0,56,56,56,,,,,,,,,1,1.07466348462,3,0.866857541674,2018_may._10_1821,60.0193912642,Experimento Piloto1,001,118,
0.25,Stim\\03_019.jpg,Tr19_12,Tristeza,12,Ana compra el libro.,Afirmación,Tr19,19,,,,,,,,,,,,,0,57,57,57,,,,,,,,,1,2.09224965951,3,1.88317860439,2018_may._10_1821,60.0193912642,Experimento Piloto1,001,118,
2.5,Stim\\02_078.jpg,Al78_14,Alegría,14,Elizabeth elige la ropa un día antes.,Afirmación,Al78,78,,,,,,,,,,,,,0,58,58,58,,,,,,,,,1,1.73173999111,3,4.34911161012,2018_may._10_1821,60.0193912642,Experimento Piloto1,001,118,
0.25,Stim\\03_019.jpg,Tr19_2,Tristeza,2,Jonathan pasea al perro.,Afirmación,Tr19,19,,,,,,,,,,,,,0,59,59,59,,,,,,,,,1,1.25810564289,3,0.350093801262,2018_may._10_1821,60.0193912642,Experimento Piloto1,001,118,
2.5,Stim\\03_078.jpg,Tr78_1,Tristeza,1,Juan colecciona monedas antiguas.,Afirmación,Tr78,78,,,,,,,,,,,,,0,60,60,60,,,,,,,,,1,1.21671840165,4,4.03362253158,2018_may._10_1821,60.0193912642,Experimento Piloto1,001,118,
0.25,Stim\\03_078.jpg,Tr78_4,Tristeza,4,Jorge sustituye a Gustavo cada sábado.,Afirmación,Tr78,78,,,,,,,,,,,,,0,61,61,61,,,,,,,,,1,2.29702022573,3,1.16712288055,2018_may._10_1821,60.0193912642,Experimento Piloto1,001,118,
0.25,Stim\\05_019.jpg,En19_14,Enojo,14,Elizabeth elige la ropa un día antes.,Afirmación,En19,19,,,,,,,,,,,,,0,62,62,62,,,,,,,,,1,2.69796662781,2,0.80037913203,2018_may._10_1821,60.0193912642,Experimento Piloto1,001,118,
0.25,Stim\\02_075.jpg,Al75_15,Alegría,15,Ángel envía una carta a la abuela.,Afirmación,Al75,75,,,,,,,,,,,,,0,63,63,63,,,,,,,,,1,1.58363395552,4,0.450360746625,2018_may._10_1821,60.0193912642,Experimento Piloto1,001,118,
2.5,Stim\\03_028.jpg,Tr28_2,Tristeza,2,Jonathan pasea al perro.,Afirmación,Tr28,28,,,,,,,,,,,,,0,64,64,64,,,,,,,,,1,3.88927256273,3,2.81603260821,2018_may._10_1821,60.0193912642,Experimento Piloto1,001,118,
0.25,Stim\\05_028.jpg,En28_3,Enojo,3,Andrea diseña la portada del libro.,Afirmación,En28,28,,,,,,,,,,,,,0,65,65,65,,,,,,,,,1,1.36650812974,2,0.550353249666,2018_may._10_1821,60.0193912642,Experimento Piloto1,001,118,
0.25,Stim\\05_078.jpg,En78_3,Enojo,3,Andrea diseña la portada del libro.,Afirmación,En78,78,,,,,,,,,,,,,0,66,66,66,,,,,,,,,1,1.80016894937,2,0.700165736389,2018_may._10_1821,60.0193912642,Experimento Piloto1,001,118,
0.25,Stim\\05_075.jpg,En75_9,Enojo,9,Marco colabora en la organización del evento.,Afirmación,En75,75,,,,,,,,,,,,,0,67,67,67,,,,,,,,,1,1.77750447586,2,0.800462134099,2018_may._10_1821,60.0193912642,Experimento Piloto1,001,118,
2.5,Stim\\05_075.jpg,En75_7,Enojo,7,Roberto contesta los cuestionarios solicitados.,Afirmación,En75,75,,,,,,,,,,,,,0,68,68,68,,,,,,,,,1,1.77359132994,2,2.49962024322,2018_may._10_1821,60.0193912642,Experimento Piloto1,001,118,
0.25,Stim\\03_078.jpg,Tr78_14,Tristeza,14,Elizabeth elige la ropa un día antes.,Afirmación,Tr78,78,,,,,,,,,,,,,0,69,69,69,,,,,,,,,1,1.7812895487,4,3.78274788613,2018_may._10_1821,60.0193912642,Experimento Piloto1,001,118,
2.5,Stim\\03_019.jpg,Tr19_5,Tristeza,5,Emilio revisa el formato del archivo.,Afirmación,Tr19,19,,,,,,,,,,,,,0,70,70,70,,,,,,,,,1,1.38266452706,3,1.21643012565,2018_may._10_1821,60.0193912642,Experimento Piloto1,001,118,
2.5,Stim\\05_028.jpg,En28_13,Enojo,13,Rocío consume alimentos nutritivos.,Afirmación,En28,28,,,,,,,,,,,,,0,71,71,71,,,,,,,,,1,1.31641682746,2,2.44968021891,2018_may._10_1821,60.0193912642,Experimento Piloto1,001,118,
0.25,Stim\\05_075.jpg,En75_15,Enojo,15,Ángel envía una carta a la abuela.,Afirmación,En75,75,,,,,,,,,,,,,0,72,72,72,,,,,,,,,1,1.01689672222,2,0.333807992118,2018_may._10_1821,60.0193912642,Experimento Piloto1,001,118,
2.5,Stim\\05_019.jpg,En19_6,Enojo,6,Eduardo camina hacia la biblioteca.,Afirmación,En19,19,,,,,,,,,,,,,0,73,73,73,,,,,,,,,1,3.13335442597,2,1.05012253961,2018_may._10_1821,60.0193912642,Experimento Piloto1,001,118,
2.5,Stim\\05_078.jpg,En78_10,Enojo,10,Laura finaliza la obra.,Afirmación,En78,78,,,,,,,,,,,,,0,74,74,74,,,,,,,,,1,1.28747498782,2,0.383787732473,2018_may._10_1821,60.0193912642,Experimento Piloto1,001,118,
2.5,Stim\\05_019.jpg,En19_9,Enojo,9,Marco colabora en la organización del evento.,Afirmación,En19,19,,,,,,,,,,,,,0,75,75,75,,,,,,,,,1,6.40909890098,2,0.333652697924,2018_may._10_1821,60.0193912642,Experimento Piloto1,001,118,
2.5,Stim\\02_078.jpg,Al78_6,Alegría,6,Eduardo camina hacia la biblioteca.,Afirmación,Al78,78,,,,,,,,,,,,,0,76,76,76,,,,,,,,,1,1.43143047372,4,0.966563553702,2018_may._10_1821,60.0193912642,Experimento Piloto1,001,118,
2.5,Stim\\05_078.jpg,En78_13,Enojo,13,Rocío consume alimentos nutritivos.,Afirmación,En78,78,,,,,,,,,,,,,0,77,77,77,,,,,,,,,1,1.11685709543,2,0.700230888551,2018_may._10_1821,60.0193912642,Experimento Piloto1,001,118,
0.25,Stim\\05_028.jpg,En28_2,Enojo,2,Jonathan pasea al perro.,Afirmación,En28,28,,,,,,,,,,,,,0,78,78,78,,,,,,,,,1,1.64066619424,2,1.56660603648,2018_may._10_1821,60.0193912642,Experimento Piloto1,001,118,
0.25,Stim\\05_019.jpg,En19_6,Enojo,6,Eduardo camina hacia la biblioteca.,Afirmación,En19,19,,,,,,,,,,,,,0,79,79,79,,,,,,,,,1,1.11821324213,2,0.400452852147,2018_may._10_1821,60.0193912642,Experimento Piloto1,001,118,
2.5,Stim\\03_019.jpg,Tr19_11,Tristeza,11,María asiste a la cena.,Afirmación,Tr19,19,,,,,,,,,,,,,0,80,80,80,,,,,,,,,1,1.79097803212,3,0.966758117691,2018_may._10_1821,60.0193912642,Experimento Piloto1,001,118,
2.5,Stim\\05_028.jpg,En28_11,Enojo,11,María asiste a la cena.,Afirmación,En28,28,,,,,,,,,,,,,0,81,81,81,,,,,,,,,1,1.18352382159,3,0.96677775259,2018_may._10_1821,60.0193912642,Experimento Piloto1,001,118,
0.25,Stim\\02_078.jpg,Al78_9,Alegría,9,Marco colabora en la organización del evento.,Afirmación,Al78,78,,,,,,,,,,,,,0,82,82,82,,,,,,,,,1,4.49306174104,4,0.750228032566,2018_may._10_1821,60.0193912642,Experimento Piloto1,001,118,
0.25,Stim\\05_019.jpg,En19_13,Enojo,13,Rocío consume alimentos nutritivos.,Afirmación,En19,19,,,,,,,,,,,,,0,83,83,83,,,,,,,,,1,1.6844457693,2,0.750195456483,2018_may._10_1821,60.0193912642,Experimento Piloto1,001,118,
0.25,Stim\\03_078.jpg,Tr78_11,Tristeza,11,María asiste a la cena.,Afirmación,Tr78,78,,,,,,,,,,,,,0,84,84,84,,,,,,,,,1,1.52455477869,4,2.19981052323,2018_may._10_1821,60.0193912642,Experimento Piloto1,001,118,
2.5,Stim\\05_028.jpg,En28_5,Enojo,5,Emilio revisa el formato del archivo.,Afirmación,En28,28,,,,,,,,,,,,,0,85,85,85,,,,,,,,,1,1.58247594279,2,0.600178142075,2018_may._10_1821,60.0193912642,Experimento Piloto1,001,118,
0.25,Stim\\03_028.jpg,Tr28_10,Tristeza,10,Laura finaliza la obra.,Afirmación,Tr28,28,,,,,,,,,,,,,0,86,86,86,,,,,,,,,1,1.17431817817,3,0.95027328208,2018_may._10_1821,60.0193912642,Experimento Piloto1,001,118,
0.25,Stim\\05_019.jpg,En19_11,Enojo,11,María asiste a la cena.,Afirmación,En19,19,,,,,,,,,,,,,0,87,87,87,,,,,,,,,1,1.39119946022,2,1.98314477881,2018_may._10_1821,60.0193912642,Experimento Piloto1,001,118,
2.5,Stim\\03_028.jpg,Tr28_9,Tristeza,9,Marco colabora en la organización del evento.,Afirmación,Tr28,28,,,,,,,,,,,,,0,88,88,88,,,,,,,,,1,3.20907060888,3,1.3667276836,2018_may._10_1821,60.0193912642,Experimento Piloto1,001,118,
2.5,Stim\\05_019.jpg,En19_8,Enojo,8,Estefanía despierta a las 7 a.m.,Afirmación,En19,19,,,,,,,,,,,,,0,89,89,89,,,,,,,,,1,2.00019322525,2,0.650295326715,2018_may._10_1821,60.0193912642,Experimento Piloto1,001,118,
0.25,Stim\\03_075.jpg,Tr75_9,Tristeza,9,Marco colabora en la organización del evento.,Afirmación,Tr75,75,,,,,,,,,,,,,0,90,90,90,,,,,,,,,1,1.31131978644,3,1.63321028797,2018_may._10_1821,60.0193912642,Experimento Piloto1,001,118,
2.5,Stim\\02_075.jpg,Al75_3,Alegría,3,Andrea diseña la portada del libro.,Afirmación,Al75,75,,,,,,,,,,,,,0,91,91,91,,,,,,,,,1,1.88386314833,3,0.300733898937,2018_may._10_1821,60.0193912642,Experimento Piloto1,001,118,
0.25,Stim\\05_028.jpg,En28_12,Enojo,12,Ana compra el libro.,Afirmación,En28,28,,,,,,,,,,,,,0,92,92,92,,,,,,,,,1,1.47657824418,2,0.300672316756,2018_may._10_1821,60.0193912642,Experimento Piloto1,001,118,
0.25,Stim\\03_028.jpg,Tr28_7,Tristeza,7,Roberto contesta los cuestionarios solicitados.,Afirmación,Tr28,28,,,,,,,,,,,,,0,93,93,93,,,,,,,,,1,1.97631942052,3,0.400302912927,2018_may._10_1821,60.0193912642,Experimento Piloto1,001,118,
0.25,Stim\\03_019.jpg,Tr19_8,Tristeza,8,Estefanía despierta a las 7 a.m.,Afirmación,Tr19,19,,,,,,,,,,,,,0,94,94,94,,,,,,,,,1,1.61814853622,3,0.350321387581,2018_may._10_1821,60.0193912642,Experimento Piloto1,001,118,
0.25,Stim\\02_019.jpg,Al19_4,Alegría,4,Jorge sustituye a Gustavo cada sábado.,Afirmación,Al19,19,,,,,,,,,,,,,0,95,95,95,,,,,,,,,1,1.21523909058,4,0.500281582286,2018_may._10_1821,60.0193912642,Experimento Piloto1,001,118,
2.5,Stim\\05_019.jpg,En19_15,Enojo,15,Ángel envía una carta a la abuela.,Afirmación,En19,19,,,,,,,,,,,,,0,96,96,96,,,,,,,,,1,1.99996608518,2,1.20011843414,2018_may._10_1821,60.0193912642,Experimento Piloto1,001,118,
0.25,Stim\\05_075.jpg,En75_13,Enojo,13,Rocío consume alimentos nutritivos.,Afirmación,En75,75,,,,,,,,,,,,,0,97,97,97,,,,,,,,,1,1.16621253528,2,0.4004140286,2018_may._10_1821,60.0193912642,Experimento Piloto1,001,118,
0.25,Stim\\02_078.jpg,Al78_7,Alegría,7,Roberto contesta los cuestionarios solicitados.,Afirmación,Al78,78,,,,,,,,,,,,,0,98,98,98,,,,,,,,,1,3.72526672224,3,2.69966013777,2018_may._10_1821,60.0193912642,Experimento Piloto1,001,118,
2.5,Stim\\03_028.jpg,Tr28_3,Tristeza,3,Andrea diseña la portada del libro.,Afirmación,Tr28,28,,,,,,,,,,,,,0,99,99,99,,,,,,,,,1,1.3337142801,3,3.09947530198,2018_may._10_1821,60.0193912642,Experimento Piloto1,001,118,
2.5,Stim\\05_075.jpg,En75_15,Enojo,15,Ángel envía una carta a la abuela.,Afirmación,En75,75,,,,,,,,,,,,,0,100,100,100,,,,,,,,,1,2.05039965943,2,0.60032317257,2018_may._10_1821,60.0193912642,Experimento Piloto1,001,118,
0.25,Stim\\02_028.jpg,Al28_13,Alegría,13,Rocío consume alimentos nutritivos.,Afirmación,Al28,28,,,,,,,,,,,,,0,101,101,101,,,,,,,,,1,1.16671679515,4,0.750438215224,2018_may._10_1821,60.0193912642,Experimento Piloto1,001,118,
0.25,Stim\\03_028.jpg,Tr28_15,Tristeza,15,Ángel envía una carta a la abuela.,Afirmación,Tr28,28,,,,,,,,,,,,,0,102,102,102,,,,,,,,,1,3.63273548044,4,2.89962595519,2018_may._10_1821,60.0193912642,Experimento Piloto1,001,118,
0.25,Stim\\05_019.jpg,En19_2,Enojo,2,Jonathan pasea al perro.,Afirmación,En19,19,,,,,,,,,,,,,0,103,103,103,,,,,,,,,1,2.97358347598,2,0.350274531573,2018_may._10_1821,60.0193912642,Experimento Piloto1,001,118,
0.25,Stim\\03_078.jpg,Tr78_13,Tristeza,13,Rocío consume alimentos nutritivos.,Afirmación,Tr78,78,,,,,,,,,,,,,0,104,104,104,,,,,,,,,1,1.56312887455,4,1.73318895733,2018_may._10_1821,60.0193912642,Experimento Piloto1,001,118,
2.5,Stim\\03_075.jpg,Tr75_2,Tristeza,2,Jonathan pasea al perro.,Afirmación,Tr75,75,,,,,,,,,,,,,0,105,105,105,,,,,,,,,1,0.973436214248,4,1.21680631244,2018_may._10_1821,60.0193912642,Experimento Piloto1,001,118,
2.5,Stim\\05_075.jpg,En75_10,Enojo,10,Laura finaliza la obra.,Afirmación,En75,75,,,,,,,,,,,,,0,106,106,106,,,,,,,,,1,2.61642602017,2,0.801044487325,2018_may._10_1821,60.0193912642,Experimento Piloto1,001,118,
2.5,Stim\\05_028.jpg,En28_3,Enojo,3,Andrea diseña la portada del libro.,Afirmación,En28,28,,,,,,,,,,,,,0,107,107,107,,,,,,,,,1,2.09890053496,2,0.500012048687,2018_may._10_1821,60.0193912642,Experimento Piloto1,001,118,
2.5,Stim\\02_078.jpg,Al78_8,Alegría,8,Estefanía despierta a las 7 a.m.,Afirmación,Al78,78,,,,,,,,,,,,,0,108,108,108,,,,,,,,,1,1.1682576884,4,2.44966906272,2018_may._10_1821,60.0193912642,Experimento Piloto1,001,118,
2.5,Stim\\05_075.jpg,En75_2,Enojo,2,Jonathan pasea al perro.,Afirmación,En75,75,,,,,,,,,,,,,0,109,109,109,,,,,,,,,1,0.973798121118,2,0.750258377409,2018_may._10_1821,60.0193912642,Experimento Piloto1,001,118,
0.25,Stim\\05_078.jpg,En78_2,Enojo,2,Jonathan pasea al perro.,Afirmación,En78,78,,,,,,,,,,,,,0,110,110,110,,,,,,,,,1,5.13233162629,3,0.850205809431,2018_may._10_1821,60.0193912642,Experimento Piloto1,001,118,
2.5,Stim\\05_078.jpg,En78_14,Enojo,14,Elizabeth elige la ropa un día antes.,Afirmación,En78,78,,,,,,,,,,,,,0,111,111,111,,,,,,,,,1,1.2818286159,2,0.700082288073,2018_may._10_1821,60.0193912642,Experimento Piloto1,001,118,
2.5,Stim\\05_028.jpg,En28_1,Enojo,1,Juan colecciona monedas antiguas.,Afirmación,En28,28,,,,,,,,,,,,,0,112,112,112,,,,,,,,,1,2.96803304732,2,4.8989512287,2018_may._10_1821,60.0193912642,Experimento Piloto1,001,118,
0.25,Stim\\05_019.jpg,En19_12,Enojo,12,Ana compra el libro.,Afirmación,En19,19,,,,,,,,,,,,,0,113,113,113,,,,,,,,,1,1.07612762327,2,0.816820681615,2018_may._10_1821,60.0193912642,Experimento Piloto1,001,118,
0.25,Stim\\02_075.jpg,Al75_13,Alegría,13,Rocío consume alimentos nutritivos.,Afirmación,Al75,75,,,,,,,,,,,,,0,114,114,114,,,,,,,,,1,1.56649179708,4,0.65032522531,2018_may._10_1821,60.0193912642,Experimento Piloto1,001,118,
2.5,Stim\\03_019.jpg,Tr19_6,Tristeza,6,Eduardo camina hacia la biblioteca.,Afirmación,Tr19,19,,,,,,,,,,,,,0,115,115,115,,,,,,,,,1,1.99896381288,3,0.800263107634,2018_may._10_1821,60.0193912642,Experimento Piloto1,001,118,
2.5,Stim\\05_028.jpg,En28_14,Enojo,14,Elizabeth elige la ropa un día antes.,Afirmación,En28,28,,,,,,,,,,,,,0,116,116,116,,,,,,,,,1,1.48240356141,2,0.599922442152,2018_may._10_1821,60.0193912642,Experimento Piloto1,001,118,
2.5,Stim\\02_028.jpg,Al28_5,Alegría,5,Emilio revisa el formato del archivo.,Afirmación,Al28,28,,,,,,,,,,,,,0,117,117,117,,,,,,,,,1,1.0160925839,4,0.86674285602,2018_may._10_1821,60.0193912642,Experimento Piloto1,001,118,
2.5,Stim\\02_078.jpg,Al78_9,Alegría,9,Marco colabora en la organización del evento.,Afirmación,Al78,78,,,,,,,,,,,,,0,118,118,118,,,,,,,,,1,2.12734257721,4,0.716622904645,2018_may._10_1821,60.0193912642,Experimento Piloto1,001,118,
0.25,Stim\\03_019.jpg,Tr19_3,Tristeza,3,Andrea diseña la portada del libro.,Afirmación,Tr19,19,,,,,,,,,,,,,0,119,119,119,,,,,,,,,1,3.51594532216,4,0.350374491054,2018_may._10_1821,60.0193912642,Experimento Piloto1,001,118,
