Tiempo,ImagenesE,ClaveEn,Emocion,NumEn,Enunciado,ActoHabla,Clave,Cara,trials.thisRepN,trials.thisTrialN,trials.thisN,trials.thisIndex,Bloque1.thisRepN,Bloque1.thisTrialN,Bloque1.thisN,Bloque1.thisIndex,Bloque2.thisRepN,Bloque2.thisTrialN,Bloque2.thisN,Bloque2.thisIndex,Bloque3.thisRepN,Bloque3.thisTrialN,Bloque3.thisN,Bloque3.thisIndex,Sig_B1.keys,Sig_B1.rt,Resp_Bloque1.keys,Resp_Bloque1.rt,Sig_B2.keys,Sig_B2.rt,Resp_Bloque2.keys,Resp_Bloque2.rt,Sig_B3.keys,Sig_B3.rt,Resp_Bloque3.keys,Resp_Bloque3.rt,date,frameRate,expName,session,participant,
0.25,Stim\\03_028.jpg,Tr28_2,Tristeza,2,Jonathan pasea al perro.,Afirmación,Tr28,28,,,,,0,0,0,0,,,,,,,,,1,3.15565379942,4,0.950187178507,,,,,,,,,2018_may._11_1335,60.0215079108,Experimento Piloto1,001,119,
2.5,Stim\\05_075.jpg,En75_12,Enojo,12,Ana compra el libro.,Afirmación,En75,75,,,,,0,1,1,1,,,,,,,,,1,1.81084327833,2,1.41673669033,,,,,,,,,2018_may._11_1335,60.0215079108,Experimento Piloto1,001,119,
0.25,Stim\\02_078.jpg,Al78_11,Alegría,11,María asiste a la cena.,Afirmación,Al78,78,,,,,0,2,2,2,,,,,,,,,1,1.32531887729,3,0.900168190676,,,,,,,,,2018_may._11_1335,60.0215079108,Experimento Piloto1,001,119,
0.25,Stim\\02_078.jpg,Al78_8,Alegría,8,Estefanía despierta a las 7 a.m.,Afirmación,Al78,78,,,,,0,3,3,3,,,,,,,,,1,1.73394992835,3,1.53323539689,,,,,,,,,2018_may._11_1335,60.0215079108,Experimento Piloto1,001,119,
0.25,Stim\\05_028.jpg,En28_6,Enojo,6,Eduardo camina hacia la biblioteca.,Afirmación,En28,28,,,,,0,4,4,4,,,,,,,,,1,1.6849983645,2,2.89954121296,,,,,,,,,2018_may._11_1335,60.0215079108,Experimento Piloto1,001,119,
0.25,Stim\\02_019.jpg,Al19_14,Alegría,14,Elizabeth elige la ropa un día antes.,Afirmación,Al19,19,,,,,0,5,5,5,,,,,,,,,1,2.399290645,3,5.61549531909,,,,,,,,,2018_may._11_1335,60.0215079108,Experimento Piloto1,001,119,
2.5,Stim\\05_078.jpg,En78_1,Enojo,1,Juan colecciona monedas antiguas.,Afirmación,En78,78,,,,,0,6,6,6,,,,,,,,,1,3.95200162077,2,8.39757482343,,,,,,,,,2018_may._11_1335,60.0215079108,Experimento Piloto1,001,119,
2.5,Stim\\02_078.jpg,Al78_15,Alegría,15,Ángel envía una carta a la abuela.,Afirmación,Al78,78,,,,,0,7,7,7,,,,,,,,,1,1.96522616492,3,3.53273069098,,,,,,,,,2018_may._11_1335,60.0215079108,Experimento Piloto1,001,119,
0.25,Stim\\02_075.jpg,Al75_14,Alegría,14,Elizabeth elige la ropa un día antes.,Afirmación,Al75,75,,,,,0,8,8,8,,,,,,,,,1,2.9959043406,3,1.83313958755,,,,,,,,,2018_may._11_1335,60.0215079108,Experimento Piloto1,001,119,
2.5,Stim\\02_075.jpg,Al75_2,Alegría,2,Jonathan pasea al perro.,Afirmación,Al75,75,,,,,0,9,9,9,,,,,,,,,1,2.82355106789,3,2.6994639229,,,,,,,,,2018_may._11_1335,60.0215079108,Experimento Piloto1,001,119,
0.25,Stim\\05_075.jpg,En75_12,Enojo,12,Ana compra el libro.,Afirmación,En75,75,,,,,0,10,10,10,,,,,,,,,1,2.30381064113,4,1.26673015281,,,,,,,,,2018_may._11_1335,60.0215079108,Experimento Piloto1,001,119,
2.5,Stim\\03_078.jpg,Tr78_8,Tristeza,8,Estefanía despierta a las 7 a.m.,Afirmación,Tr78,78,,,,,0,11,11,11,,,,,,,,,1,3.58496485132,4,3.06622446516,,,,,,,,,2018_may._11_1335,60.0215079108,Experimento Piloto1,001,119,
0.25,Stim\\03_078.jpg,Tr78_15,Tristeza,15,Ángel envía una carta a la abuela.,Afirmación,Tr78,78,,,,,0,12,12,12,,,,,,,,,1,2.16836426647,4,1.46659502907,,,,,,,,,2018_may._11_1335,60.0215079108,Experimento Piloto1,001,119,
0.25,Stim\\03_078.jpg,Tr78_5,Tristeza,5,Emilio revisa el formato del archivo.,Afirmación,Tr78,78,,,,,0,13,13,13,,,,,,,,,1,4.91393938799,4,2.49958342798,,,,,,,,,2018_may._11_1335,60.0215079108,Experimento Piloto1,001,119,
2.5,Stim\\02_019.jpg,Al19_5,Alegría,5,Emilio revisa el formato del archivo.,Afirmación,Al19,19,,,,,0,14,14,14,,,,,,,,,1,1.64985235902,3,1.51674833739,,,,,,,,,2018_may._11_1335,60.0215079108,Experimento Piloto1,001,119,
2.5,Stim\\03_075.jpg,Tr75_10,Tristeza,10,Laura finaliza la obra.,Afirmación,Tr75,75,,,,,0,15,15,15,,,,,,,,,1,1.95657610372,4,5.51525653206,,,,,,,,,2018_may._11_1335,60.0215079108,Experimento Piloto1,001,119,
2.5,Stim\\03_075.jpg,Tr75_4,Tristeza,4,Jorge sustituye a Gustavo cada sábado.,Afirmación,Tr75,75,,,,,0,16,16,16,,,,,,,,,1,3.23167295057,4,2.99976929005,,,,,,,,,2018_may._11_1335,60.0215079108,Experimento Piloto1,001,119,
0.25,Stim\\03_028.jpg,Tr28_5,Tristeza,5,Emilio revisa el formato del archivo.,Afirmación,Tr28,28,,,,,0,17,17,17,,,,,,,,,1,4.34843538939,4,3.36605100876,,,,,,,,,2018_may._11_1335,60.0215079108,Experimento Piloto1,001,119,
0.25,Stim\\05_075.jpg,En75_11,Enojo,11,María asiste a la cena.,Afirmación,En75,75,,,,,0,18,18,18,,,,,,,,,1,2.50837137965,2,1.36675474104,,,,,,,,,2018_may._11_1335,60.0215079108,Experimento Piloto1,001,119,
0.25,Stim\\02_075.jpg,Al75_6,Alegría,6,Eduardo camina hacia la biblioteca.,Afirmación,Al75,75,,,,,0,19,19,19,,,,,,,,,1,2.10100454771,3,0.850181332665,,,,,,,,,2018_may._11_1335,60.0215079108,Experimento Piloto1,001,119,
0.25,Stim\\05_078.jpg,En78_1,Enojo,1,Juan colecciona monedas antiguas.,Afirmación,En78,78,,,,,0,20,20,20,,,,,,,,,1,2.55215762889,2,4.64900404256,,,,,,,,,2018_may._11_1335,60.0215079108,Experimento Piloto1,001,119,
2.5,Stim\\03_019.jpg,Tr19_4,Tristeza,4,Jorge sustituye a Gustavo cada sábado.,Afirmación,Tr19,19,,,,,0,21,21,21,,,,,,,,,1,3.23172650027,3,5.21558394384,,,,,,,,,2018_may._11_1335,60.0215079108,Experimento Piloto1,001,119,
0.25,Stim\\03_028.jpg,Tr28_11,Tristeza,11,María asiste a la cena.,Afirmación,Tr28,28,,,,,0,22,22,22,,,,,,,,,1,2.04232701997,4,1.68304335428,,,,,,,,,2018_may._11_1335,60.0215079108,Experimento Piloto1,001,119,
0.25,Stim\\02_019.jpg,Al19_7,Alegría,7,Roberto contesta los cuestionarios solicitados.,Afirmación,Al19,19,,,,,0,23,23,23,,,,,,,,,1,2.99457452311,3,1.36667129277,,,,,,,,,2018_may._11_1335,60.0215079108,Experimento Piloto1,001,119,
0.25,Stim\\05_028.jpg,En28_1,Enojo,1,Juan colecciona monedas antiguas.,Afirmación,En28,28,,,,,0,24,24,24,,,,,,,,,1,1.95222474451,2,2.54935028598,,,,,,,,,2018_may._11_1335,60.0215079108,Experimento Piloto1,001,119,
0.25,Stim\\03_019.jpg,Tr19_6,Tristeza,6,Eduardo camina hacia la biblioteca.,Afirmación,Tr19,19,,,,,0,25,25,25,,,,,,,,,1,3.16693850576,3,1.93296961189,,,,,,,,,2018_may._11_1335,60.0215079108,Experimento Piloto1,001,119,
0.25,Stim\\03_078.jpg,Tr78_7,Tristeza,7,Roberto contesta los cuestionarios solicitados.,Afirmación,Tr78,78,,,,,0,26,26,26,,,,,,,,,1,2.54462050891,4,0.850018006086,,,,,,,,,2018_may._11_1335,60.0215079108,Experimento Piloto1,001,119,
2.5,Stim\\03_019.jpg,Tr19_15,Tristeza,15,Ángel envía una carta a la abuela.,Afirmación,Tr19,19,,,,,0,27,27,27,,,,,,,,,1,2.61761677962,2,0.70020112374,,,,,,,,,2018_may._11_1335,60.0215079108,Experimento Piloto1,001,119,
2.5,Stim\\02_028.jpg,Al28_4,Alegría,4,Jorge sustituye a Gustavo cada sábado.,Afirmación,Al28,28,,,,,0,28,28,28,,,,,,,,,1,1.88027358541,3,0.91661241041,,,,,,,,,2018_may._11_1335,60.0215079108,Experimento Piloto1,001,119,
2.5,Stim\\03_078.jpg,Tr78_5,Tristeza,5,Emilio revisa el formato del archivo.,Afirmación,Tr78,78,,,,,0,29,29,29,,,,,,,,,1,4.08287128125,2,2.19982426774,,,,,,,,,2018_may._11_1335,60.0215079108,Experimento Piloto1,001,119,
2.5,Stim\\03_028.jpg,Tr28_12,Tristeza,12,Ana compra el libro.,Afirmación,Tr28,28,,,,,0,30,30,30,,,,,,,,,1,1.6432800261,4,0.750203154166,,,,,,,,,2018_may._11_1335,60.0215079108,Experimento Piloto1,001,119,
0.25,Stim\\02_028.jpg,Al28_2,Alegría,2,Jonathan pasea al perro.,Afirmación,Al28,28,,,,,0,31,31,31,,,,,,,,,1,2.9692089237,3,0.650153129824,,,,,,,,,2018_may._11_1335,60.0215079108,Experimento Piloto1,001,119,
0.25,Stim\\05_019.jpg,En19_8,Enojo,8,Estefanía despierta a las 7 a.m.,Afirmación,En19,19,,,,,0,32,32,32,,,,,,,,,1,1.98687184531,2,1.16670467208,,,,,,,,,2018_may._11_1335,60.0215079108,Experimento Piloto1,001,119,
0.25,Stim\\03_019.jpg,Tr19_9,Tristeza,9,Marco colabora en la organización del evento.,Afirmación,Tr19,19,,,,,0,33,33,33,,,,,,,,,1,4.59450829998,3,2.44954212777,,,,,,,,,2018_may._11_1335,60.0215079108,Experimento Piloto1,001,119,
2.5,Stim\\02_078.jpg,Al78_10,Alegría,10,Laura finaliza la obra.,Afirmación,Al78,78,,,,,0,34,34,34,,,,,,,,,1,1.49210075019,3,0.600319780946,,,,,,,,,2018_may._11_1335,60.0215079108,Experimento Piloto1,001,119,
2.5,Stim\\02_075.jpg,Al75_15,Alegría,15,Ángel envía una carta a la abuela.,Afirmación,Al75,75,,,,,0,35,35,35,,,,,,,,,1,1.4854695126,3,0.70033410549,,,,,,,,,2018_may._11_1335,60.0215079108,Experimento Piloto1,001,119,
2.5,Stim\\03_028.jpg,Tr28_6,Tristeza,6,Eduardo camina hacia la biblioteca.,Afirmación,Tr28,28,,,,,0,36,36,36,,,,,,,,,1,1.31785360316,4,1.46678200677,,,,,,,,,2018_may._11_1335,60.0215079108,Experimento Piloto1,001,119,
0.25,Stim\\03_075.jpg,Tr75_14,Tristeza,14,Elizabeth elige la ropa un día antes.,Afirmación,Tr75,75,,,,,0,37,37,37,,,,,,,,,1,2.14907789651,4,1.11685258081,,,,,,,,,2018_may._11_1335,60.0215079108,Experimento Piloto1,001,119,
2.5,Stim\\05_075.jpg,En75_13,Enojo,13,Rocío consume alimentos nutritivos.,Afirmación,En75,75,,,,,0,38,38,38,,,,,,,,,1,1.48534233206,2,0.850271028409,,,,,,,,,2018_may._11_1335,60.0215079108,Experimento Piloto1,001,119,
2.5,Stim\\03_075.jpg,Tr75_8,Tristeza,8,Estefanía despierta a las 7 a.m.,Afirmación,Tr75,75,,,,,0,39,39,39,,,,,,,,,1,2.56975584461,4,0.699906154154,,,,,,,,,2018_may._11_1335,60.0215079108,Experimento Piloto1,001,119,
0.25,Stim\\05_075.jpg,En75_7,Enojo,7,Roberto contesta los cuestionarios solicitados.,Afirmación,En75,75,,,,,0,40,40,40,,,,,,,,,1,2.12730637433,2,0.916520929676,,,,,,,,,2018_may._11_1335,60.0215079108,Experimento Piloto1,001,119,
2.5,Stim\\03_019.jpg,Tr19_10,Tristeza,10,Laura finaliza la obra.,Afirmación,Tr19,19,,,,,0,41,41,41,,,,,,,,,1,1.32551567243,2,7.16479696409,,,,,,,,,2018_may._11_1335,60.0215079108,Experimento Piloto1,001,119,
2.5,Stim\\03_019.jpg,Tr19_2,Tristeza,2,Jonathan pasea al perro.,Afirmación,Tr19,19,,,,,0,42,42,42,,,,,,,,,1,2.30781481979,2,1.73308911696,,,,,,,,,2018_may._11_1335,60.0215079108,Experimento Piloto1,001,119,
0.25,Stim\\03_075.jpg,Tr75_15,Tristeza,15,Ángel envía una carta a la abuela.,Afirmación,Tr75,75,,,,,0,43,43,43,,,,,,,,,1,2.85125768159,4,6.14822734881,,,,,,,,,2018_may._11_1335,60.0215079108,Experimento Piloto1,001,119,
0.25,Stim\\05_019.jpg,En19_1,Enojo,1,Juan colecciona monedas antiguas.,Afirmación,En19,19,,,,,0,44,44,44,,,,,,,,,1,2.28552431179,2,1.01682933131,,,,,,,,,2018_may._11_1335,60.0215079108,Experimento Piloto1,001,119,
0.25,Stim\\03_078.jpg,Tr78_2,Tristeza,2,Jonathan pasea al perro.,Afirmación,Tr78,78,,,,,0,45,45,45,,,,,,,,,1,3.79068538705,4,0.800196259643,,,,,,,,,2018_may._11_1335,60.0215079108,Experimento Piloto1,001,119,
2.5,Stim\\02_019.jpg,Al19_9,Alegría,9,Marco colabora en la organización del evento.,Afirmación,Al19,19,,,,,0,46,46,46,,,,,,,,,1,2.0926298212,3,0.800171269784,,,,,,,,,2018_may._11_1335,60.0215079108,Experimento Piloto1,001,119,
2.5,Stim\\03_028.jpg,Tr28_11,Tristeza,11,María asiste a la cena.,Afirmación,Tr28,28,,,,,0,47,47,47,,,,,,,,,1,1.69220838508,4,0.750251348895,,,,,,,,,2018_may._11_1335,60.0215079108,Experimento Piloto1,001,119,
2.5,Stim\\05_078.jpg,En78_6,Enojo,6,Eduardo camina hacia la biblioteca.,Afirmación,En78,78,,,,,0,48,48,48,,,,,,,,,1,1.13411789591,2,0.700181042604,,,,,,,,,2018_may._11_1335,60.0215079108,Experimento Piloto1,001,119,
2.5,Stim\\02_028.jpg,Al28_14,Alegría,14,Elizabeth elige la ropa un día antes.,Afirmación,Al28,28,,,,,0,49,49,49,,,,,,,,,1,1.68283495671,3,0.65038071604,,,,,,,,,2018_may._11_1335,60.0215079108,Experimento Piloto1,001,119,
0.25,Stim\\03_019.jpg,Tr19_10,Tristeza,10,Laura finaliza la obra.,Afirmación,Tr19,19,,,,,0,50,50,50,,,,,,,,,1,2.20918564743,2,3.66601276536,,,,,,,,,2018_may._11_1335,60.0215079108,Experimento Piloto1,001,119,
2.5,Stim\\05_019.jpg,En19_2,Enojo,2,Jonathan pasea al perro.,Afirmación,En19,19,,,,,0,51,51,51,,,,,,,,,1,2.15788057436,2,2.6997468438,,,,,,,,,2018_may._11_1335,60.0215079108,Experimento Piloto1,001,119,
0.25,Stim\\05_078.jpg,En78_5,Enojo,5,Emilio revisa el formato del archivo.,Afirmación,En78,78,,,,,0,52,52,52,,,,,,,,,1,3.94898543404,2,2.79954027584,,,,,,,,,2018_may._11_1335,60.0215079108,Experimento Piloto1,001,119,
2.5,Stim\\02_075.jpg,Al75_5,Alegría,5,Emilio revisa el formato del archivo.,Afirmación,Al75,75,,,,,0,53,53,53,,,,,,,,,1,1.64991304868,3,1.00017091279,,,,,,,,,2018_may._11_1335,60.0215079108,Experimento Piloto1,001,119,
0.25,Stim\\05_028.jpg,En28_9,Enojo,9,Marco colabora en la organización del evento.,Afirmación,En28,28,,,,,0,54,54,54,,,,,,,,,1,2.04341006261,2,1.41665145706,,,,,,,,,2018_may._11_1335,60.0215079108,Experimento Piloto1,001,119,
2.5,Stim\\03_019.jpg,Tr19_1,Tristeza,1,Juan colecciona monedas antiguas.,Afirmación,Tr19,19,,,,,0,55,55,55,,,,,,,,,1,6.30152808525,3,1.63286460985,,,,,,,,,2018_may._11_1335,60.0215079108,Experimento Piloto1,001,119,
0.25,Stim\\02_028.jpg,Al28_3,Alegría,3,Andrea diseña la portada del libro.,Afirmación,Al28,28,,,,,0,56,56,56,,,,,,,,,1,4.23146723049,3,0.700377391496,,,,,,,,,2018_may._11_1335,60.0215079108,Experimento Piloto1,001,119,
0.25,Stim\\05_028.jpg,En28_5,Enojo,5,Emilio revisa el formato del archivo.,Afirmación,En28,28,,,,,0,57,57,57,,,,,,,,,1,3.68267430761,2,2.29985108722,,,,,,,,,2018_may._11_1335,60.0215079108,Experimento Piloto1,001,119,
2.5,Stim\\03_078.jpg,Tr78_15,Tristeza,15,Ángel envía una carta a la abuela.,Afirmación,Tr78,78,,,,,0,58,58,58,,,,,,,,,1,3.93407764438,2,1.68321605206,,,,,,,,,2018_may._11_1335,60.0215079108,Experimento Piloto1,001,119,
0.25,Stim\\02_078.jpg,Al78_10,Alegría,10,Laura finaliza la obra.,Afirmación,Al78,78,,,,,0,59,59,59,,,,,,,,,1,1.74182798141,3,1.10023298581,,,,,,,,,2018_may._11_1335,60.0215079108,Experimento Piloto1,001,119,
0.25,Stim\\03_075.jpg,Tr75_7,Tristeza,7,Roberto contesta los cuestionarios solicitados.,Afirmación,Tr75,75,,,,,0,60,60,60,,,,,,,,,1,3.06028178744,4,0.750492322535,,,,,,,,,2018_may._11_1335,60.0215079108,Experimento Piloto1,001,119,
0.25,Stim\\03_075.jpg,Tr75_5,Tristeza,5,Emilio revisa el formato del archivo.,Afirmación,Tr75,75,,,,,0,61,61,61,,,,,,,,,1,1.94295663055,4,0.900156588242,,,,,,,,,2018_may._11_1335,60.0215079108,Experimento Piloto1,001,119,
0.25,Stim\\05_075.jpg,En75_14,Enojo,14,Elizabeth elige la ropa un día antes.,Afirmación,En75,75,,,,,0,62,62,62,,,,,,,,,1,1.78232940293,2,0.700254227191,,,,,,,,,2018_may._11_1335,60.0215079108,Experimento Piloto1,001,119,
0.25,Stim\\05_075.jpg,En75_2,Enojo,2,Jonathan pasea al perro.,Afirmación,En75,75,,,,,0,63,63,63,,,,,,,,,1,1.3870157155,2,0.850131352947,,,,,,,,,2018_may._11_1335,60.0215079108,Experimento Piloto1,001,119,
0.25,Stim\\02_078.jpg,Al78_6,Alegría,6,Eduardo camina hacia la biblioteca.,Afirmación,Al78,78,,,,,0,64,64,64,,,,,,,,,1,1.51741413864,3,1.06686840028,,,,,,,,,2018_may._11_1335,60.0215079108,Experimento Piloto1,001,119,
0.25,Stim\\03_075.jpg,Tr75_4,Tristeza,4,Jorge sustituye a Gustavo cada sábado.,Afirmación,Tr75,75,,,,,0,65,65,65,,,,,,,,,1,3.21580796007,4,0.600130572013,,,,,,,,,2018_may._11_1335,60.0215079108,Experimento Piloto1,001,119,
0.25,Stim\\03_075.jpg,Tr75_3,Tristeza,3,Andrea diseña la portada del libro.,Afirmación,Tr75,75,,,,,0,66,66,66,,,,,,,,,1,3.36759591755,4,0.600252397576,,,,,,,,,2018_may._11_1335,60.0215079108,Experimento Piloto1,001,119,
0.25,Stim\\02_028.jpg,Al28_10,Alegría,10,Laura finaliza la obra.,Afirmación,Al28,28,,,,,0,67,67,67,,,,,,,,,1,1.39205251083,3,0.600242580132,,,,,,,,,2018_may._11_1335,60.0215079108,Experimento Piloto1,001,119,
0.25,Stim\\03_028.jpg,Tr28_12,Tristeza,12,Ana compra el libro.,Afirmación,Tr28,28,,,,,0,68,68,68,,,,,,,,,1,1.57787085509,4,0.550342294132,,,,,,,,,2018_may._11_1335,60.0215079108,Experimento Piloto1,001,119,
0.25,Stim\\03_075.jpg,Tr75_10,Tristeza,10,Laura finaliza la obra.,Afirmación,Tr75,75,,,,,0,69,69,69,,,,,,,,,1,3.54217194897,4,1.36665433536,,,,,,,,,2018_may._11_1335,60.0215079108,Experimento Piloto1,001,119,
0.25,Stim\\02_028.jpg,Al28_8,Alegría,8,Estefanía despierta a las 7 a.m.,Afirmación,Al28,28,,,,,0,70,70,70,,,,,,,,,1,1.93713443964,3,1.01679720149,,,,,,,,,2018_may._11_1335,60.0215079108,Experimento Piloto1,001,119,
0.25,Stim\\05_078.jpg,En78_14,Enojo,14,Elizabeth elige la ropa un día antes.,Afirmación,En78,78,,,,,0,71,71,71,,,,,,,,,1,1.88361910278,2,0.650224975668,,,,,,,,,2018_may._11_1335,60.0215079108,Experimento Piloto1,001,119,
2.5,Stim\\03_078.jpg,Tr78_9,Tristeza,9,Marco colabora en la organización del evento.,Afirmación,Tr78,78,,,,,0,72,72,72,,,,,,,,,1,1.67839925673,4,0.85022997364,,,,,,,,,2018_may._11_1335,60.0215079108,Experimento Piloto1,001,119,
0.25,Stim\\02_019.jpg,Al19_3,Alegría,3,Andrea diseña la portada del libro.,Afirmación,Al19,19,,,,,0,73,73,73,,,,,,,,,1,1.33474987159,3,1.10036909129,,,,,,,,,2018_may._11_1335,60.0215079108,Experimento Piloto1,001,119,
0.25,Stim\\03_078.jpg,Tr78_6,Tristeza,6,Eduardo camina hacia la biblioteca.,Afirmación,Tr78,78,,,,,0,74,74,74,,,,,,,,,1,2.15162909337,4,0.650266030437,,,,,,,,,2018_may._11_1335,60.0215079108,Experimento Piloto1,001,119,
0.25,Stim\\03_028.jpg,Tr28_8,Tristeza,8,Estefanía despierta a las 7 a.m.,Afirmación,Tr28,28,,,,,0,75,75,75,,,,,,,,,1,2.6535700468,4,0.86660056254,,,,,,,,,2018_may._11_1335,60.0215079108,Experimento Piloto1,001,119,
2.5,Stim\\05_078.jpg,En78_9,Enojo,9,Marco colabora en la organización del evento.,Afirmación,En78,78,,,,,0,76,76,76,,,,,,,,,1,2.96129427835,2,1.21641084042,,,,,,,,,2018_may._11_1335,60.0215079108,Experimento Piloto1,001,119,
2.5,Stim\\02_028.jpg,Al28_6,Alegría,6,Eduardo camina hacia la biblioteca.,Afirmación,Al28,28,,,,,0,77,77,77,,,,,,,,,1,1.26900378373,3,0.800245793113,,,,,,,,,2018_may._11_1335,60.0215079108,Experimento Piloto1,001,119,
2.5,Stim\\03_078.jpg,Tr78_6,Tristeza,6,Eduardo camina hacia la biblioteca.,Afirmación,Tr78,78,,,,,0,78,78,78,,,,,,,,,1,2.26640216091,4,0.550364160258,,,,,,,,,2018_may._11_1335,60.0215079108,Experimento Piloto1,001,119,
2.5,Stim\\02_078.jpg,Al78_2,Alegría,2,Jonathan pasea al perro.,Afirmación,Al78,78,,,,,0,79,79,79,,,,,,,,,1,1.19171996721,3,0.650256212992,,,,,,,,,2018_may._11_1335,60.0215079108,Experimento Piloto1,001,119,
2.5,Stim\\02_028.jpg,Al28_10,Alegría,10,Laura finaliza la obra.,Afirmación,Al28,28,,,,,0,80,80,80,,,,,,,,,1,1.22536256492,3,0.450333770805,,,,,,,,,2018_may._11_1335,60.0215079108,Experimento Piloto1,001,119,
2.5,Stim\\02_019.jpg,Al19_15,Alegría,15,Ángel envía una carta a la abuela.,Afirmación,Al19,19,,,,,0,81,81,81,,,,,,,,,1,1.06952803527,3,0.500185862076,,,,,,,,,2018_may._11_1335,60.0215079108,Experimento Piloto1,001,119,
0.25,Stim\\03_019.jpg,Tr19_5,Tristeza,5,Emilio revisa el formato del archivo.,Afirmación,Tr19,19,,,,,0,82,82,82,,,,,,,,,1,3.01656738404,2,1.83320429344,,,,,,,,,2018_may._11_1335,60.0215079108,Experimento Piloto1,001,119,
0.25,Stim\\02_075.jpg,Al75_12,Alegría,12,Ana compra el libro.,Afirmación,Al75,75,,,,,0,83,83,83,,,,,,,,,1,1.99431257583,3,0.850121089254,,,,,,,,,2018_may._11_1335,60.0215079108,Experimento Piloto1,001,119,
2.5,Stim\\05_078.jpg,En78_3,Enojo,3,Andrea diseña la portada del libro.,Afirmación,En78,78,,,,,0,84,84,84,,,,,,,,,1,2.10126114001,2,0.650223190678,,,,,,,,,2018_may._11_1335,60.0215079108,Experimento Piloto1,001,119,
2.5,Stim\\03_075.jpg,Tr75_5,Tristeza,5,Emilio revisa el formato del archivo.,Afirmación,Tr75,75,,,,,0,85,85,85,,,,,,,,,1,0.967572087934,4,0.55026286208,,,,,,,,,2018_may._11_1335,60.0215079108,Experimento Piloto1,001,119,
2.5,Stim\\05_028.jpg,En28_2,Enojo,2,Jonathan pasea al perro.,Afirmación,En28,28,,,,,0,86,86,86,,,,,,,,,1,0.924457887402,2,0.800371634904,,,,,,,,,2018_may._11_1335,60.0215079108,Experimento Piloto1,001,119,
0.25,Stim\\03_028.jpg,Tr28_9,Tristeza,9,Marco colabora en la organización del evento.,Afirmación,Tr28,28,,,,,0,87,87,87,,,,,,,,,1,2.29442025535,4,1.01680523395,,,,,,,,,2018_may._11_1335,60.0215079108,Experimento Piloto1,001,119,
0.25,Stim\\03_078.jpg,Tr78_9,Tristeza,9,Marco colabora en la organización del evento.,Afirmación,Tr78,78,,,,,0,88,88,88,,,,,,,,,1,2.36609384852,4,0.850144294124,,,,,,,,,2018_may._11_1335,60.0215079108,Experimento Piloto1,001,119,
2.5,Stim\\03_075.jpg,Tr75_12,Tristeza,12,Ana compra el libro.,Afirmación,Tr75,75,,,,,0,89,89,89,,,,,,,,,1,0.977953143122,4,0.750265628814,,,,,,,,,2018_may._11_1335,60.0215079108,Experimento Piloto1,001,119,
2.5,Stim\\05_078.jpg,En78_11,Enojo,11,María asiste a la cena.,Afirmación,En78,78,,,,,0,90,90,90,,,,,,,,,1,0.875458575069,2,0.966734035162,,,,,,,,,2018_may._11_1335,60.0215079108,Experimento Piloto1,001,119,
2.5,Stim\\02_075.jpg,Al75_14,Alegría,14,Elizabeth elige la ropa un día antes.,Afirmación,Al75,75,,,,,0,91,91,91,,,,,,,,,1,0.916571355642,3,0.533602212317,,,,,,,,,2018_may._11_1335,60.0215079108,Experimento Piloto1,001,119,
0.25,Stim\\03_019.jpg,Tr19_7,Tristeza,7,Roberto contesta los cuestionarios solicitados.,Afirmación,Tr19,19,,,,,0,92,92,92,,,,,,,,,1,2.29382451496,3,0.866806728877,,,,,,,,,2018_may._11_1335,60.0215079108,Experimento Piloto1,001,119,
0.25,Stim\\05_075.jpg,En75_5,Enojo,5,Emilio revisa el formato del archivo.,Afirmación,En75,75,,,,,0,93,93,93,,,,,,,,,1,4.28337786139,2,1.06704422179,,,,,,,,,2018_may._11_1335,60.0215079108,Experimento Piloto1,001,119,
2.5,Stim\\05_019.jpg,En19_14,Enojo,14,Elizabeth elige la ropa un día antes.,Afirmación,En19,19,,,,,0,94,94,94,,,,,,,,,1,0.101370916891,2,1.61668278364,,,,,,,,,2018_may._11_1335,60.0215079108,Experimento Piloto1,001,119,
0.25,Stim\\02_075.jpg,Al75_2,Alegría,2,Jonathan pasea al perro.,Afirmación,Al75,75,,,,,0,95,95,95,,,,,,,,,1,1.692177594,2,1.01690474714,,,,,,,,,2018_may._11_1335,60.0215079108,Experimento Piloto1,001,119,
2.5,Stim\\03_028.jpg,Tr28_10,Tristeza,10,Laura finaliza la obra.,Afirmación,Tr28,28,,,,,0,96,96,96,,,,,,,,,1,0.961462959897,4,1.38334622245,,,,,,,,,2018_may._11_1335,60.0215079108,Experimento Piloto1,001,119,
2.5,Stim\\02_078.jpg,Al78_3,Alegría,3,Andrea diseña la portada del libro.,Afirmación,Al78,78,,,,,0,97,97,97,,,,,,,,,1,1.83374782287,3,3.41609587895,,,,,,,,,2018_may._11_1335,60.0215079108,Experimento Piloto1,001,119,
2.5,Stim\\05_075.jpg,En75_3,Enojo,3,Andrea diseña la portada del libro.,Afirmación,En75,75,,,,,0,98,98,98,,,,,,,,,1,1.50006939148,2,1.11677716498,,,,,,,,,2018_may._11_1335,60.0215079108,Experimento Piloto1,001,119,
2.5,Stim\\03_075.jpg,Tr75_3,Tristeza,3,Andrea diseña la portada del libro.,Afirmación,Tr75,75,,,,,0,99,99,99,,,,,,,,,1,1.19971984583,4,0.90006644625,,,,,,,,,2018_may._11_1335,60.0215079108,Experimento Piloto1,001,119,
2.5,Stim\\03_075.jpg,Tr75_7,Tristeza,7,Roberto contesta los cuestionarios solicitados.,Afirmación,Tr75,75,,,,,0,100,100,100,,,,,,,,,1,3.36603315887,4,1.61670554226,,,,,,,,,2018_may._11_1335,60.0215079108,Experimento Piloto1,001,119,
2.5,Stim\\03_019.jpg,Tr19_14,Tristeza,14,Elizabeth elige la ropa un día antes.,Afirmación,Tr19,19,,,,,0,101,101,101,,,,,,,,,1,1.58328963827,2,1.98319030358,,,,,,,,,2018_may._11_1335,60.0215079108,Experimento Piloto1,001,119,
2.5,Stim\\05_078.jpg,En78_5,Enojo,5,Emilio revisa el formato del archivo.,Afirmación,En78,78,,,,,0,102,102,102,,,,,,,,,1,1.63411053282,2,1.21672901488,,,,,,,,,2018_may._11_1335,60.0215079108,Experimento Piloto1,001,119,
2.5,Stim\\02_078.jpg,Al78_12,Alegría,12,Ana compra el libro.,Afirmación,Al78,78,,,,,0,103,103,103,,,,,,,,,1,0.876756262749,3,0.800387699813,,,,,,,,,2018_may._11_1335,60.0215079108,Experimento Piloto1,001,119,
2.5,Stim\\02_028.jpg,Al28_13,Alegría,13,Rocío consume alimentos nutritivos.,Afirmación,Al28,28,,,,,0,104,104,104,,,,,,,,,1,1.85077975054,3,1.26661591345,,,,,,,,,2018_may._11_1335,60.0215079108,Experimento Piloto1,001,119,
2.5,Stim\\05_028.jpg,En28_4,Enojo,4,Jorge sustituye a Gustavo cada sábado.,Afirmación,En28,28,,,,,0,105,105,105,,,,,,,,,1,1.53339827722,2,1.00009014199,,,,,,,,,2018_may._11_1335,60.0215079108,Experimento Piloto1,001,119,
0.25,Stim\\02_028.jpg,Al28_7,Alegría,7,Roberto contesta los cuestionarios solicitados.,Afirmación,Al28,28,,,,,0,106,106,106,,,,,,,,,1,3.94304543379,3,0.533708419217,,,,,,,,,2018_may._11_1335,60.0215079108,Experimento Piloto1,001,119,
0.25,Stim\\02_078.jpg,Al78_12,Alegría,12,Ana compra el libro.,Afirmación,Al78,78,,,,,0,107,107,107,,,,,,,,,1,3.07650109844,3,0.45032038338,,,,,,,,,2018_may._11_1335,60.0215079108,Experimento Piloto1,001,119,
2.5,Stim\\02_028.jpg,Al28_7,Alegría,7,Roberto contesta los cuestionarios solicitados.,Afirmación,Al28,28,,,,,0,108,108,108,,,,,,,,,1,1.57820286321,3,0.550294099404,,,,,,,,,2018_may._11_1335,60.0215079108,Experimento Piloto1,001,119,
0.25,Stim\\02_075.jpg,Al75_7,Alegría,7,Roberto contesta los cuestionarios solicitados.,Afirmación,Al75,75,,,,,0,109,109,109,,,,,,,,,1,2.36641648545,3,0.483831338086,,,,,,,,,2018_may._11_1335,60.0215079108,Experimento Piloto1,001,119,
0.25,Stim\\05_075.jpg,En75_10,Enojo,10,Laura finaliza la obra.,Afirmación,En75,75,,,,,0,110,110,110,,,,,,,,,1,2.52491020385,2,1.81667127045,,,,,,,,,2018_may._11_1335,60.0215079108,Experimento Piloto1,001,119,
2.5,Stim\\05_028.jpg,En28_8,Enojo,8,Estefanía despierta a las 7 a.m.,Afirmación,En28,28,,,,,0,111,111,111,,,,,,,,,1,1.3366888169,2,0.950282675468,,,,,,,,,2018_may._11_1335,60.0215079108,Experimento Piloto1,001,119,
0.25,Stim\\03_075.jpg,Tr75_6,Tristeza,6,Eduardo camina hacia la biblioteca.,Afirmación,Tr75,75,,,,,0,112,112,112,,,,,,,,,1,1.90179833273,4,0.750161206903,,,,,,,,,2018_may._11_1335,60.0215079108,Experimento Piloto1,001,119,
0.25,Stim\\02_078.jpg,Al78_4,Alegría,4,Jorge sustituye a Gustavo cada sábado.,Afirmación,Al78,78,,,,,0,113,113,113,,,,,,,,,1,1.5161798181,3,0.916788678166,,,,,,,,,2018_may._11_1335,60.0215079108,Experimento Piloto1,001,119,
2.5,Stim\\02_019.jpg,Al19_13,Alegría,13,Rocío consume alimentos nutritivos.,Afirmación,Al19,19,,,,,0,114,114,114,,,,,,,,,1,1.58428477015,3,0.450294947274,,,,,,,,,2018_may._11_1335,60.0215079108,Experimento Piloto1,001,119,
0.25,Stim\\02_078.jpg,Al78_15,Alegría,15,Ángel envía una carta a la abuela.,Afirmación,Al78,78,,,,,0,115,115,115,,,,,,,,,1,1.88452364643,3,0.483597058158,,,,,,,,,2018_may._11_1335,60.0215079108,Experimento Piloto1,001,119,
2.5,Stim\\05_019.jpg,En19_4,Enojo,4,Jorge sustituye a Gustavo cada sábado.,Afirmación,En19,19,,,,,0,116,116,116,,,,,,,,,1,1.28154601548,2,1.46654817309,,,,,,,,,2018_may._11_1335,60.0215079108,Experimento Piloto1,001,119,
2.5,Stim\\05_075.jpg,En75_9,Enojo,9,Marco colabora en la organización del evento.,Afirmación,En75,75,,,,,0,117,117,117,,,,,,,,,1,1.57855852246,2,1.63317162812,,,,,,,,,2018_may._11_1335,60.0215079108,Experimento Piloto1,001,119,
0.25,Stim\\05_078.jpg,En78_8,Enojo,8,Estefanía despierta a las 7 a.m.,Afirmación,En78,78,,,,,0,118,118,118,,,,,,,,,1,1.32045076351,2,0.916416954013,,,,,,,,,2018_may._11_1335,60.0215079108,Experimento Piloto1,001,119,
0.25,Stim\\03_075.jpg,Tr75_12,Tristeza,12,Ana compra el libro.,Afirmación,Tr75,75,,,,,0,119,119,119,,,,,,,,,1,1.67764465224,4,0.816869404335,,,,,,,,,2018_may._11_1335,60.0215079108,Experimento Piloto1,001,119,
2.5,Stim\\03_028.jpg,Tr28_1,Tristeza,1,Juan colecciona monedas antiguas.,Afirmación,Tr28,28,,,,,,,,,0,0,0,0,,,,,,,,,1,2.13543030975,4,0.799964210952,,,,,2018_may._11_1335,60.0215079108,Experimento Piloto1,001,119,
0.25,Stim\\03_019.jpg,Tr19_1,Tristeza,1,Juan colecciona monedas antiguas.,Afirmación,Tr19,19,,,,,,,,,0,1,1,1,,,,,,,,,1,2.16634722784,3,0.65024951928,,,,,2018_may._11_1335,60.0215079108,Experimento Piloto1,001,119,
2.5,Stim\\03_078.jpg,Tr78_10,Tristeza,10,Laura finaliza la obra.,Afirmación,Tr78,78,,,,,,,,,0,2,2,2,,,,,,,,,1,1.07516235599,4,0.800345306302,,,,,2018_may._11_1335,60.0215079108,Experimento Piloto1,001,119,
0.25,Stim\\02_075.jpg,Al75_5,Alegría,5,Emilio revisa el formato del archivo.,Afirmación,Al75,75,,,,,,,,,0,3,3,3,,,,,,,,,1,1.78330311494,3,4.34930378699,,,,,2018_may._11_1335,60.0215079108,Experimento Piloto1,001,119,
0.25,Stim\\02_019.jpg,Al19_15,Alegría,15,Ángel envía una carta a la abuela.,Afirmación,Al19,19,,,,,,,,,0,4,4,4,,,,,,,,,1,2.35087859436,3,0.649988464503,,,,,2018_may._11_1335,60.0215079108,Experimento Piloto1,001,119,
2.5,Stim\\02_075.jpg,Al75_7,Alegría,7,Roberto contesta los cuestionarios solicitados.,Afirmación,Al75,75,,,,,,,,,0,5,5,5,,,,,,,,,1,1.41162314043,3,1.73322656119,,,,,2018_may._11_1335,60.0215079108,Experimento Piloto1,001,119,
0.25,Stim\\03_075.jpg,Tr75_8,Tristeza,8,Estefanía despierta a las 7 a.m.,Afirmación,Tr75,75,,,,,,,,,0,6,6,6,,,,,,,,,1,2.7529721198,4,0.866924984459,,,,,2018_may._11_1335,60.0215079108,Experimento Piloto1,001,119,
0.25,Stim\\02_019.jpg,Al19_11,Alegría,11,María asiste a la cena.,Afirmación,Al19,19,,,,,,,,,0,7,7,7,,,,,,,,,1,2.04176073192,3,0.70028457202,,,,,2018_may._11_1335,60.0215079108,Experimento Piloto1,001,119,
2.5,Stim\\02_019.jpg,Al19_2,Alegría,2,Jonathan pasea al perro.,Afirmación,Al19,19,,,,,,,,,0,8,8,8,,,,,,,,,1,1.24195270758,3,0.700139987835,,,,,2018_may._11_1335,60.0215079108,Experimento Piloto1,001,119,
2.5,Stim\\05_075.jpg,En75_5,Enojo,5,Emilio revisa el formato del archivo.,Afirmación,En75,75,,,,,,,,,0,9,9,9,,,,,,,,,1,1.53189977817,2,0.950055089252,,,,,2018_may._11_1335,60.0215079108,Experimento Piloto1,001,119,
0.25,Stim\\03_078.jpg,Tr78_10,Tristeza,10,Laura finaliza la obra.,Afirmación,Tr78,78,,,,,,,,,0,10,10,10,,,,,,,,,1,2.50884752571,4,1.21689858892,,,,,2018_may._11_1335,60.0215079108,Experimento Piloto1,001,119,
0.25,Stim\\02_019.jpg,Al19_6,Alegría,6,Eduardo camina hacia la biblioteca.,Afirmación,Al19,19,,,,,,,,,0,11,11,11,,,,,,,,,1,1.78452851053,3,0.866493016896,,,,,2018_may._11_1335,60.0215079108,Experimento Piloto1,001,119,
2.5,Stim\\05_019.jpg,En19_3,Enojo,3,Andrea diseña la portada del libro.,Afirmación,En19,19,,,,,,,,,0,12,12,12,,,,,,,,,1,2.1849316505,2,0.716893010827,,,,,2018_may._11_1335,60.0215079108,Experimento Piloto1,001,119,
0.25,Stim\\05_019.jpg,En19_3,Enojo,3,Andrea diseña la portada del libro.,Afirmación,En19,19,,,,,,,,,0,13,13,13,,,,,,,,,1,1.99992592292,2,0.650362419893,,,,,2018_may._11_1335,60.0215079108,Experimento Piloto1,001,119,
2.5,Stim\\02_028.jpg,Al28_1,Alegría,1,Juan colecciona monedas antiguas.,Afirmación,Al28,28,,,,,,,,,0,14,14,14,,,,,,,,,1,0.819336706667,3,1.05018008317,,,,,2018_may._11_1335,60.0215079108,Experimento Piloto1,001,119,
0.25,Stim\\02_019.jpg,Al19_2,Alegría,2,Jonathan pasea al perro.,Afirmación,Al19,19,,,,,,,,,0,15,15,15,,,,,,,,,1,3.34044934444,3,0.600251505081,,,,,2018_may._11_1335,60.0215079108,Experimento Piloto1,001,119,
0.25,Stim\\05_028.jpg,En28_11,Enojo,11,María asiste a la cena.,Afirmación,En28,28,,,,,,,,,0,16,16,16,,,,,,,,,1,2.29260224311,2,1.16693627452,,,,,2018_may._11_1335,60.0215079108,Experimento Piloto1,001,119,
0.25,Stim\\03_028.jpg,Tr28_1,Tristeza,1,Juan colecciona monedas antiguas.,Afirmación,Tr28,28,,,,,,,,,0,17,17,17,,,,,,,,,1,1.63607402175,4,0.800258734291,,,,,2018_may._11_1335,60.0215079108,Experimento Piloto1,001,119,
0.25,Stim\\03_078.jpg,Tr78_1,Tristeza,1,Juan colecciona monedas antiguas.,Afirmación,Tr78,78,,,,,,,,,0,18,18,18,,,,,,,,,1,1.60006631238,4,0.950270180538,,,,,2018_may._11_1335,60.0215079108,Experimento Piloto1,001,119,
0.25,Stim\\02_019.jpg,Al19_1,Alegría,1,Juan colecciona monedas antiguas.,Afirmación,Al19,19,,,,,,,,,0,19,19,19,,,,,,,,,1,2.36647271264,3,0.80032790265,,,,,2018_may._11_1335,60.0215079108,Experimento Piloto1,001,119,
0.25,Stim\\02_019.jpg,Al19_10,Alegría,10,Laura finaliza la obra.,Afirmación,Al19,19,,,,,,,,,0,20,20,20,,,,,,,,,1,2.50613835725,3,0.600405460463,,,,,2018_may._11_1335,60.0215079108,Experimento Piloto1,001,119,
2.5,Stim\\03_019.jpg,Tr19_13,Tristeza,13,Rocío consume alimentos nutritivos.,Afirmación,Tr19,19,,,,,,,,,0,21,21,21,,,,,,,,,1,3.18427700545,2,0.70020647871,,,,,2018_may._11_1335,60.0215079108,Experimento Piloto1,001,119,
2.5,Stim\\05_075.jpg,En75_6,Enojo,6,Eduardo camina hacia la biblioteca.,Afirmación,En75,75,,,,,,,,,0,22,22,22,,,,,,,,,1,1.58425130159,2,1.21666073901,,,,,2018_may._11_1335,60.0215079108,Experimento Piloto1,001,119,
0.25,Stim\\05_078.jpg,En78_10,Enojo,10,Laura finaliza la obra.,Afirmación,En78,78,,,,,,,,,0,23,23,23,,,,,,,,,1,3.73925134845,2,0.600171180534,,,,,2018_may._11_1335,60.0215079108,Experimento Piloto1,001,119,
2.5,Stim\\05_075.jpg,En75_14,Enojo,14,Elizabeth elige la ropa un día antes.,Afirmación,En75,75,,,,,,,,,0,24,24,24,,,,,,,,,1,1.43360930765,2,0.750912687664,,,,,2018_may._11_1335,60.0215079108,Experimento Piloto1,001,119,
0.25,Stim\\05_019.jpg,En19_7,Enojo,7,Roberto contesta los cuestionarios solicitados.,Afirmación,En19,19,,,,,,,,,0,25,25,25,,,,,,,,,1,1.41092699436,2,0.900243606501,,,,,2018_may._11_1335,60.0215079108,Experimento Piloto1,001,119,
0.25,Stim\\02_078.jpg,Al78_14,Alegría,14,Elizabeth elige la ropa un día antes.,Afirmación,Al78,78,,,,,,,,,0,26,26,26,,,,,,,,,1,1.48316509059,3,0.800063724141,,,,,2018_may._11_1335,60.0215079108,Experimento Piloto1,001,119,
0.25,Stim\\03_028.jpg,Tr28_13,Tristeza,13,Rocío consume alimentos nutritivos.,Afirmación,Tr28,28,,,,,,,,,0,27,27,27,,,,,,,,,1,1.43455133609,4,0.600259983783,,,,,2018_may._11_1335,60.0215079108,Experimento Piloto1,001,119,
2.5,Stim\\03_019.jpg,Tr19_8,Tristeza,8,Estefanía despierta a las 7 a.m.,Afirmación,Tr19,19,,,,,,,,,0,28,28,28,,,,,,,,,1,1.93703938893,2,0.600178766741,,,,,2018_may._11_1335,60.0215079108,Experimento Piloto1,001,119,
2.5,Stim\\02_019.jpg,Al19_8,Alegría,8,Estefanía despierta a las 7 a.m.,Afirmación,Al19,19,,,,,,,,,0,29,29,29,,,,,,,,,1,0.883510218398,3,0.966784461127,,,,,2018_may._11_1335,60.0215079108,Experimento Piloto1,001,119,
2.5,Stim\\02_028.jpg,Al28_9,Alegría,9,Marco colabora en la organización del evento.,Afirmación,Al28,28,,,,,,,,,0,30,30,30,,,,,,,,,1,1.52779162385,3,0.800219018264,,,,,2018_may._11_1335,60.0215079108,Experimento Piloto1,001,119,
2.5,Stim\\03_075.jpg,Tr75_1,Tristeza,1,Juan colecciona monedas antiguas.,Afirmación,Tr75,75,,,,,,,,,0,31,31,31,,,,,,,,,1,1.11811813867,4,0.600413492918,,,,,2018_may._11_1335,60.0215079108,Experimento Piloto1,001,119,
2.5,Stim\\05_078.jpg,En78_8,Enojo,8,Estefanía despierta a las 7 a.m.,Afirmación,En78,78,,,,,,,,,0,32,32,32,,,,,,,,,1,1.0706485627,2,0.866924538212,,,,,2018_may._11_1335,60.0215079108,Experimento Piloto1,001,119,
0.25,Stim\\02_028.jpg,Al28_12,Alegría,12,Ana compra el libro.,Afirmación,Al28,28,,,,,,,,,0,33,33,33,,,,,,,,,1,1.64337061434,3,0.483539492233,,,,,2018_may._11_1335,60.0215079108,Experimento Piloto1,001,119,
0.25,Stim\\05_075.jpg,En75_1,Enojo,1,Juan colecciona monedas antiguas.,Afirmación,En75,75,,,,,,,,,0,34,34,34,,,,,,,,,1,1.68548968298,2,2.54964257808,,,,,2018_may._11_1335,60.0215079108,Experimento Piloto1,001,119,
0.25,Stim\\03_028.jpg,Tr28_4,Tristeza,4,Jorge sustituye a Gustavo cada sábado.,Afirmación,Tr28,28,,,,,,,,,0,35,35,35,,,,,,,,,1,2.24904848881,4,0.95010506897,,,,,2018_may._11_1335,60.0215079108,Experimento Piloto1,001,119,
2.5,Stim\\03_078.jpg,Tr78_3,Tristeza,3,Andrea diseña la portada del libro.,Afirmación,Tr78,78,,,,,,,,,0,36,36,36,,,,,,,,,1,3.38464346388,4,0.900276182567,,,,,2018_may._11_1335,60.0215079108,Experimento Piloto1,001,119,
0.25,Stim\\05_078.jpg,En78_4,Enojo,4,Jorge sustituye a Gustavo cada sábado.,Afirmación,En78,78,,,,,,,,,0,37,37,37,,,,,,,,,1,1.43362091009,2,0.800085590267,,,,,2018_may._11_1335,60.0215079108,Experimento Piloto1,001,119,
2.5,Stim\\03_019.jpg,Tr19_7,Tristeza,7,Roberto contesta los cuestionarios solicitados.,Afirmación,Tr19,19,,,,,,,,,0,38,38,38,,,,,,,,,1,4.09394937501,3,1.61655604935,,,,,2018_may._11_1335,60.0215079108,Experimento Piloto1,001,119,
0.25,Stim\\02_078.jpg,Al78_2,Alegría,2,Jonathan pasea al perro.,Afirmación,Al78,78,,,,,,,,,0,39,39,39,,,,,,,,,1,2.30842751758,3,0.750200922929,,,,,2018_may._11_1335,60.0215079108,Experimento Piloto1,001,119,
0.25,Stim\\02_078.jpg,Al78_5,Alegría,5,Emilio revisa el formato del archivo.,Afirmación,Al78,78,,,,,,,,,0,40,40,40,,,,,,,,,1,1.63314172954,3,1.116640167,,,,,2018_may._11_1335,60.0215079108,Experimento Piloto1,001,119,
2.5,Stim\\05_019.jpg,En19_11,Enojo,11,María asiste a la cena.,Afirmación,En19,19,,,,,,,,,0,41,41,41,,,,,,,,,1,0.975384096364,2,0.80020920082,,,,,2018_may._11_1335,60.0215079108,Experimento Piloto1,001,119,
2.5,Stim\\02_028.jpg,Al28_15,Alegría,15,Ángel envía una carta a la abuela.,Afirmación,Al28,28,,,,,,,,,0,42,42,42,,,,,,,,,1,1.48492152069,3,0.900301618673,,,,,2018_may._11_1335,60.0215079108,Experimento Piloto1,001,119,
0.25,Stim\\03_019.jpg,Tr19_4,Tristeza,4,Jorge sustituye a Gustavo cada sábado.,Afirmación,Tr19,19,,,,,,,,,0,43,43,43,,,,,,,,,1,3.16608438808,4,3.83250546988,,,,,2018_may._11_1335,60.0215079108,Experimento Piloto1,001,119,
2.5,Stim\\02_075.jpg,Al75_12,Alegría,12,Ana compra el libro.,Afirmación,Al75,75,,,,,,,,,0,44,44,44,,,,,,,,,1,0.677180554855,3,0.550335600419,,,,,2018_may._11_1335,60.0215079108,Experimento Piloto1,001,119,
2.5,Stim\\05_028.jpg,En28_12,Enojo,12,Ana compra el libro.,Afirmación,En28,28,,,,,,,,,0,45,45,45,,,,,,,,,1,1.18347108249,2,0.600180997979,,,,,2018_may._11_1335,60.0215079108,Experimento Piloto1,001,119,
0.25,Stim\\02_028.jpg,Al28_14,Alegría,14,Elizabeth elige la ropa un día antes.,Afirmación,Al28,28,,,,,,,,,0,46,46,46,,,,,,,,,1,1.31723510415,3,0.450350728209,,,,,2018_may._11_1335,60.0215079108,Experimento Piloto1,001,119,
2.5,Stim\\03_075.jpg,Tr75_6,Tristeza,6,Eduardo camina hacia la biblioteca.,Afirmación,Tr75,75,,,,,,,,,0,47,47,47,,,,,,,,,1,0.918533505823,4,0.5002969777,,,,,2018_may._11_1335,60.0215079108,Experimento Piloto1,001,119,
0.25,Stim\\05_028.jpg,En28_8,Enojo,8,Estefanía despierta a las 7 a.m.,Afirmación,En28,28,,,,,,,,,0,48,48,48,,,,,,,,,1,1.12036722598,2,0.650283880336,,,,,2018_may._11_1335,60.0215079108,Experimento Piloto1,001,119,
2.5,Stim\\05_019.jpg,En19_7,Enojo,7,Roberto contesta los cuestionarios solicitados.,Afirmación,En19,19,,,,,,,,,0,49,49,49,,,,,,,,,1,1.47415490767,2,0.650276740377,,,,,2018_may._11_1335,60.0215079108,Experimento Piloto1,001,119,
2.5,Stim\\02_019.jpg,Al19_10,Alegría,10,Laura finaliza la obra.,Afirmación,Al19,19,,,,,,,,,0,50,50,50,,,,,,,,,1,0.659377957784,3,0.550462780952,,,,,2018_may._11_1335,60.0215079108,Experimento Piloto1,001,119,
0.25,Stim\\05_028.jpg,En28_14,Enojo,14,Elizabeth elige la ropa un día antes.,Afirmación,En28,28,,,,,,,,,0,51,51,51,,,,,,,,,1,1.43201665039,2,1.26662974712,,,,,2018_may._11_1335,60.0215079108,Experimento Piloto1,001,119,
2.5,Stim\\03_028.jpg,Tr28_8,Tristeza,8,Estefanía despierta a las 7 a.m.,Afirmación,Tr28,28,,,,,,,,,0,52,52,52,,,,,,,,,1,0.868409203587,4,0.700198892503,,,,,2018_may._11_1335,60.0215079108,Experimento Piloto1,001,119,
0.25,Stim\\02_075.jpg,Al75_3,Alegría,3,Andrea diseña la portada del libro.,Afirmación,Al75,75,,,,,,,,,0,53,53,53,,,,,,,,,1,1.21878353829,3,0.900320361068,,,,,2018_may._11_1335,60.0215079108,Experimento Piloto1,001,119,
0.25,Stim\\02_028.jpg,Al28_1,Alegría,1,Juan colecciona monedas antiguas.,Afirmación,Al28,28,,,,,,,,,0,54,54,54,,,,,,,,,1,1.11932791559,3,0.700227452342,,,,,2018_may._11_1335,60.0215079108,Experimento Piloto1,001,119,
0.25,Stim\\03_028.jpg,Tr28_3,Tristeza,3,Andrea diseña la portada del libro.,Afirmación,Tr28,28,,,,,,,,,0,55,55,55,,,,,,,,,1,1.68464806023,4,1.16676000677,,,,,2018_may._11_1335,60.0215079108,Experimento Piloto1,001,119,
2.5,Stim\\02_078.jpg,Al78_11,Alegría,11,María asiste a la cena.,Afirmación,Al78,78,,,,,,,,,0,56,56,56,,,,,,,,,1,1.64246205446,3,0.550186107512,,,,,2018_may._11_1335,60.0215079108,Experimento Piloto1,001,119,
0.25,Stim\\03_019.jpg,Tr19_12,Tristeza,12,Ana compra el libro.,Afirmación,Tr19,19,,,,,,,,,0,57,57,57,,,,,,,,,1,1.69402907481,3,1.3167290595,,,,,2018_may._11_1335,60.0215079108,Experimento Piloto1,001,119,
2.5,Stim\\02_078.jpg,Al78_14,Alegría,14,Elizabeth elige la ropa un día antes.,Afirmación,Al78,78,,,,,,,,,0,58,58,58,,,,,,,,,1,0.146615502905,3,1.66660761325,,,,,2018_may._11_1335,60.0215079108,Experimento Piloto1,001,119,
0.25,Stim\\03_019.jpg,Tr19_2,Tristeza,2,Jonathan pasea al perro.,Afirmación,Tr19,19,,,,,,,,,0,59,59,59,,,,,,,,,1,2.00736933093,2,0.64999248073,,,,,2018_may._11_1335,60.0215079108,Experimento Piloto1,001,119,
2.5,Stim\\03_078.jpg,Tr78_1,Tristeza,1,Juan colecciona monedas antiguas.,Afirmación,Tr78,78,,,,,,,,,0,60,60,60,,,,,,,,,1,1.22027088115,4,2.08317651453,,,,,2018_may._11_1335,60.0215079108,Experimento Piloto1,001,119,
0.25,Stim\\03_078.jpg,Tr78_4,Tristeza,4,Jorge sustituye a Gustavo cada sábado.,Afirmación,Tr78,78,,,,,,,,,0,61,61,61,,,,,,,,,1,3.33164086538,4,0.900085634892,,,,,2018_may._11_1335,60.0215079108,Experimento Piloto1,001,119,
0.25,Stim\\05_019.jpg,En19_14,Enojo,14,Elizabeth elige la ropa un día antes.,Afirmación,En19,19,,,,,,,,,0,62,62,62,,,,,,,,,1,1.53260038672,2,0.700315363096,,,,,2018_may._11_1335,60.0215079108,Experimento Piloto1,001,119,
0.25,Stim\\02_075.jpg,Al75_15,Alegría,15,Ángel envía una carta a la abuela.,Afirmación,Al75,75,,,,,,,,,0,63,63,63,,,,,,,,,1,2.55117677692,3,0.550260184595,,,,,2018_may._11_1335,60.0215079108,Experimento Piloto1,001,119,
2.5,Stim\\03_028.jpg,Tr28_2,Tristeza,2,Jonathan pasea al perro.,Afirmación,Tr28,28,,,,,,,,,0,64,64,64,,,,,,,,,1,0.706919379591,4,0.600359943219,,,,,2018_may._11_1335,60.0215079108,Experimento Piloto1,001,119,
0.25,Stim\\05_028.jpg,En28_3,Enojo,3,Andrea diseña la portada del libro.,Afirmación,En28,28,,,,,,,,,0,65,65,65,,,,,,,,,1,2.66778526036,2,0.599920835697,,,,,2018_may._11_1335,60.0215079108,Experimento Piloto1,001,119,
0.25,Stim\\05_078.jpg,En78_3,Enojo,3,Andrea diseña la portada del libro.,Afirmación,En78,78,,,,,,,,,0,66,66,66,,,,,,,,,1,1.68320980459,2,0.600301038552,,,,,2018_may._11_1335,60.0215079108,Experimento Piloto1,001,119,
0.25,Stim\\05_075.jpg,En75_9,Enojo,9,Marco colabora en la organización del evento.,Afirmación,En75,75,,,,,,,,,0,67,67,67,,,,,,,,,1,1.42931239064,2,1.00045383369,,,,,2018_may._11_1335,60.0215079108,Experimento Piloto1,001,119,
2.5,Stim\\05_075.jpg,En75_7,Enojo,7,Roberto contesta los cuestionarios solicitados.,Afirmación,En75,75,,,,,,,,,0,68,68,68,,,,,,,,,1,1.02834385511,2,0.583687691022,,,,,2018_may._11_1335,60.0215079108,Experimento Piloto1,001,119,
0.25,Stim\\03_078.jpg,Tr78_14,Tristeza,14,Elizabeth elige la ropa un día antes.,Afirmación,Tr78,78,,,,,,,,,0,69,69,69,,,,,,,,,1,1.68377341516,4,0.750246440172,,,,,2018_may._11_1335,60.0215079108,Experimento Piloto1,001,119,
2.5,Stim\\03_019.jpg,Tr19_5,Tristeza,5,Emilio revisa el formato del archivo.,Afirmación,Tr19,19,,,,,,,,,0,70,70,70,,,,,,,,,1,1.58316290398,2,1.73320424881,,,,,2018_may._11_1335,60.0215079108,Experimento Piloto1,001,119,
2.5,Stim\\05_028.jpg,En28_13,Enojo,13,Rocío consume alimentos nutritivos.,Afirmación,En28,28,,,,,,,,,0,71,71,71,,,,,,,,,1,2.44835020074,2,1.38314451859,,,,,2018_may._11_1335,60.0215079108,Experimento Piloto1,001,119,
0.25,Stim\\05_075.jpg,En75_15,Enojo,15,Ángel envía una carta a la abuela.,Afirmación,En75,75,,,,,,,,,0,72,72,72,,,,,,,,,1,1.78613143149,2,1.4165381102,,,,,2018_may._11_1335,60.0215079108,Experimento Piloto1,001,119,
2.5,Stim\\05_019.jpg,En19_6,Enojo,6,Eduardo camina hacia la biblioteca.,Afirmación,En19,19,,,,,,,,,0,73,73,73,,,,,,,,,1,0.968019227912,2,1.98314389384,,,,,2018_may._11_1335,60.0215079108,Experimento Piloto1,001,119,
2.5,Stim\\05_078.jpg,En78_10,Enojo,10,Laura finaliza la obra.,Afirmación,En78,78,,,,,,,,,0,74,74,74,,,,,,,,,1,0.975443001032,2,1.31645640229,,,,,2018_may._11_1335,60.0215079108,Experimento Piloto1,001,119,
2.5,Stim\\05_019.jpg,En19_9,Enojo,9,Marco colabora en la organización del evento.,Afirmación,En19,19,,,,,,,,,0,75,75,75,,,,,,,,,1,1.42939896265,2,1.11644738809,,,,,2018_may._11_1335,60.0215079108,Experimento Piloto1,001,119,
2.5,Stim\\02_078.jpg,Al78_6,Alegría,6,Eduardo camina hacia la biblioteca.,Afirmación,Al78,78,,,,,,,,,0,76,76,76,,,,,,,,,1,1.3663906031,3,0.600350125775,,,,,2018_may._11_1335,60.0215079108,Experimento Piloto1,001,119,
2.5,Stim\\05_078.jpg,En78_13,Enojo,13,Rocío consume alimentos nutritivos.,Afirmación,En78,78,,,,,,,,,0,77,77,77,,,,,,,,,1,2.56761519544,2,1.41671973293,,,,,2018_may._11_1335,60.0215079108,Experimento Piloto1,001,119,
0.25,Stim\\05_028.jpg,En28_2,Enojo,2,Jonathan pasea al perro.,Afirmación,En28,28,,,,,,,,,0,78,78,78,,,,,,,,,1,3.89129455948,2,0.500252352951,,,,,2018_may._11_1335,60.0215079108,Experimento Piloto1,001,119,
0.25,Stim\\05_019.jpg,En19_6,Enojo,6,Eduardo camina hacia la biblioteca.,Afirmación,En19,19,,,,,,,,,0,79,79,79,,,,,,,,,1,2.35141230635,2,0.550146391487,,,,,2018_may._11_1335,60.0215079108,Experimento Piloto1,001,119,
2.5,Stim\\03_019.jpg,Tr19_11,Tristeza,11,María asiste a la cena.,Afirmación,Tr19,19,,,,,,,,,0,80,80,80,,,,,,,,,1,1.22516175356,3,0.450224886419,,,,,2018_may._11_1335,60.0215079108,Experimento Piloto1,001,119,
2.5,Stim\\05_028.jpg,En28_11,Enojo,11,María asiste a la cena.,Afirmación,En28,28,,,,,,,,,0,81,81,81,,,,,,,,,1,0.783574879658,2,0.750258935102,,,,,2018_may._11_1335,60.0215079108,Experimento Piloto1,001,119,
0.25,Stim\\02_078.jpg,Al78_9,Alegría,9,Marco colabora en la organización del evento.,Afirmación,Al78,78,,,,,,,,,0,82,82,82,,,,,,,,,1,2.44532464281,3,0.499940425961,,,,,2018_may._11_1335,60.0215079108,Experimento Piloto1,001,119,
0.25,Stim\\05_019.jpg,En19_13,Enojo,13,Rocío consume alimentos nutritivos.,Afirmación,En19,19,,,,,,,,,0,83,83,83,,,,,,,,,1,1.88477131378,2,1.10026690062,,,,,2018_may._11_1335,60.0215079108,Experimento Piloto1,001,119,
0.25,Stim\\03_078.jpg,Tr78_11,Tristeza,11,María asiste a la cena.,Afirmación,Tr78,78,,,,,,,,,0,84,84,84,,,,,,,,,1,2.62523913287,4,0.383331050034,,,,,2018_may._11_1335,60.0215079108,Experimento Piloto1,001,119,
2.5,Stim\\05_028.jpg,En28_5,Enojo,5,Emilio revisa el formato del archivo.,Afirmación,En28,28,,,,,,,,,0,85,85,85,,,,,,,,,1,1.13290499525,2,0.700278324555,,,,,2018_may._11_1335,60.0215079108,Experimento Piloto1,001,119,
0.25,Stim\\03_028.jpg,Tr28_10,Tristeza,10,Laura finaliza la obra.,Afirmación,Tr28,28,,,,,,,,,0,86,86,86,,,,,,,,,1,1.07585760957,4,0.533726715364,,,,,2018_may._11_1335,60.0215079108,Experimento Piloto1,001,119,
0.25,Stim\\05_019.jpg,En19_11,Enojo,11,María asiste a la cena.,Afirmación,En19,19,,,,,,,,,0,87,87,87,,,,,,,,,1,1.17554483471,2,0.60034387831,,,,,2018_may._11_1335,60.0215079108,Experimento Piloto1,001,119,
2.5,Stim\\03_028.jpg,Tr28_9,Tristeza,9,Marco colabora en la organización del evento.,Afirmación,Tr28,28,,,,,,,,,0,88,88,88,,,,,,,,,1,1.07854714315,4,0.600233655182,,,,,2018_may._11_1335,60.0215079108,Experimento Piloto1,001,119,
2.5,Stim\\05_019.jpg,En19_8,Enojo,8,Estefanía despierta a las 7 a.m.,Afirmación,En19,19,,,,,,,,,0,89,89,89,,,,,,,,,1,1.4201995708,2,1.0167784591,,,,,2018_may._11_1335,60.0215079108,Experimento Piloto1,001,119,
0.25,Stim\\03_075.jpg,Tr75_9,Tristeza,9,Marco colabora en la organización del evento.,Afirmación,Tr75,75,,,,,,,,,0,90,90,90,,,,,,,,,1,1.57874148392,4,0.483676043963,,,,,2018_may._11_1335,60.0215079108,Experimento Piloto1,001,119,
2.5,Stim\\02_075.jpg,Al75_3,Alegría,3,Andrea diseña la portada del libro.,Afirmación,Al75,75,,,,,,,,,0,91,91,91,,,,,,,,,1,0.868302104191,3,0.500466105496,,,,,2018_may._11_1335,60.0215079108,Experimento Piloto1,001,119,
0.25,Stim\\05_028.jpg,En28_12,Enojo,12,Ana compra el libro.,Afirmación,En28,28,,,,,,,,,0,92,92,92,,,,,,,,,1,1.59385543991,2,0.850324131859,,,,,2018_may._11_1335,60.0215079108,Experimento Piloto1,001,119,
0.25,Stim\\03_028.jpg,Tr28_7,Tristeza,7,Roberto contesta los cuestionarios solicitados.,Afirmación,Tr28,28,,,,,,,,,0,93,93,93,,,,,,,,,1,1.99423180504,4,0.433718192037,,,,,2018_may._11_1335,60.0215079108,Experimento Piloto1,001,119,
0.25,Stim\\03_019.jpg,Tr19_8,Tristeza,8,Estefanía despierta a las 7 a.m.,Afirmación,Tr19,19,,,,,,,,,0,94,94,94,,,,,,,,,1,2.25357031455,3,0.550377547683,,,,,2018_may._11_1335,60.0215079108,Experimento Piloto1,001,119,
0.25,Stim\\02_019.jpg,Al19_4,Alegría,4,Jorge sustituye a Gustavo cada sábado.,Afirmación,Al19,19,,,,,,,,,0,95,95,95,,,,,,,,,1,2.18320824273,3,0.966757686278,,,,,2018_may._11_1335,60.0215079108,Experimento Piloto1,001,119,
2.5,Stim\\05_019.jpg,En19_15,Enojo,15,Ángel envía una carta a la abuela.,Afirmación,En19,19,,,,,,,,,0,96,96,96,,,,,,,,,1,1.26968609613,2,0.816893501699,,,,,2018_may._11_1335,60.0215079108,Experimento Piloto1,001,119,
0.25,Stim\\05_075.jpg,En75_13,Enojo,13,Rocío consume alimentos nutritivos.,Afirmación,En75,75,,,,,,,,,0,97,97,97,,,,,,,,,1,1.21799546523,2,0.650278971614,,,,,2018_may._11_1335,60.0215079108,Experimento Piloto1,001,119,
0.25,Stim\\02_078.jpg,Al78_7,Alegría,7,Roberto contesta los cuestionarios solicitados.,Afirmación,Al78,78,,,,,,,,,0,98,98,98,,,,,,,,,1,2.39335421474,3,0.600337630845,,,,,2018_may._11_1335,60.0215079108,Experimento Piloto1,001,119,
2.5,Stim\\03_028.jpg,Tr28_3,Tristeza,3,Andrea diseña la portada del libro.,Afirmación,Tr28,28,,,,,,,,,0,99,99,99,,,,,,,,,1,1.11784369646,4,0.550166472623,,,,,2018_may._11_1335,60.0215079108,Experimento Piloto1,001,119,
2.5,Stim\\05_075.jpg,En75_15,Enojo,15,Ángel envía una carta a la abuela.,Afirmación,En75,75,,,,,,,,,0,100,100,100,,,,,,,,,1,1.06937675738,2,0.650239255588,,,,,2018_may._11_1335,60.0215079108,Experimento Piloto1,001,119,
0.25,Stim\\02_028.jpg,Al28_13,Alegría,13,Rocío consume alimentos nutritivos.,Afirmación,Al28,28,,,,,,,,,0,101,101,101,,,,,,,,,1,1.16807018937,3,0.750287941188,,,,,2018_may._11_1335,60.0215079108,Experimento Piloto1,001,119,
0.25,Stim\\03_028.jpg,Tr28_15,Tristeza,15,Ángel envía una carta a la abuela.,Afirmación,Tr28,28,,,,,,,,,0,102,102,102,,,,,,,,,1,1.73530250447,4,0.966792047334,,,,,2018_may._11_1335,60.0215079108,Experimento Piloto1,001,119,
0.25,Stim\\05_019.jpg,En19_2,Enojo,2,Jonathan pasea al perro.,Afirmación,En19,19,,,,,,,,,0,103,103,103,,,,,,,,,1,0.908444296489,2,1.48329003989,,,,,2018_may._11_1335,60.0215079108,Experimento Piloto1,001,119,
0.25,Stim\\03_078.jpg,Tr78_13,Tristeza,13,Rocío consume alimentos nutritivos.,Afirmación,Tr78,78,,,,,,,,,0,104,104,104,,,,,,,,,1,1.56777316705,4,0.600413492917,,,,,2018_may._11_1335,60.0215079108,Experimento Piloto1,001,119,
2.5,Stim\\03_075.jpg,Tr75_2,Tristeza,2,Jonathan pasea al perro.,Afirmación,Tr75,75,,,,,,,,,0,105,105,105,,,,,,,,,1,0.975469775881,4,0.766893702511,,,,,2018_may._11_1335,60.0215079108,Experimento Piloto1,001,119,
2.5,Stim\\05_075.jpg,En75_10,Enojo,10,Laura finaliza la obra.,Afirmación,En75,75,,,,,,,,,0,106,106,106,,,,,,,,,1,0.825270013196,2,1.36657847329,,,,,2018_may._11_1335,60.0215079108,Experimento Piloto1,001,119,
2.5,Stim\\05_028.jpg,En28_3,Enojo,3,Andrea diseña la portada del libro.,Afirmación,En28,28,,,,,,,,,0,107,107,107,,,,,,,,,1,1.21769335569,2,1.0667679946,,,,,2018_may._11_1335,60.0215079108,Experimento Piloto1,001,119,
2.5,Stim\\02_078.jpg,Al78_8,Alegría,8,Estefanía despierta a las 7 a.m.,Afirmación,Al78,78,,,,,,,,,0,108,108,108,,,,,,,,,1,1.02020965599,3,0.500301886422,,,,,2018_may._11_1335,60.0215079108,Experimento Piloto1,001,119,
2.5,Stim\\05_075.jpg,En75_2,Enojo,2,Jonathan pasea al perro.,Afirmación,En75,75,,,,,,,,,0,109,109,109,,,,,,,,,1,0.92553423633,2,0.800126645036,,,,,2018_may._11_1335,60.0215079108,Experimento Piloto1,001,119,
0.25,Stim\\05_078.jpg,En78_2,Enojo,2,Jonathan pasea al perro.,Afirmación,En78,78,,,,,,,,,0,110,110,110,,,,,,,,,1,1.38339575592,2,0.550310164313,,,,,2018_may._11_1335,60.0215079108,Experimento Piloto1,001,119,
2.5,Stim\\05_078.jpg,En78_14,Enojo,14,Elizabeth elige la ropa un día antes.,Afirmación,En78,78,,,,,,,,,0,111,111,111,,,,,,,,,1,1.13294292629,2,1.05009038743,,,,,2018_may._11_1335,60.0215079108,Experimento Piloto1,001,119,
2.5,Stim\\05_028.jpg,En28_1,Enojo,1,Juan colecciona monedas antiguas.,Afirmación,En28,28,,,,,,,,,0,112,112,112,,,,,,,,,1,1.01905476751,2,0.650250858022,,,,,2018_may._11_1335,60.0215079108,Experimento Piloto1,001,119,
0.25,Stim\\05_019.jpg,En19_12,Enojo,12,Ana compra el libro.,Afirmación,En19,19,,,,,,,,,0,113,113,113,,,,,,,,,1,1.24403445209,2,0.533799453704,,,,,2018_may._11_1335,60.0215079108,Experimento Piloto1,001,119,
0.25,Stim\\02_075.jpg,Al75_13,Alegría,13,Rocío consume alimentos nutritivos.,Afirmación,Al75,75,,,,,,,,,0,114,114,114,,,,,,,,,1,1.43455222858,3,0.60022696147,,,,,2018_may._11_1335,60.0215079108,Experimento Piloto1,001,119,
2.5,Stim\\03_019.jpg,Tr19_6,Tristeza,6,Eduardo camina hacia la biblioteca.,Afirmación,Tr19,19,,,,,,,,,0,115,115,115,,,,,,,,,1,1.38438508659,3,1.36660480189,,,,,2018_may._11_1335,60.0215079108,Experimento Piloto1,001,119,
2.5,Stim\\05_028.jpg,En28_14,Enojo,14,Elizabeth elige la ropa un día antes.,Afirmación,En28,28,,,,,,,,,0,116,116,116,,,,,,,,,1,1.73307082081,2,0.750343275876,,,,,2018_may._11_1335,60.0215079108,Experimento Piloto1,001,119,
2.5,Stim\\02_028.jpg,Al28_5,Alegría,5,Emilio revisa el formato del archivo.,Afirmación,Al28,28,,,,,,,,,0,117,117,117,,,,,,,,,1,1.28385757744,3,0.850335288046,,,,,2018_may._11_1335,60.0215079108,Experimento Piloto1,001,119,
2.5,Stim\\02_078.jpg,Al78_9,Alegría,9,Marco colabora en la organización del evento.,Afirmación,Al78,78,,,,,,,,,0,118,118,118,,,,,,,,,1,1.62834813908,3,0.45007940974,,,,,2018_may._11_1335,60.0215079108,Experimento Piloto1,001,119,
0.25,Stim\\03_019.jpg,Tr19_3,Tristeza,3,Andrea diseña la portada del libro.,Afirmación,Tr19,19,,,,,,,,,0,119,119,119,,,,,,,,,1,2.96710486682,3,0.650221405689,,,,,2018_may._11_1335,60.0215079108,Experimento Piloto1,001,119,
0.25,Stim\\02_075.jpg,Al75_11,Alegría,11,María asiste a la cena.,Afirmación,Al75,75,,,,,,,,,,,,,0,0,0,0,,,,,,,,,1,4.34112719437,3,0.600259983783,2018_may._11_1335,60.0215079108,Experimento Piloto1,001,119,
2.5,Stim\\03_019.jpg,Tr19_9,Tristeza,9,Marco colabora en la organización del evento.,Afirmación,Tr19,19,,,,,,,,,,,,,0,1,1,1,,,,,,,,,1,2.09462856368,2,1.150144428,2018_may._11_1335,60.0215079108,Experimento Piloto1,001,119,
2.5,Stim\\02_075.jpg,Al75_8,Alegría,8,Estefanía despierta a las 7 a.m.,Afirmación,Al75,75,,,,,,,,,,,,,0,2,2,2,,,,,,,,,1,2.46995973509,3,0.750254472627,2018_may._11_1335,60.0215079108,Experimento Piloto1,001,119,
2.5,Stim\\03_075.jpg,Tr75_13,Tristeza,13,Rocío consume alimentos nutritivos.,Afirmación,Tr75,75,,,,,,,,,,,,,0,3,3,3,,,,,,,,,1,1.38170938668,4,0.483716206236,2018_may._11_1335,60.0215079108,Experimento Piloto1,001,119,
0.25,Stim\\03_019.jpg,Tr19_15,Tristeza,15,Ángel envía una carta a la abuela.,Afirmación,Tr19,19,,,,,,,,,,,,,0,4,4,4,,,,,,,,,1,2.15167237938,3,0.900130705887,2018_may._11_1335,60.0215079108,Experimento Piloto1,001,119,
2.5,Stim\\05_075.jpg,En75_11,Enojo,11,María asiste a la cena.,Afirmación,En75,75,,,,,,,,,,,,,0,5,5,5,,,,,,,,,1,1.49219758589,2,0.550199941184,2018_may._11_1335,60.0215079108,Experimento Piloto1,001,119,
0.25,Stim\\05_028.jpg,En28_4,Enojo,4,Jorge sustituye a Gustavo cada sábado.,Afirmación,En28,28,,,,,,,,,,,,,0,6,6,6,,,,,,,,,1,2.59774537922,2,1.06684653415,2018_may._11_1335,60.0215079108,Experimento Piloto1,001,119,
2.5,Stim\\05_028.jpg,En28_9,Enojo,9,Marco colabora en la organización del evento.,Afirmación,En28,28,,,,,,,,,,,,,0,7,7,7,,,,,,,,,1,1.01211338792,2,0.650218728204,2018_may._11_1335,60.0215079108,Experimento Piloto1,001,119,
2.5,Stim\\03_075.jpg,Tr75_9,Tristeza,9,Marco colabora en la organización del evento.,Afirmación,Tr75,75,,,,,,,,,,,,,0,8,8,8,,,,,,,,,1,2.06652969844,4,0.600451870201,2018_may._11_1335,60.0215079108,Experimento Piloto1,001,119,
2.5,Stim\\05_028.jpg,En28_15,Enojo,15,Ángel envía una carta a la abuela.,Afirmación,En28,28,,,,,,,,,,,,,0,9,9,9,,,,,,,,,1,1.21827660115,2,1.06680547938,2018_may._11_1335,60.0215079108,Experimento Piloto1,001,119,
0.25,Stim\\03_078.jpg,Tr78_8,Tristeza,8,Estefanía despierta a las 7 a.m.,Afirmación,Tr78,78,,,,,,,,,,,,,0,10,10,10,,,,,,,,,1,1.41941462148,4,0.966774197435,2018_may._11_1335,60.0215079108,Experimento Piloto1,001,119,
0.25,Stim\\02_075.jpg,Al75_1,Alegría,1,Juan colecciona monedas antiguas.,Afirmación,Al75,75,,,,,,,,,,,,,0,11,11,11,,,,,,,,,1,1.17039469251,3,0.650293697781,2018_may._11_1335,60.0215079108,Experimento Piloto1,001,119,
0.25,Stim\\05_078.jpg,En78_11,Enojo,11,María asiste a la cena.,Afirmación,En78,78,,,,,,,,,,,,,0,12,12,12,,,,,,,,,1,1.17546852639,2,0.600244365121,2018_may._11_1335,60.0215079108,Experimento Piloto1,001,119,
2.5,Stim\\03_028.jpg,Tr28_15,Tristeza,15,Ángel envía una carta a la abuela.,Afirmación,Tr28,28,,,,,,,,,,,,,0,13,13,13,,,,,,,,,1,1.11762726644,4,0.600192154166,2018_may._11_1335,60.0215079108,Experimento Piloto1,001,119,
2.5,Stim\\02_019.jpg,Al19_3,Alegría,3,Andrea diseña la portada del libro.,Afirmación,Al19,19,,,,,,,,,,,,,0,14,14,14,,,,,,,,,1,0.868965674197,3,0.650332967559,2018_may._11_1335,60.0215079108,Experimento Piloto1,001,119,
2.5,Stim\\05_019.jpg,En19_5,Enojo,5,Emilio revisa el formato del archivo.,Afirmación,En19,19,,,,,,,,,,,,,0,15,15,15,,,,,,,,,1,1.89961886003,2,0.900150787024,2018_may._11_1335,60.0215079108,Experimento Piloto1,001,119,
0.25,Stim\\02_028.jpg,Al28_11,Alegría,11,María asiste a la cena.,Afirmación,Al28,28,,,,,,,,,,,,,0,16,16,16,,,,,,,,,1,1.74217159197,3,0.500317951331,2018_may._11_1335,60.0215079108,Experimento Piloto1,001,119,
0.25,Stim\\03_019.jpg,Tr19_11,Tristeza,11,María asiste a la cena.,Afirmación,Tr19,19,,,,,,,,,,,,,0,17,17,17,,,,,,,,,1,1.74990238336,3,0.500009148074,2018_may._11_1335,60.0215079108,Experimento Piloto1,001,119,
2.5,Stim\\03_078.jpg,Tr78_14,Tristeza,14,Elizabeth elige la ropa un día antes.,Afirmación,Tr78,78,,,,,,,,,,,,,0,18,18,18,,,,,,,,,1,1.51671397634,4,0.55031775052,2018_may._11_1335,60.0215079108,Experimento Piloto1,001,119,
0.25,Stim\\02_019.jpg,Al19_9,Alegría,9,Marco colabora en la organización del evento.,Afirmación,Al19,19,,,,,,,,,,,,,0,19,19,19,,,,,,,,,1,1.42840740075,3,0.433586995277,2018_may._11_1335,60.0215079108,Experimento Piloto1,001,119,
2.5,Stim\\02_075.jpg,Al75_11,Alegría,11,María asiste a la cena.,Afirmación,Al75,75,,,,,,,,,,,,,0,20,20,20,,,,,,,,,1,0.626403392552,3,0.550359697783,2018_may._11_1335,60.0215079108,Experimento Piloto1,001,119,
0.25,Stim\\02_028.jpg,Al28_4,Alegría,4,Jorge sustituye a Gustavo cada sábado.,Afirmación,Al28,28,,,,,,,,,,,,,0,21,21,21,,,,,,,,,1,1.78275824676,3,0.550305255591,2018_may._11_1335,60.0215079108,Experimento Piloto1,001,119,
2.5,Stim\\02_075.jpg,Al75_10,Alegría,10,Laura finaliza la obra.,Afirmación,Al75,75,,,,,,,,,,,,,0,22,22,22,,,,,,,,,1,0.825656463516,3,0.433514256938,2018_may._11_1335,60.0215079108,Experimento Piloto1,001,119,
0.25,Stim\\05_075.jpg,En75_4,Enojo,4,Jorge sustituye a Gustavo cada sábado.,Afirmación,En75,75,,,,,,,,,,,,,0,23,23,23,,,,,,,,,1,1.83340287357,2,0.650406152146,2018_may._11_1335,60.0215079108,Experimento Piloto1,001,119,
2.5,Stim\\02_028.jpg,Al28_11,Alegría,11,María asiste a la cena.,Afirmación,Al28,28,,,,,,,,,,,,,0,24,24,24,,,,,,,,,1,1.19246877049,3,0.450257462485,2018_may._11_1335,60.0215079108,Experimento Piloto1,001,119,
0.25,Stim\\02_078.jpg,Al78_1,Alegría,1,Juan colecciona monedas antiguas.,Afirmación,Al78,78,,,,,,,,,,,,,0,25,25,25,,,,,,,,,1,2.40266159849,3,0.383597459781,2018_may._11_1335,60.0215079108,Experimento Piloto1,001,119,
2.5,Stim\\02_019.jpg,Al19_7,Alegría,7,Roberto contesta los cuestionarios solicitados.,Afirmación,Al19,19,,,,,,,,,,,,,0,26,26,26,,,,,,,,,1,1.57753616947,3,0.550350772834,2018_may._11_1335,60.0215079108,Experimento Piloto1,001,119,
0.25,Stim\\05_028.jpg,En28_15,Enojo,15,Ángel envía una carta a la abuela.,Afirmación,En28,28,,,,,,,,,,,,,0,27,27,27,,,,,,,,,1,1.73535962415,2,0.800330580135,2018_may._11_1335,60.0215079108,Experimento Piloto1,001,119,
0.25,Stim\\03_075.jpg,Tr75_2,Tristeza,2,Jonathan pasea al perro.,Afirmación,Tr75,75,,,,,,,,,,,,,0,28,28,28,,,,,,,,,1,1.12478730729,4,0.550314626787,2018_may._11_1335,60.0215079108,Experimento Piloto1,001,119,
0.25,Stim\\05_075.jpg,En75_3,Enojo,3,Andrea diseña la portada del libro.,Afirmación,En75,75,,,,,,,,,,,,,0,29,29,29,,,,,,,,,1,0.867979021013,2,0.750304452345,2018_may._11_1335,60.0215079108,Experimento Piloto1,001,119,
2.5,Stim\\05_028.jpg,En28_10,Enojo,10,Laura finaliza la obra.,Afirmación,En28,28,,,,,,,,,,,,,0,30,30,30,,,,,,,,,1,0.659579661647,2,1.38334711494,2018_may._11_1335,60.0215079108,Experimento Piloto1,001,119,
0.25,Stim\\05_019.jpg,En19_4,Enojo,4,Jorge sustituye a Gustavo cada sábado.,Afirmación,En19,19,,,,,,,,,,,,,0,31,31,31,,,,,,,,,1,1.1657349763,2,0.600307286017,2018_may._11_1335,60.0215079108,Experimento Piloto1,001,119,
2.5,Stim\\02_078.jpg,Al78_1,Alegría,1,Juan colecciona monedas antiguas.,Afirmación,Al78,78,,,,,,,,,,,,,0,32,32,32,,,,,,,,,1,1.63494099939,3,1.05018499189,2018_may._11_1335,60.0215079108,Experimento Piloto1,001,119,
0.25,Stim\\05_075.jpg,En75_6,Enojo,6,Eduardo camina hacia la biblioteca.,Afirmación,En75,75,,,,,,,,,,,,,0,33,33,33,,,,,,,,,1,1.78457268903,2,1.73324039486,2018_may._11_1335,60.0215079108,Experimento Piloto1,001,119,
2.5,Stim\\02_019.jpg,Al19_12,Alegría,12,Ana compra el libro.,Afirmación,Al19,19,,,,,,,,,,,,,0,34,34,34,,,,,,,,,1,1.54451965698,3,7.21487396409,2018_may._11_1335,60.0215079108,Experimento Piloto1,001,119,
0.25,Stim\\05_075.jpg,En75_8,Enojo,8,Estefanía despierta a las 7 a.m.,Afirmación,En75,75,,,,,,,,,,,,,0,35,35,35,,,,,,,,,1,1.36996772292,2,1.58302144353,2018_may._11_1335,60.0215079108,Experimento Piloto1,001,119,
2.5,Stim\\03_028.jpg,Tr28_4,Tristeza,4,Jorge sustituye a Gustavo cada sábado.,Afirmación,Tr28,28,,,,,,,,,,,,,0,36,36,36,,,,,,,,,1,1.53270837861,4,1.91654591954,2018_may._11_1335,60.0215079108,Experimento Piloto1,001,119,
0.25,Stim\\03_078.jpg,Tr78_12,Tristeza,12,Ana compra el libro.,Afirmación,Tr78,78,,,,,,,,,,,,,0,37,37,37,,,,,,,,,1,1.49451941154,4,1.26691936174,2018_may._11_1335,60.0215079108,Experimento Piloto1,001,119,
2.5,Stim\\03_019.jpg,Tr19_3,Tristeza,3,Andrea diseña la portada del libro.,Afirmación,Tr19,19,,,,,,,,,,,,,0,38,38,38,,,,,,,,,1,2.20189887229,2,0.70020290873,2018_may._11_1335,60.0215079108,Experimento Piloto1,001,119,
2.5,Stim\\05_075.jpg,En75_4,Enojo,4,Jorge sustituye a Gustavo cada sábado.,Afirmación,En75,75,,,,,,,,,,,,,0,39,39,39,,,,,,,,,1,2.61557742862,2,0.483776449646,2018_may._11_1335,60.0215079108,Experimento Piloto1,001,119,
0.25,Stim\\05_078.jpg,En78_6,Enojo,6,Eduardo camina hacia la biblioteca.,Afirmación,En78,78,,,,,,,,,,,,,0,40,40,40,,,,,,,,,1,2.10146953759,2,0.650274062892,2018_may._11_1335,60.0215079108,Experimento Piloto1,001,119,
0.25,Stim\\03_078.jpg,Tr78_3,Tristeza,3,Andrea diseña la portada del libro.,Afirmación,Tr78,78,,,,,,,,,,,,,0,41,41,41,,,,,,,,,1,1.93224356723,4,2.18316361798,2018_may._11_1335,60.0215079108,Experimento Piloto1,001,119,
0.25,Stim\\05_078.jpg,En78_15,Enojo,15,Ángel envía una carta a la abuela.,Afirmación,En78,78,,,,,,,,,,,,,0,42,42,42,,,,,,,,,1,2.05142957612,4,0.650363758636,2018_may._11_1335,60.0215079108,Experimento Piloto1,001,119,
2.5,Stim\\05_078.jpg,En78_2,Enojo,2,Jonathan pasea al perro.,Afirmación,En78,78,,,,,,,,,,,,,0,43,43,43,,,,,,,,,1,1.44123344589,2,2.18301903379,2018_may._11_1335,60.0215079108,Experimento Piloto1,001,119,
2.5,Stim\\02_078.jpg,Al78_4,Alegría,4,Jorge sustituye a Gustavo cada sábado.,Afirmación,Al78,78,,,,,,,,,,,,,0,44,44,44,,,,,,,,,1,0.816172812015,3,1.66671158891,2018_may._11_1335,60.0215079108,Experimento Piloto1,001,119,
2.5,Stim\\05_078.jpg,En78_4,Enojo,4,Jorge sustituye a Gustavo cada sábado.,Afirmación,En78,78,,,,,,,,,,,,,0,45,45,45,,,,,,,,,1,0.983488843143,2,0.716570820145,2018_may._11_1335,60.0215079108,Experimento Piloto1,001,119,
0.25,Stim\\05_019.jpg,En19_9,Enojo,9,Marco colabora en la organización del evento.,Afirmación,En19,19,,,,,,,,,,,,,0,46,46,46,,,,,,,,,1,1.61229929462,2,0.750129969579,2018_may._11_1335,60.0215079108,Experimento Piloto1,001,119,
0.25,Stim\\05_019.jpg,En19_15,Enojo,15,Ángel envía una carta a la abuela.,Afirmación,En19,19,,,,,,,,,,,,,0,47,47,47,,,,,,,,,1,2.45169125565,2,0.916703444897,2018_may._11_1335,60.0215079108,Experimento Piloto1,001,119,
2.5,Stim\\02_028.jpg,Al28_2,Alegría,2,Jonathan pasea al perro.,Afirmación,Al28,28,,,,,,,,,,,,,0,48,48,48,,,,,,,,,1,0.925350828615,3,0.60028898987,2018_may._11_1335,60.0215079108,Experimento Piloto1,001,119,
0.25,Stim\\03_075.jpg,Tr75_1,Tristeza,1,Juan colecciona monedas antiguas.,Afirmación,Tr75,75,,,,,,,,,,,,,0,49,49,49,,,,,,,,,1,2.18444167077,4,0.766899949976,2018_may._11_1335,60.0215079108,Experimento Piloto1,001,119,
2.5,Stim\\02_028.jpg,Al28_12,Alegría,12,Ana compra el libro.,Afirmación,Al28,28,,,,,,,,,,,,,0,50,50,50,,,,,,,,,1,1.64459779491,3,0.433625372561,2018_may._11_1335,60.0215079108,Experimento Piloto1,001,119,
0.25,Stim\\05_019.jpg,En19_5,Enojo,5,Emilio revisa el formato del archivo.,Afirmación,En19,19,,,,,,,,,,,,,0,51,51,51,,,,,,,,,1,1.78420007238,2,1.11664507573,2018_may._11_1335,60.0215079108,Experimento Piloto1,001,119,
0.25,Stim\\02_075.jpg,Al75_9,Alegría,9,Marco colabora en la organización del evento.,Afirmación,Al75,75,,,,,,,,,,,,,0,52,52,52,,,,,,,,,1,1.62932095859,3,0.550328014212,2018_may._11_1335,60.0215079108,Experimento Piloto1,001,119,
2.5,Stim\\03_019.jpg,Tr19_12,Tristeza,12,Ana compra el libro.,Afirmación,Tr19,19,,,,,,,,,,,,,0,53,53,53,,,,,,,,,1,1.64359195309,3,0.700243517251,2018_may._11_1335,60.0215079108,Experimento Piloto1,001,119,
2.5,Stim\\02_019.jpg,Al19_4,Alegría,4,Jorge sustituye a Gustavo cada sábado.,Afirmación,Al19,19,,,,,,,,,,,,,0,54,54,54,,,,,,,,,1,2.61508700264,3,0.533594626109,2018_may._11_1335,60.0215079108,Experimento Piloto1,001,119,
0.25,Stim\\02_019.jpg,Al19_12,Alegría,12,Ana compra el libro.,Afirmación,Al19,19,,,,,,,,,,,,,0,55,55,55,,,,,,,,,1,1.79460879491,3,0.700781245468,2018_may._11_1335,60.0215079108,Experimento Piloto1,001,119,
2.5,Stim\\02_078.jpg,Al78_7,Alegría,7,Roberto contesta los cuestionarios solicitados.,Afirmación,Al78,78,,,,,,,,,,,,,0,56,56,56,,,,,,,,,1,1.27722187737,3,1.31667372481,2018_may._11_1335,60.0215079108,Experimento Piloto1,001,119,
2.5,Stim\\03_078.jpg,Tr78_13,Tristeza,13,Rocío consume alimentos nutritivos.,Afirmación,Tr78,78,,,,,,,,,,,,,0,57,57,57,,,,,,,,,1,1.33469141317,4,0.600290328613,2018_may._11_1335,60.0215079108,Experimento Piloto1,001,119,
2.5,Stim\\02_075.jpg,Al75_9,Alegría,9,Marco colabora en la organización del evento.,Afirmación,Al75,75,,,,,,,,,,,,,0,58,58,58,,,,,,,,,1,0.912103079599,3,0.700137756598,2018_may._11_1335,60.0215079108,Experimento Piloto1,001,119,
0.25,Stim\\02_028.jpg,Al28_5,Alegría,5,Emilio revisa el formato del archivo.,Afirmación,Al28,28,,,,,,,,,,,,,0,59,59,59,,,,,,,,,1,1.5839300034,3,0.433573161606,2018_may._11_1335,60.0215079108,Experimento Piloto1,001,119,
2.5,Stim\\03_028.jpg,Tr28_7,Tristeza,7,Roberto contesta los cuestionarios solicitados.,Afirmación,Tr28,28,,,,,,,,,,,,,0,60,60,60,,,,,,,,,1,0.961729369644,4,0.650325381352,2018_may._11_1335,60.0215079108,Experimento Piloto1,001,119,
0.25,Stim\\05_078.jpg,En78_7,Enojo,7,Roberto contesta los cuestionarios solicitados.,Afirmación,En78,78,,,,,,,,,,,,,0,61,61,61,,,,,,,,,1,1.03357744558,4,2.59964237727,2018_may._11_1335,60.0215079108,Experimento Piloto1,001,119,
2.5,Stim\\03_028.jpg,Tr28_5,Tristeza,5,Emilio revisa el formato del archivo.,Afirmación,Tr28,28,,,,,,,,,,,,,0,62,62,62,,,,,,,,,1,1.13305538065,4,0.433833323887,2018_may._11_1335,60.0215079108,Experimento Piloto1,001,119,
0.25,Stim\\02_019.jpg,Al19_13,Alegría,13,Rocío consume alimentos nutritivos.,Afirmación,Al19,19,,,,,,,,,,,,,0,63,63,63,,,,,,,,,1,1.26905197846,3,0.8169376802,2018_may._11_1335,60.0215079108,Experimento Piloto1,001,119,
2.5,Stim\\05_019.jpg,En19_13,Enojo,13,Rocío consume alimentos nutritivos.,Afirmación,En19,19,,,,,,,,,,,,,0,64,64,64,,,,,,,,,1,1.03345026505,2,0.850197397574,2018_may._11_1335,60.0215079108,Experimento Piloto1,001,119,
2.5,Stim\\03_078.jpg,Tr78_4,Tristeza,4,Jorge sustituye a Gustavo cada sábado.,Afirmación,Tr78,78,,,,,,,,,,,,,0,65,65,65,,,,,,,,,1,1.01614568017,4,0.550283389464,2018_may._11_1335,60.0215079108,Experimento Piloto1,001,119,
0.25,Stim\\05_028.jpg,En28_13,Enojo,13,Rocío consume alimentos nutritivos.,Afirmación,En28,28,,,,,,,,,,,,,0,66,66,66,,,,,,,,,1,1.78415946386,2,1.21671116498,2018_may._11_1335,60.0215079108,Experimento Piloto1,001,119,
0.25,Stim\\02_075.jpg,Al75_4,Alegría,4,Jorge sustituye a Gustavo cada sábado.,Afirmación,Al75,75,,,,,,,,,,,,,0,67,67,67,,,,,,,,,1,1.73217743335,3,0.500317951331,2018_may._11_1335,60.0215079108,Experimento Piloto1,001,119,
0.25,Stim\\03_019.jpg,Tr19_14,Tristeza,14,Elizabeth elige la ropa un día antes.,Afirmación,Tr19,19,,,,,,,,,,,,,0,68,68,68,,,,,,,,,1,1.98288373156,3,7.11493728661,2018_may._11_1335,60.0215079108,Experimento Piloto1,001,119,
2.5,Stim\\02_075.jpg,Al75_4,Alegría,4,Jorge sustituye a Gustavo cada sábado.,Afirmación,Al75,75,,,,,,,,,,,,,0,69,69,69,,,,,,,,,1,1.7819804374,3,1.31680670656,2018_may._11_1335,60.0215079108,Experimento Piloto1,001,119,
2.5,Stim\\05_078.jpg,En78_7,Enojo,7,Roberto contesta los cuestionarios solicitados.,Afirmación,En78,78,,,,,,,,,,,,,0,70,70,70,,,,,,,,,1,2.2437131539,2,2.54969568153,2018_may._11_1335,60.0215079108,Experimento Piloto1,001,119,
2.5,Stim\\05_028.jpg,En28_6,Enojo,6,Eduardo camina hacia la biblioteca.,Afirmación,En28,28,,,,,,,,,,,,,0,71,71,71,,,,,,,,,1,1.38405173972,2,0.850121089255,2018_may._11_1335,60.0215079108,Experimento Piloto1,001,119,
2.5,Stim\\05_028.jpg,En28_7,Enojo,7,Roberto contesta los cuestionarios solicitados.,Afirmación,En28,28,,,,,,,,,,,,,0,72,72,72,,,,,,,,,1,1.22761745345,2,0.75024688642,2018_may._11_1335,60.0215079108,Experimento Piloto1,001,119,
2.5,Stim\\03_028.jpg,Tr28_14,Tristeza,14,Elizabeth elige la ropa un día antes.,Afirmación,Tr28,28,,,,,,,,,,,,,0,73,73,73,,,,,,,,,1,1.48372289995,4,0.600236778914,2018_may._11_1335,60.0215079108,Experimento Piloto1,001,119,
2.5,Stim\\02_019.jpg,Al19_11,Alegría,11,María asiste a la cena.,Afirmación,Al19,19,,,,,,,,,,,,,0,74,74,74,,,,,,,,,1,1.59201377655,3,0.600248381349,2018_may._11_1335,60.0215079108,Experimento Piloto1,001,119,
0.25,Stim\\05_028.jpg,En28_7,Enojo,7,Roberto contesta los cuestionarios solicitados.,Afirmación,En28,28,,,,,,,,,,,,,0,75,75,75,,,,,,,,,1,2.34413445615,2,0.850241129827,2018_may._11_1335,60.0215079108,Experimento Piloto1,001,119,
0.25,Stim\\05_078.jpg,En78_13,Enojo,13,Rocío consume alimentos nutritivos.,Afirmación,En78,78,,,,,,,,,,,,,0,76,76,76,,,,,,,,,1,1.93495005821,2,0.60015779311,2018_may._11_1335,60.0215079108,Experimento Piloto1,001,119,
0.25,Stim\\03_028.jpg,Tr28_14,Tristeza,14,Elizabeth elige la ropa un día antes.,Afirmación,Tr28,28,,,,,,,,,,,,,0,77,77,77,,,,,,,,,1,1.98349464436,4,0.800220803254,2018_may._11_1335,60.0215079108,Experimento Piloto1,001,119,
2.5,Stim\\03_075.jpg,Tr75_14,Tristeza,14,Elizabeth elige la ropa un día antes.,Afirmación,Tr75,75,,,,,,,,,,,,,0,78,78,78,,,,,,,,,1,1.10009598783,4,0.55051454566,2018_may._11_1335,60.0215079108,Experimento Piloto1,001,119,
0.25,Stim\\05_019.jpg,En19_10,Enojo,10,Laura finaliza la obra.,Afirmación,En19,19,,,,,,,,,,,,,0,79,79,79,,,,,,,,,1,0.906274641228,2,0.600365298189,2018_may._11_1335,60.0215079108,Experimento Piloto1,001,119,
0.25,Stim\\05_078.jpg,En78_9,Enojo,9,Marco colabora en la organización del evento.,Afirmación,En78,78,,,,,,,,,,,,,0,80,80,80,,,,,,,,,1,2.76111792134,2,0.650237916846,2018_may._11_1335,60.0215079108,Experimento Piloto1,001,119,
0.25,Stim\\02_028.jpg,Al28_6,Alegría,6,Eduardo camina hacia la biblioteca.,Afirmación,Al28,28,,,,,,,,,,,,,0,81,81,81,,,,,,,,,1,1.73412084114,3,0.483700587574,2018_may._11_1335,60.0215079108,Experimento Piloto1,001,119,
0.25,Stim\\05_078.jpg,En78_12,Enojo,12,Ana compra el libro.,Afirmación,En78,78,,,,,,,,,,,,,0,82,82,82,,,,,,,,,1,1.34444236691,2,0.550144160249,2018_may._11_1335,60.0215079108,Experimento Piloto1,001,119,
2.5,Stim\\05_075.jpg,En75_1,Enojo,1,Juan colecciona monedas antiguas.,Afirmación,En75,75,,,,,,,,,,,,,0,83,83,83,,,,,,,,,1,1.21975858904,2,1.31673709196,2018_may._11_1335,60.0215079108,Experimento Piloto1,001,119,
0.25,Stim\\03_019.jpg,Tr19_13,Tristeza,13,Rocío consume alimentos nutritivos.,Afirmación,Tr19,19,,,,,,,,,,,,,0,84,84,84,,,,,,,,,1,2.35008829006,3,1.7329400703,2018_may._11_1335,60.0215079108,Experimento Piloto1,001,119,
2.5,Stim\\03_078.jpg,Tr78_11,Tristeza,11,María asiste a la cena.,Afirmación,Tr78,78,,,,,,,,,,,,,0,85,85,85,,,,,,,,,1,1.22517201725,4,0.966653710615,2018_may._11_1335,60.0215079108,Experimento Piloto1,001,119,
2.5,Stim\\05_019.jpg,En19_1,Enojo,1,Juan colecciona monedas antiguas.,Afirmación,En19,19,,,,,,,,,,,,,0,86,86,86,,,,,,,,,1,1.6866468027,2,0.850147864103,2018_may._11_1335,60.0215079108,Experimento Piloto1,001,119,
0.25,Stim\\02_075.jpg,Al75_10,Alegría,10,Laura finaliza la obra.,Afirmación,Al75,75,,,,,,,,,,,,,0,87,87,87,,,,,,,,,1,1.07440596651,3,0.500340263705,2018_may._11_1335,60.0215079108,Experimento Piloto1,001,119,
2.5,Stim\\02_019.jpg,Al19_14,Alegría,14,Elizabeth elige la ropa un día antes.,Afirmación,Al19,19,,,,,,,,,,,,,0,88,88,88,,,,,,,,,1,1.78007674564,3,2.08304040905,2018_may._11_1335,60.0215079108,Experimento Piloto1,001,119,
0.25,Stim\\03_028.jpg,Tr28_6,Tristeza,6,Eduardo camina hacia la biblioteca.,Afirmación,Tr28,28,,,,,,,,,,,,,0,89,89,89,,,,,,,,,1,3.43323267478,4,0.433624926313,2018_may._11_1335,60.0215079108,Experimento Piloto1,001,119,
0.25,Stim\\02_075.jpg,Al75_8,Alegría,8,Estefanía despierta a las 7 a.m.,Afirmación,Al75,75,,,,,,,,,,,,,0,90,90,90,,,,,,,,,1,1.28702861205,3,0.533767323885,2018_may._11_1335,60.0215079108,Experimento Piloto1,001,119,
2.5,Stim\\02_019.jpg,Al19_6,Alegría,6,Eduardo camina hacia la biblioteca.,Afirmación,Al19,19,,,,,,,,,,,,,0,91,91,91,,,,,,,,,1,1.38561628339,3,0.550232071003,2018_may._11_1335,60.0215079108,Experimento Piloto1,001,119,
2.5,Stim\\03_078.jpg,Tr78_7,Tristeza,7,Roberto contesta los cuestionarios solicitados.,Afirmación,Tr78,78,,,,,,,,,,,,,0,92,92,92,,,,,,,,,1,1.17734812078,4,0.649932683567,2018_may._11_1335,60.0215079108,Experimento Piloto1,001,119,
2.5,Stim\\02_028.jpg,Al28_8,Alegría,8,Estefanía despierta a las 7 a.m.,Afirmación,Al28,28,,,,,,,,,,,,,0,93,93,93,,,,,,,,,1,0.970196915626,3,0.549845620683,2018_may._11_1335,60.0215079108,Experimento Piloto1,001,119,
0.25,Stim\\03_075.jpg,Tr75_13,Tristeza,13,Rocío consume alimentos nutritivos.,Afirmación,Tr75,75,,,,,,,,,,,,,0,94,94,94,,,,,,,,,1,1.1677912847,4,0.533844524699,2018_may._11_1335,60.0215079108,Experimento Piloto1,001,119,
2.5,Stim\\02_075.jpg,Al75_6,Alegría,6,Eduardo camina hacia la biblioteca.,Afirmación,Al75,75,,,,,,,,,,,,,0,95,95,95,,,,,,,,,1,2.05136531649,3,0.50020995944,2018_may._11_1335,60.0215079108,Experimento Piloto1,001,119,
0.25,Stim\\02_028.jpg,Al28_9,Alegría,9,Marco colabora en la organización del evento.,Afirmación,Al28,28,,,,,,,,,,,,,0,96,96,96,,,,,,,,,1,2.02769456502,3,1.58330391819,2018_may._11_1335,60.0215079108,Experimento Piloto1,001,119,
0.25,Stim\\02_019.jpg,Al19_8,Alegría,8,Estefanía despierta a las 7 a.m.,Afirmación,Al19,19,,,,,,,,,,,,,0,97,97,97,,,,,,,,,1,2.80286169586,3,0.550449839775,2018_may._11_1335,60.0215079108,Experimento Piloto1,001,119,
2.5,Stim\\02_019.jpg,Al19_1,Alegría,1,Juan colecciona monedas antiguas.,Afirmación,Al19,19,,,,,,,,,,,,,0,98,98,98,,,,,,,,,1,1.07021793388,3,1.2166277167,2018_may._11_1335,60.0215079108,Experimento Piloto1,001,119,
0.25,Stim\\02_019.jpg,Al19_5,Alegría,5,Emilio revisa el formato del archivo.,Afirmación,Al19,19,,,,,,,,,,,,,0,99,99,99,,,,,,,,,1,3.4824368147,3,0.383786668714,2018_may._11_1335,60.0215079108,Experimento Piloto1,001,119,
2.5,Stim\\02_078.jpg,Al78_13,Alegría,13,Rocío consume alimentos nutritivos.,Afirmación,Al78,78,,,,,,,,,,,,,0,100,100,100,,,,,,,,,1,1.03226592423,3,0.600206434086,2018_may._11_1335,60.0215079108,Experimento Piloto1,001,119,
2.5,Stim\\05_078.jpg,En78_12,Enojo,12,Ana compra el libro.,Afirmación,En78,78,,,,,,,,,,,,,0,101,101,101,,,,,,,,,1,0.827400398677,2,0.900135168362,2018_may._11_1335,60.0215079108,Experimento Piloto1,001,119,
2.5,Stim\\03_075.jpg,Tr75_11,Tristeza,11,María asiste a la cena.,Afirmación,Tr75,75,,,,,,,,,,,,,0,102,102,102,,,,,,,,,1,0.605580592518,4,0.600156900615,2018_may._11_1335,60.0215079108,Experimento Piloto1,001,119,
0.25,Stim\\02_078.jpg,Al78_13,Alegría,13,Rocío consume alimentos nutritivos.,Afirmación,Al78,78,,,,,,,,,,,,,0,103,103,103,,,,,,,,,1,1.83532530772,3,0.650263352952,2018_may._11_1335,60.0215079108,Experimento Piloto1,001,119,
0.25,Stim\\03_075.jpg,Tr75_11,Tristeza,11,María asiste a la cena.,Afirmación,Tr75,75,,,,,,,,,,,,,0,104,104,104,,,,,,,,,1,0.926266974696,4,0.550380225167,2018_may._11_1335,60.0215079108,Experimento Piloto1,001,119,
2.5,Stim\\05_075.jpg,En75_8,Enojo,8,Estefanía despierta a las 7 a.m.,Afirmación,En75,75,,,,,,,,,,,,,0,105,105,105,,,,,,,,,1,0.770923763526,2,0.700250657211,2018_may._11_1335,60.0215079108,Experimento Piloto1,001,119,
2.5,Stim\\03_078.jpg,Tr78_2,Tristeza,2,Jonathan pasea al perro.,Afirmación,Tr78,78,,,,,,,,,,,,,0,106,106,106,,,,,,,,,1,0.72542258521,4,1.21647063759,2018_may._11_1335,60.0215079108,Experimento Piloto1,001,119,
2.5,Stim\\03_078.jpg,Tr78_12,Tristeza,12,Ana compra el libro.,Afirmación,Tr78,78,,,,,,,,,,,,,0,107,107,107,,,,,,,,,1,0.810492527809,4,0.55025572212,2018_may._11_1335,60.0215079108,Experimento Piloto1,001,119,
2.5,Stim\\05_019.jpg,En19_10,Enojo,10,Laura finaliza la obra.,Afirmación,En19,19,,,,,,,,,,,,,0,108,108,108,,,,,,,,,1,1.09230763052,2,0.750208955384,2018_may._11_1335,60.0215079108,Experimento Piloto1,001,119,
2.5,Stim\\05_078.jpg,En78_15,Enojo,15,Ángel envía una carta a la abuela.,Afirmación,En78,78,,,,,,,,,,,,,0,109,109,109,,,,,,,,,1,1.83474518599,2,0.500296085205,2018_may._11_1335,60.0215079108,Experimento Piloto1,001,119,
0.25,Stim\\02_028.jpg,Al28_15,Alegría,15,Ángel envía una carta a la abuela.,Afirmación,Al28,28,,,,,,,,,,,,,0,110,110,110,,,,,,,,,1,1.18345457134,3,0.650207572017,2018_may._11_1335,60.0215079108,Experimento Piloto1,001,119,
2.5,Stim\\02_075.jpg,Al75_13,Alegría,13,Rocío consume alimentos nutritivos.,Afirmación,Al75,75,,,,,,,,,,,,,0,111,111,111,,,,,,,,,1,1.68441556529,3,0.550343186627,2018_may._11_1335,60.0215079108,Experimento Piloto1,001,119,
2.5,Stim\\02_078.jpg,Al78_5,Alegría,5,Emilio revisa el formato del archivo.,Afirmación,Al78,78,,,,,,,,,,,,,0,112,112,112,,,,,,,,,1,1.11663391954,3,0.45040383166,2018_may._11_1335,60.0215079108,Experimento Piloto1,001,119,
2.5,Stim\\05_019.jpg,En19_12,Enojo,12,Ana compra el libro.,Afirmación,En19,19,,,,,,,,,,,,,0,113,113,113,,,,,,,,,1,0.776505427039,2,1.46660395402,2018_may._11_1335,60.0215079108,Experimento Piloto1,001,119,
2.5,Stim\\03_028.jpg,Tr28_13,Tristeza,13,Rocío consume alimentos nutritivos.,Afirmación,Tr28,28,,,,,,,,,,,,,0,114,114,114,,,,,,,,,1,0.918692369927,4,0.91667979378,2018_may._11_1335,60.0215079108,Experimento Piloto1,001,119,
2.5,Stim\\02_075.jpg,Al75_1,Alegría,1,Juan colecciona monedas antiguas.,Afirmación,Al75,75,,,,,,,,,,,,,0,115,115,115,,,,,,,,,1,0.653026071117,3,0.650357511171,2018_may._11_1335,60.0215079108,Experimento Piloto1,001,119,
2.5,Stim\\02_028.jpg,Al28_3,Alegría,3,Andrea diseña la portada del libro.,Afirmación,Al28,28,,,,,,,,,,,,,0,116,116,116,,,,,,,,,1,0.984384908088,3,0.433572715358,2018_may._11_1335,60.0215079108,Experimento Piloto1,001,119,
0.25,Stim\\05_028.jpg,En28_10,Enojo,10,Laura finaliza la obra.,Afirmación,En28,28,,,,,,,,,,,,,0,117,117,117,,,,,,,,,1,1.54225941348,2,1.26676540636,2018_may._11_1335,60.0215079108,Experimento Piloto1,001,119,
0.25,Stim\\02_078.jpg,Al78_3,Alegría,3,Andrea diseña la portada del libro.,Afirmación,Al78,78,,,,,,,,,,,,,0,118,118,118,,,,,,,,,1,1.16866994599,3,0.650321811372,2018_may._11_1335,60.0215079108,Experimento Piloto1,001,119,
2.5,Stim\\03_075.jpg,Tr75_15,Tristeza,15,Ángel envía una carta a la abuela.,Afirmación,Tr75,75,,,,,,,,,,,,,0,119,119,119,,,,,,,,,1,0.869163361832,4,1.11661339215,2018_may._11_1335,60.0215079108,Experimento Piloto1,001,119,
