Tiempo,ImagenesE,ClaveEn,Emocion,NumEn,Enunciado,ActoHabla,Clave,Cara,trials.thisRepN,trials.thisTrialN,trials.thisN,trials.thisIndex,Bloque2.thisRepN,Bloque2.thisTrialN,Bloque2.thisN,Bloque2.thisIndex,Bloque3.thisRepN,Bloque3.thisTrialN,Bloque3.thisN,Bloque3.thisIndex,Bloque1.thisRepN,Bloque1.thisTrialN,Bloque1.thisN,Bloque1.thisIndex,Sig_B2.keys,Sig_B2.rt,Resp_Bloque2.keys,Resp_Bloque2.rt,Sig_B3.keys,Sig_B3.rt,Resp_Bloque3.keys,Resp_Bloque3.rt,Sig_B1.keys,Sig_B1.rt,Resp_Bloque1.keys,Resp_Bloque1.rt,date,frameRate,expName,session,participant,
2.5,Stim\\03_028.jpg,Tr28_1,Tristeza,1,Juan colecciona monedas antiguas.,Afirmación,Tr28,28,,,,,0,0,0,0,,,,,,,,,1,2.48292991817,4,1.58323162609,,,,,,,,,2018_may._11_1546,60.0033470429,Experimento Piloto1,001,121,
0.25,Stim\\03_019.jpg,Tr19_1,Tristeza,1,Juan colecciona monedas antiguas.,Afirmación,Tr19,19,,,,,0,1,1,1,,,,,,,,,1,2.71631467409,3,3.01619967611,,,,,,,,,2018_may._11_1546,60.0033470429,Experimento Piloto1,001,121,
2.5,Stim\\03_078.jpg,Tr78_10,Tristeza,10,Laura finaliza la obra.,Afirmación,Tr78,78,,,,,0,2,2,2,,,,,,,,,1,1.93986056551,4,1.41667332319,,,,,,,,,2018_may._11_1546,60.0033470429,Experimento Piloto1,001,121,
0.25,Stim\\02_075.jpg,Al75_5,Alegría,5,Emilio revisa el formato del archivo.,Afirmación,Al75,75,,,,,0,3,3,3,,,,,,,,,1,2.76556834749,3,1.11637911223,,,,,,,,,2018_may._11_1546,60.0033470429,Experimento Piloto1,001,121,
0.25,Stim\\02_019.jpg,Al19_15,Alegría,15,Ángel envía una carta a la abuela.,Afirmación,Al19,19,,,,,0,4,4,4,,,,,,,,,1,2.28374735431,3,1.26678013253,,,,,,,,,2018_may._11_1546,60.0033470429,Experimento Piloto1,001,121,
2.5,Stim\\02_075.jpg,Al75_7,Alegría,7,Roberto contesta los cuestionarios solicitados.,Afirmación,Al75,75,,,,,0,5,5,5,,,,,,,,,1,1.99348791049,3,1.00014146045,,,,,,,,,2018_may._11_1546,60.0033470429,Experimento Piloto1,001,121,
0.25,Stim\\03_075.jpg,Tr75_8,Tristeza,8,Estefanía despierta a las 7 a.m.,Afirmación,Tr75,75,,,,,0,6,6,6,,,,,,,,,1,2.61703174917,4,1.36670565382,,,,,,,,,2018_may._11_1546,60.0033470429,Experimento Piloto1,001,121,
0.25,Stim\\02_019.jpg,Al19_11,Alegría,11,María asiste a la cena.,Afirmación,Al19,19,,,,,0,7,7,7,,,,,,,,,1,1.99148738302,3,1.01680568019,,,,,,,,,2018_may._11_1546,60.0033470429,Experimento Piloto1,001,121,
2.5,Stim\\02_019.jpg,Al19_2,Alegría,2,Jonathan pasea al perro.,Afirmación,Al19,19,,,,,0,8,8,8,,,,,,,,,1,1.02523038642,3,1.51677823597,,,,,,,,,2018_may._11_1546,60.0033470429,Experimento Piloto1,001,121,
2.5,Stim\\05_075.jpg,En75_5,Enojo,5,Emilio revisa el formato del archivo.,Afirmación,En75,75,,,,,0,9,9,9,,,,,,,,,1,1.94916973425,2,3.26631068018,,,,,,,,,2018_may._11_1546,60.0033470429,Experimento Piloto1,001,121,
0.25,Stim\\03_078.jpg,Tr78_10,Tristeza,10,Laura finaliza la obra.,Afirmación,Tr78,78,,,,,0,10,10,10,,,,,,,,,1,2.80795561087,4,1.51729320557,,,,,,,,,2018_may._11_1546,60.0033470429,Experimento Piloto1,001,121,
0.25,Stim\\02_019.jpg,Al19_6,Alegría,6,Eduardo camina hacia la biblioteca.,Afirmación,Al19,19,,,,,0,11,11,11,,,,,,,,,1,1.63527211502,3,0.800717030455,,,,,,,,,2018_may._11_1546,60.0033470429,Experimento Piloto1,001,121,
2.5,Stim\\05_019.jpg,En19_3,Enojo,3,Andrea diseña la portada del libro.,Afirmación,En19,19,,,,,0,12,12,12,,,,,,,,,1,2.19847436911,2,2.71608128666,,,,,,,,,2018_may._11_1546,60.0033470429,Experimento Piloto1,001,121,
0.25,Stim\\05_019.jpg,En19_3,Enojo,3,Andrea diseña la portada del libro.,Afirmación,En19,19,,,,,0,13,13,13,,,,,,,,,1,1.79957062067,2,1.20021473429,,,,,,,,,2018_may._11_1546,60.0033470429,Experimento Piloto1,001,121,
2.5,Stim\\02_028.jpg,Al28_1,Alegría,1,Juan colecciona monedas antiguas.,Afirmación,Al28,28,,,,,0,14,14,14,,,,,,,,,1,1.5863772246,3,0.866861617318,,,,,,,,,2018_may._11_1546,60.0033470429,Experimento Piloto1,001,121,
0.25,Stim\\02_019.jpg,Al19_2,Alegría,2,Jonathan pasea al perro.,Afirmación,Al19,19,,,,,0,15,15,15,,,,,,,,,1,1.22356597256,3,1.00024141989,,,,,,,,,2018_may._11_1546,60.0033470429,Experimento Piloto1,001,121,
0.25,Stim\\05_028.jpg,En28_11,Enojo,11,María asiste a la cena.,Afirmación,En28,28,,,,,0,16,16,16,,,,,,,,,1,2.57425312674,4,1.26636199864,,,,,,,,,2018_may._11_1546,60.0033470429,Experimento Piloto1,001,121,
0.25,Stim\\03_028.jpg,Tr28_1,Tristeza,1,Juan colecciona monedas antiguas.,Afirmación,Tr28,28,,,,,0,17,17,17,,,,,,,,,1,2.13552803795,4,1.21678568831,,,,,,,,,2018_may._11_1546,60.0033470429,Experimento Piloto1,001,121,
0.25,Stim\\03_078.jpg,Tr78_1,Tristeza,1,Juan colecciona monedas antiguas.,Afirmación,Tr78,78,,,,,0,18,18,18,,,,,,,,,1,1.89982502636,4,1.26677924003,,,,,,,,,2018_may._11_1546,60.0033470429,Experimento Piloto1,001,121,
0.25,Stim\\02_019.jpg,Al19_1,Alegría,1,Juan colecciona monedas antiguas.,Afirmación,Al19,19,,,,,0,19,19,19,,,,,,,,,1,1.49967624745,3,1.25017303246,,,,,,,,,2018_may._11_1546,60.0033470429,Experimento Piloto1,001,121,
0.25,Stim\\02_019.jpg,Al19_10,Alegría,10,Laura finaliza la obra.,Afirmación,Al19,19,,,,,0,20,20,20,,,,,,,,,1,1.59156886781,3,1.06678316701,,,,,,,,,2018_may._11_1546,60.0033470429,Experimento Piloto1,001,121,
2.5,Stim\\03_019.jpg,Tr19_13,Tristeza,13,Rocío consume alimentos nutritivos.,Afirmación,Tr19,19,,,,,0,21,21,21,,,,,,,,,1,1.58434992228,2,1.83291289383,,,,,,,,,2018_may._11_1546,60.0033470429,Experimento Piloto1,001,121,
2.5,Stim\\05_075.jpg,En75_6,Enojo,6,Eduardo camina hacia la biblioteca.,Afirmación,En75,75,,,,,0,22,22,22,,,,,,,,,1,1.36831482224,2,1.4830044415,,,,,,,,,2018_may._11_1546,60.0033470429,Experimento Piloto1,001,121,
0.25,Stim\\05_078.jpg,En78_10,Enojo,10,Laura finaliza la obra.,Afirmación,En78,78,,,,,0,23,23,23,,,,,,,,,1,3.0079244628,4,1.93334044354,,,,,,,,,2018_may._11_1546,60.0033470429,Experimento Piloto1,001,121,
2.5,Stim\\05_075.jpg,En75_14,Enojo,14,Elizabeth elige la ropa un día antes.,Afirmación,En75,75,,,,,0,24,24,24,,,,,,,,,1,1.84908758008,2,1.26681493983,,,,,,,,,2018_may._11_1546,60.0033470429,Experimento Piloto1,001,121,
0.25,Stim\\05_019.jpg,En19_7,Enojo,7,Roberto contesta los cuestionarios solicitados.,Afirmación,En19,19,,,,,0,25,25,25,,,,,,,,,1,1.97693123639,2,1.21673526234,,,,,,,,,2018_may._11_1546,60.0033470429,Experimento Piloto1,001,121,
0.25,Stim\\02_078.jpg,Al78_14,Alegría,14,Elizabeth elige la ropa un día antes.,Afirmación,Al78,78,,,,,0,26,26,26,,,,,,,,,1,1.5171901224,3,1.01715107575,,,,,,,,,2018_may._11_1546,60.0033470429,Experimento Piloto1,001,121,
0.25,Stim\\03_028.jpg,Tr28_13,Tristeza,13,Rocío consume alimentos nutritivos.,Afirmación,Tr28,28,,,,,0,27,27,27,,,,,,,,,1,1.97999204787,4,1.48292679444,,,,,,,,,2018_may._11_1546,60.0033470429,Experimento Piloto1,001,121,
2.5,Stim\\03_019.jpg,Tr19_8,Tristeza,8,Estefanía despierta a las 7 a.m.,Afirmación,Tr19,19,,,,,0,28,28,28,,,,,,,,,1,1.68543167081,4,2.03318564029,,,,,,,,,2018_may._11_1546,60.0033470429,Experimento Piloto1,001,121,
2.5,Stim\\02_019.jpg,Al19_8,Alegría,8,Estefanía despierta a las 7 a.m.,Afirmación,Al19,19,,,,,0,29,29,29,,,,,,,,,1,1.23348650034,3,0.816667254227,,,,,,,,,2018_may._11_1546,60.0033470429,Experimento Piloto1,001,121,
2.5,Stim\\02_028.jpg,Al28_9,Alegría,9,Marco colabora en la organización del evento.,Afirmación,Al28,28,,,,,0,30,30,30,,,,,,,,,1,1.97809103359,3,0.916770828268,,,,,,,,,2018_may._11_1546,60.0033470429,Experimento Piloto1,001,121,
2.5,Stim\\03_075.jpg,Tr75_1,Tristeza,1,Juan colecciona monedas antiguas.,Afirmación,Tr75,75,,,,,0,31,31,31,,,,,,,,,1,1.31831323807,4,1.01685878365,,,,,,,,,2018_may._11_1546,60.0033470429,Experimento Piloto1,001,121,
2.5,Stim\\05_078.jpg,En78_8,Enojo,8,Estefanía despierta a las 7 a.m.,Afirmación,En78,78,,,,,0,32,32,32,,,,,,,,,1,1.83686352279,2,1.01679363151,,,,,,,,,2018_may._11_1546,60.0033470429,Experimento Piloto1,001,121,
0.25,Stim\\02_028.jpg,Al28_12,Alegría,12,Ana compra el libro.,Afirmación,Al28,28,,,,,0,33,33,33,,,,,,,,,1,2.04320300378,3,0.700356864112,,,,,,,,,2018_may._11_1546,60.0033470429,Experimento Piloto1,001,121,
0.25,Stim\\05_075.jpg,En75_1,Enojo,1,Juan colecciona monedas antiguas.,Afirmación,En75,75,,,,,0,34,34,34,,,,,,,,,1,1.78522331786,2,1.78317861189,,,,,,,,,2018_may._11_1546,60.0033470429,Experimento Piloto1,001,121,
0.25,Stim\\03_028.jpg,Tr28_4,Tristeza,4,Jorge sustituye a Gustavo cada sábado.,Afirmación,Tr28,28,,,,,0,35,35,35,,,,,,,,,1,2.29042589413,4,1.10023164707,,,,,,,,,2018_may._11_1546,60.0033470429,Experimento Piloto1,001,121,
2.5,Stim\\03_078.jpg,Tr78_3,Tristeza,3,Andrea diseña la portada del libro.,Afirmación,Tr78,78,,,,,0,36,36,36,,,,,,,,,1,1.3852151069,4,1.53312115753,,,,,,,,,2018_may._11_1546,60.0033470429,Experimento Piloto1,001,121,
0.25,Stim\\05_078.jpg,En78_4,Enojo,4,Jorge sustituye a Gustavo cada sábado.,Afirmación,En78,78,,,,,0,37,37,37,,,,,,,,,1,1.83239212302,2,0.90016238946,,,,,,,,,2018_may._11_1546,60.0033470429,Experimento Piloto1,001,121,
2.5,Stim\\03_019.jpg,Tr19_7,Tristeza,7,Roberto contesta los cuestionarios solicitados.,Afirmación,Tr19,19,,,,,0,38,38,38,,,,,,,,,1,1.42718022017,2,1.10039051117,,,,,,,,,2018_may._11_1546,60.0033470429,Experimento Piloto1,001,121,
0.25,Stim\\02_078.jpg,Al78_2,Alegría,2,Jonathan pasea al perro.,Afirmación,Al78,78,,,,,0,39,39,39,,,,,,,,,1,1.43944756347,3,0.750039381341,,,,,,,,,2018_may._11_1546,60.0033470429,Experimento Piloto1,001,121,
0.25,Stim\\02_078.jpg,Al78_5,Alegría,5,Emilio revisa el formato del archivo.,Afirmación,Al78,78,,,,,0,40,40,40,,,,,,,,,1,2.15027250103,3,0.90019764301,,,,,,,,,2018_may._11_1546,60.0033470429,Experimento Piloto1,001,121,
2.5,Stim\\05_019.jpg,En19_11,Enojo,11,María asiste a la cena.,Afirmación,En19,19,,,,,0,41,41,41,,,,,,,,,1,1.44206926743,2,1.66660939824,,,,,,,,,2018_may._11_1546,60.0033470429,Experimento Piloto1,001,121,
2.5,Stim\\02_028.jpg,Al28_15,Alegría,15,Ángel envía una carta a la abuela.,Afirmación,Al28,28,,,,,0,42,42,42,,,,,,,,,1,2.1016801664,3,0.60032959839,,,,,,,,,2018_may._11_1546,60.0033470429,Experimento Piloto1,001,121,
0.25,Stim\\03_019.jpg,Tr19_4,Tristeza,4,Jorge sustituye a Gustavo cada sábado.,Afirmación,Tr19,19,,,,,0,43,43,43,,,,,,,,,1,2.19862118453,2,1.21665538404,,,,,,,,,2018_may._11_1546,60.0033470429,Experimento Piloto1,001,121,
2.5,Stim\\02_075.jpg,Al75_12,Alegría,12,Ana compra el libro.,Afirmación,Al75,75,,,,,0,44,44,44,,,,,,,,,1,0.82746912079,3,0.750223235304,,,,,,,,,2018_may._11_1546,60.0033470429,Experimento Piloto1,001,121,
2.5,Stim\\05_028.jpg,En28_12,Enojo,12,Ana compra el libro.,Afirmación,En28,28,,,,,0,45,45,45,,,,,,,,,1,1.99995225152,2,0.816908674113,,,,,,,,,2018_may._11_1546,60.0033470429,Experimento Piloto1,001,121,
0.25,Stim\\02_028.jpg,Al28_14,Alegría,14,Elizabeth elige la ropa un día antes.,Afirmación,Al28,28,,,,,0,46,46,46,,,,,,,,,1,2.79925021498,3,0.699974876266,,,,,,,,,2018_may._11_1546,60.0033470429,Experimento Piloto1,001,121,
2.5,Stim\\03_075.jpg,Tr75_6,Tristeza,6,Eduardo camina hacia la biblioteca.,Afirmación,Tr75,75,,,,,0,47,47,47,,,,,,,,,1,1.90139358626,4,1.31669603719,,,,,,,,,2018_may._11_1546,60.0033470429,Experimento Piloto1,001,121,
0.25,Stim\\05_028.jpg,En28_8,Enojo,8,Estefanía despierta a las 7 a.m.,Afirmación,En28,28,,,,,0,48,48,48,,,,,,,,,1,2.85297439566,2,0.750363357012,,,,,,,,,2018_may._11_1546,60.0033470429,Experimento Piloto1,001,121,
2.5,Stim\\05_019.jpg,En19_7,Enojo,7,Roberto contesta los cuestionarios solicitados.,Afirmación,En19,19,,,,,0,49,49,49,,,,,,,,,1,1.94252377049,2,0.800304251534,,,,,,,,,2018_may._11_1546,60.0033470429,Experimento Piloto1,001,121,
2.5,Stim\\02_019.jpg,Al19_10,Alegría,10,Laura finaliza la obra.,Afirmación,Al19,19,,,,,0,50,50,50,,,,,,,,,1,1.09232949665,3,1.51675815484,,,,,,,,,2018_may._11_1546,60.0033470429,Experimento Piloto1,001,121,
0.25,Stim\\05_028.jpg,En28_14,Enojo,14,Elizabeth elige la ropa un día antes.,Afirmación,En28,28,,,,,0,51,51,51,,,,,,,,,1,2.24989234279,2,1.10020308723,,,,,,,,,2018_may._11_1546,60.0033470429,Experimento Piloto1,001,121,
2.5,Stim\\03_028.jpg,Tr28_8,Tristeza,8,Estefanía despierta a las 7 a.m.,Afirmación,Tr28,28,,,,,0,52,52,52,,,,,,,,,1,2.05330604679,4,1.06681886681,,,,,,,,,2018_may._11_1546,60.0033470429,Experimento Piloto1,001,121,
0.25,Stim\\02_075.jpg,Al75_3,Alegría,3,Andrea diseña la portada del libro.,Afirmación,Al75,75,,,,,0,53,53,53,,,,,,,,,1,1.41876845512,3,0.750462423954,,,,,,,,,2018_may._11_1546,60.0033470429,Experimento Piloto1,001,121,
0.25,Stim\\02_028.jpg,Al28_1,Alegría,1,Juan colecciona monedas antiguas.,Afirmación,Al28,28,,,,,0,54,54,54,,,,,,,,,1,1.38605940714,3,0.85017687019,,,,,,,,,2018_may._11_1546,60.0033470429,Experimento Piloto1,001,121,
0.25,Stim\\03_028.jpg,Tr28_3,Tristeza,3,Andrea diseña la portada del libro.,Afirmación,Tr28,28,,,,,0,55,55,55,,,,,,,,,1,1.58512059169,4,0.900295817457,,,,,,,,,2018_may._11_1546,60.0033470429,Experimento Piloto1,001,121,
2.5,Stim\\02_078.jpg,Al78_11,Alegría,11,María asiste a la cena.,Afirmación,Al78,78,,,,,0,56,56,56,,,,,,,,,1,2.15832949932,3,1.31669157471,,,,,,,,,2018_may._11_1546,60.0033470429,Experimento Piloto1,001,121,
0.25,Stim\\03_019.jpg,Tr19_12,Tristeza,12,Ana compra el libro.,Afirmación,Tr19,19,,,,,0,57,57,57,,,,,,,,,1,1.99274892465,3,1.41668760311,,,,,,,,,2018_may._11_1546,60.0033470429,Experimento Piloto1,001,121,
2.5,Stim\\02_078.jpg,Al78_14,Alegría,14,Elizabeth elige la ropa un día antes.,Afirmación,Al78,78,,,,,0,58,58,58,,,,,,,,,1,1.89807618248,3,0.650209803254,,,,,,,,,2018_may._11_1546,60.0033470429,Experimento Piloto1,001,121,
0.25,Stim\\03_019.jpg,Tr19_2,Tristeza,2,Jonathan pasea al perro.,Afirmación,Tr19,19,,,,,0,59,59,59,,,,,,,,,1,1.45499080953,3,1.71659982623,,,,,,,,,2018_may._11_1546,60.0033470429,Experimento Piloto1,001,121,
2.5,Stim\\03_078.jpg,Tr78_1,Tristeza,1,Juan colecciona monedas antiguas.,Afirmación,Tr78,78,,,,,0,60,60,60,,,,,,,,,1,1.43537689393,4,0.950328638959,,,,,,,,,2018_may._11_1546,60.0033470429,Experimento Piloto1,001,121,
0.25,Stim\\03_078.jpg,Tr78_4,Tristeza,4,Jorge sustituye a Gustavo cada sábado.,Afirmación,Tr78,78,,,,,0,61,61,61,,,,,,,,,1,1.94844681332,4,0.650167855991,,,,,,,,,2018_may._11_1546,60.0033470429,Experimento Piloto1,001,121,
0.25,Stim\\05_019.jpg,En19_14,Enojo,14,Elizabeth elige la ropa un día antes.,Afirmación,En19,19,,,,,0,62,62,62,,,,,,,,,1,1.68264440903,2,0.900154357005,,,,,,,,,2018_may._11_1546,60.0033470429,Experimento Piloto1,001,121,
0.25,Stim\\02_075.jpg,Al75_15,Alegría,15,Ángel envía una carta a la abuela.,Afirmación,Al75,75,,,,,0,63,63,63,,,,,,,,,1,1.73564566879,3,0.650394995959,,,,,,,,,2018_may._11_1546,60.0033470429,Experimento Piloto1,001,121,
2.5,Stim\\03_028.jpg,Tr28_2,Tristeza,2,Jonathan pasea al perro.,Afirmación,Tr28,28,,,,,0,64,64,64,,,,,,,,,1,1.02485687728,4,1.31682723395,,,,,,,,,2018_may._11_1546,60.0033470429,Experimento Piloto1,001,121,
0.25,Stim\\05_028.jpg,En28_3,Enojo,3,Andrea diseña la portada del libro.,Afirmación,En28,28,,,,,0,65,65,65,,,,,,,,,1,1.31743636176,2,0.966764379989,,,,,,,,,2018_may._11_1546,60.0033470429,Experimento Piloto1,001,121,
0.25,Stim\\05_078.jpg,En78_3,Enojo,3,Andrea diseña la portada del libro.,Afirmación,En78,78,,,,,0,66,66,66,,,,,,,,,1,1.89979825151,2,0.70020112374,,,,,,,,,2018_may._11_1546,60.0033470429,Experimento Piloto1,001,121,
0.25,Stim\\05_075.jpg,En75_9,Enojo,9,Marco colabora en la organización del evento.,Afirmación,En75,75,,,,,0,67,67,67,,,,,,,,,1,2.69472745212,2,0.716521286673,,,,,,,,,2018_may._11_1546,60.0033470429,Experimento Piloto1,001,121,
2.5,Stim\\05_075.jpg,En75_7,Enojo,7,Roberto contesta los cuestionarios solicitados.,Afirmación,En75,75,,,,,0,68,68,68,,,,,,,,,1,1.46016772658,2,0.76691155241,,,,,,,,,2018_may._11_1546,60.0033470429,Experimento Piloto1,001,121,
0.25,Stim\\03_078.jpg,Tr78_14,Tristeza,14,Elizabeth elige la ropa un día antes.,Afirmación,Tr78,78,,,,,0,69,69,69,,,,,,,,,1,1.56620014467,4,0.700195322523,,,,,,,,,2018_may._11_1546,60.0033470429,Experimento Piloto1,001,121,
2.5,Stim\\03_019.jpg,Tr19_5,Tristeza,5,Emilio revisa el formato del archivo.,Afirmación,Tr19,19,,,,,0,70,70,70,,,,,,,,,1,2.04726028589,3,1.01679407776,,,,,,,,,2018_may._11_1546,60.0033470429,Experimento Piloto1,001,121,
2.5,Stim\\05_028.jpg,En28_13,Enojo,13,Rocío consume alimentos nutritivos.,Afirmación,En28,28,,,,,0,71,71,71,,,,,,,,,1,2.50103016231,2,1.46681279784,,,,,,,,,2018_may._11_1546,60.0033470429,Experimento Piloto1,001,121,
0.25,Stim\\05_075.jpg,En75_15,Enojo,15,Ángel envía una carta a la abuela.,Afirmación,En75,75,,,,,0,72,72,72,,,,,,,,,1,2.66813601088,2,0.800132446253,,,,,,,,,2018_may._11_1546,60.0033470429,Experimento Piloto1,001,121,
2.5,Stim\\05_019.jpg,En19_6,Enojo,6,Eduardo camina hacia la biblioteca.,Afirmación,En19,19,,,,,0,73,73,73,,,,,,,,,1,1.43427823263,2,0.600322012184,,,,,,,,,2018_may._11_1546,60.0033470429,Experimento Piloto1,001,121,
2.5,Stim\\05_078.jpg,En78_10,Enojo,10,Laura finaliza la obra.,Afirmación,En78,78,,,,,0,74,74,74,,,,,,,,,1,1.07598657509,2,0.750199584187,,,,,,,,,2018_may._11_1546,60.0033470429,Experimento Piloto1,001,121,
2.5,Stim\\05_019.jpg,En19_9,Enojo,9,Marco colabora en la organización del evento.,Afirmación,En19,19,,,,,0,75,75,75,,,,,,,,,1,1.84495979087,2,0.900443525372,,,,,,,,,2018_may._11_1546,60.0033470429,Experimento Piloto1,001,121,
2.5,Stim\\02_078.jpg,Al78_6,Alegría,6,Eduardo camina hacia la biblioteca.,Afirmación,Al78,78,,,,,0,76,76,76,,,,,,,,,1,1.16757485467,3,0.76661033536,,,,,,,,,2018_may._11_1546,60.0033470429,Experimento Piloto1,001,121,
2.5,Stim\\05_078.jpg,En78_13,Enojo,13,Rocío consume alimentos nutritivos.,Afirmación,En78,78,,,,,0,77,77,77,,,,,,,,,1,1.78422506224,2,0.900270827597,,,,,,,,,2018_may._11_1546,60.0033470429,Experimento Piloto1,001,121,
0.25,Stim\\05_028.jpg,En28_2,Enojo,2,Jonathan pasea al perro.,Afirmación,En28,28,,,,,0,78,78,78,,,,,,,,,1,1.2251800497,2,0.866881698454,,,,,,,,,2018_may._11_1546,60.0033470429,Experimento Piloto1,001,121,
0.25,Stim\\05_019.jpg,En19_6,Enojo,6,Eduardo camina hacia la biblioteca.,Afirmación,En19,19,,,,,0,79,79,79,,,,,,,,,1,1.5681721123,2,0.766868712652,,,,,,,,,2018_may._11_1546,60.0033470429,Experimento Piloto1,001,121,
2.5,Stim\\03_019.jpg,Tr19_11,Tristeza,11,María asiste a la cena.,Afirmación,Tr19,19,,,,,0,80,80,80,,,,,,,,,1,1.79231240537,3,1.26672212035,,,,,,,,,2018_may._11_1546,60.0033470429,Experimento Piloto1,001,121,
2.5,Stim\\05_028.jpg,En28_11,Enojo,11,María asiste a la cena.,Afirmación,En28,28,,,,,0,81,81,81,,,,,,,,,1,1.55004553956,2,0.600340754578,,,,,,,,,2018_may._11_1546,60.0033470429,Experimento Piloto1,001,121,
0.25,Stim\\02_078.jpg,Al78_9,Alegría,9,Marco colabora en la organización del evento.,Afirmación,Al78,78,,,,,0,82,82,82,,,,,,,,,1,1.82819650419,3,0.750225912789,,,,,,,,,2018_may._11_1546,60.0033470429,Experimento Piloto1,001,121,
0.25,Stim\\05_019.jpg,En19_13,Enojo,13,Rocío consume alimentos nutritivos.,Afirmación,En19,19,,,,,0,83,83,83,,,,,,,,,1,1.78429735433,2,0.70024173226,,,,,,,,,2018_may._11_1546,60.0033470429,Experimento Piloto1,001,121,
0.25,Stim\\03_078.jpg,Tr78_11,Tristeza,11,María asiste a la cena.,Afirmación,Tr78,78,,,,,0,84,84,84,,,,,,,,,1,1.49162281913,4,1.05016981948,,,,,,,,,2018_may._11_1546,60.0033470429,Experimento Piloto1,001,121,
2.5,Stim\\05_028.jpg,En28_5,Enojo,5,Emilio revisa el formato del archivo.,Afirmación,En28,28,,,,,0,85,85,85,,,,,,,,,1,1.33286313724,2,0.700167655179,,,,,,,,,2018_may._11_1546,60.0033470429,Experimento Piloto1,001,121,
0.25,Stim\\03_028.jpg,Tr28_10,Tristeza,10,Laura finaliza la obra.,Afirmación,Tr28,28,,,,,0,86,86,86,,,,,,,,,1,1.49158265686,4,0.583729192038,,,,,,,,,2018_may._11_1546,60.0033470429,Experimento Piloto1,001,121,
0.25,Stim\\05_019.jpg,En19_11,Enojo,11,María asiste a la cena.,Afirmación,En19,19,,,,,0,87,87,87,,,,,,,,,1,1.14207627351,2,1.00011245437,,,,,,,,,2018_may._11_1546,60.0033470429,Experimento Piloto1,001,121,
2.5,Stim\\03_028.jpg,Tr28_9,Tristeza,9,Marco colabora en la organización del evento.,Afirmación,Tr28,28,,,,,0,88,88,88,,,,,,,,,1,1.37809612081,4,0.700290819485,,,,,,,,,2018_may._11_1546,60.0033470429,Experimento Piloto1,001,121,
2.5,Stim\\05_019.jpg,En19_8,Enojo,8,Estefanía despierta a las 7 a.m.,Afirmación,En19,19,,,,,0,89,89,89,,,,,,,,,1,1.01988344908,2,0.700361772835,,,,,,,,,2018_may._11_1546,60.0033470429,Experimento Piloto1,001,121,
0.25,Stim\\03_075.jpg,Tr75_9,Tristeza,9,Marco colabora en la organización del evento.,Afirmación,Tr75,75,,,,,0,90,90,90,,,,,,,,,1,1.62793045144,4,0.750163438141,,,,,,,,,2018_may._11_1546,60.0033470429,Experimento Piloto1,001,121,
2.5,Stim\\02_075.jpg,Al75_3,Alegría,3,Andrea diseña la portada del libro.,Afirmación,Al75,75,,,,,0,91,91,91,,,,,,,,,1,1.01845501089,3,0.70036221908,,,,,,,,,2018_may._11_1546,60.0033470429,Experimento Piloto1,001,121,
0.25,Stim\\05_028.jpg,En28_12,Enojo,12,Ana compra el libro.,Afirmación,En28,28,,,,,0,92,92,92,,,,,,,,,1,1.07701963801,4,0.600266677497,,,,,,,,,2018_may._11_1546,60.0033470429,Experimento Piloto1,001,121,
0.25,Stim\\03_028.jpg,Tr28_7,Tristeza,7,Roberto contesta los cuestionarios solicitados.,Afirmación,Tr28,28,,,,,0,93,93,93,,,,,,,,,1,1.92684932766,4,0.599868624742,,,,,,,,,2018_may._11_1546,60.0033470429,Experimento Piloto1,001,121,
0.25,Stim\\03_019.jpg,Tr19_8,Tristeza,8,Estefanía despierta a las 7 a.m.,Afirmación,Tr19,19,,,,,0,94,94,94,,,,,,,,,1,1.43413409469,3,0.75021654159,,,,,,,,,2018_may._11_1546,60.0033470429,Experimento Piloto1,001,121,
0.25,Stim\\02_019.jpg,Al19_4,Alegría,4,Jorge sustituye a Gustavo cada sábado.,Afirmación,Al19,19,,,,,0,95,95,95,,,,,,,,,1,1.58215259968,3,0.650409722126,,,,,,,,,2018_may._11_1546,60.0033470429,Experimento Piloto1,001,121,
2.5,Stim\\05_019.jpg,En19_15,Enojo,15,Ángel envía una carta a la abuela.,Afirmación,En19,19,,,,,0,96,96,96,,,,,,,,,1,1.31942796428,2,1.26643295198,,,,,,,,,2018_may._11_1546,60.0033470429,Experimento Piloto1,001,121,
0.25,Stim\\05_075.jpg,En75_13,Enojo,13,Rocío consume alimentos nutritivos.,Afirmación,En75,75,,,,,0,97,97,97,,,,,,,,,1,1.37931660768,2,0.700336782977,,,,,,,,,2018_may._11_1546,60.0033470429,Experimento Piloto1,001,121,
0.25,Stim\\02_078.jpg,Al78_7,Alegría,7,Roberto contesta los cuestionarios solicitados.,Afirmación,Al78,78,,,,,0,98,98,98,,,,,,,,,1,1.56035207141,3,0.65016071603,,,,,,,,,2018_may._11_1546,60.0033470429,Experimento Piloto1,001,121,
2.5,Stim\\03_028.jpg,Tr28_3,Tristeza,3,Andrea diseña la portada del libro.,Afirmación,Tr28,28,,,,,0,99,99,99,,,,,,,,,1,0.933523851259,4,0.700169886417,,,,,,,,,2018_may._11_1546,60.0033470429,Experimento Piloto1,001,121,
2.5,Stim\\05_075.jpg,En75_15,Enojo,15,Ángel envía una carta a la abuela.,Afirmación,En75,75,,,,,0,100,100,100,,,,,,,,,1,1.11900572491,2,1.01645626842,,,,,,,,,2018_may._11_1546,60.0033470429,Experimento Piloto1,001,121,
0.25,Stim\\02_028.jpg,Al28_13,Alegría,13,Rocío consume alimentos nutritivos.,Afirmación,Al28,28,,,,,0,101,101,101,,,,,,,,,1,1.41768675123,3,0.600164040574,,,,,,,,,2018_may._11_1546,60.0033470429,Experimento Piloto1,001,121,
0.25,Stim\\03_028.jpg,Tr28_15,Tristeza,15,Ángel envía una carta a la abuela.,Afirmación,Tr28,28,,,,,0,102,102,102,,,,,,,,,1,1.36744910213,4,0.600305501026,,,,,,,,,2018_may._11_1546,60.0033470429,Experimento Piloto1,001,121,
0.25,Stim\\05_019.jpg,En19_2,Enojo,2,Jonathan pasea al perro.,Afirmación,En19,19,,,,,0,103,103,103,,,,,,,,,1,1.22434958314,2,0.966698335364,,,,,,,,,2018_may._11_1546,60.0033470429,Experimento Piloto1,001,121,
0.25,Stim\\03_078.jpg,Tr78_13,Tristeza,13,Rocío consume alimentos nutritivos.,Afirmación,Tr78,78,,,,,0,104,104,104,,,,,,,,,1,1.63419621234,4,0.650246841795,,,,,,,,,2018_may._11_1546,60.0033470429,Experimento Piloto1,001,121,
2.5,Stim\\03_075.jpg,Tr75_2,Tristeza,2,Jonathan pasea al perro.,Afirmación,Tr75,75,,,,,0,105,105,105,,,,,,,,,1,1.02516746552,4,0.900359184599,,,,,,,,,2018_may._11_1546,60.0033470429,Experimento Piloto1,001,121,
2.5,Stim\\05_075.jpg,En75_10,Enojo,10,Laura finaliza la obra.,Afirmación,En75,75,,,,,0,106,106,106,,,,,,,,,1,1.29174991042,2,1.00027622719,,,,,,,,,2018_may._11_1546,60.0033470429,Experimento Piloto1,001,121,
2.5,Stim\\05_028.jpg,En28_3,Enojo,3,Andrea diseña la portada del libro.,Afirmación,En28,28,,,,,0,107,107,107,,,,,,,,,1,1.75088502032,2,0.533783388795,,,,,,,,,2018_may._11_1546,60.0033470429,Experimento Piloto1,001,121,
2.5,Stim\\02_078.jpg,Al78_8,Alegría,8,Estefanía despierta a las 7 a.m.,Afirmación,Al78,78,,,,,0,108,108,108,,,,,,,,,1,1.33159133191,3,0.700373821515,,,,,,,,,2018_may._11_1546,60.0033470429,Experimento Piloto1,001,121,
2.5,Stim\\05_075.jpg,En75_2,Enojo,2,Jonathan pasea al perro.,Afirmación,En75,75,,,,,0,109,109,109,,,,,,,,,1,2.00815918897,2,1.11670978161,,,,,,,,,2018_may._11_1546,60.0033470429,Experimento Piloto1,001,121,
0.25,Stim\\05_078.jpg,En78_2,Enojo,2,Jonathan pasea al perro.,Afirmación,En78,78,,,,,0,110,110,110,,,,,,,,,1,1.43335673158,2,0.700288141999,,,,,,,,,2018_may._11_1546,60.0033470429,Experimento Piloto1,001,121,
2.5,Stim\\05_078.jpg,En78_14,Enojo,14,Elizabeth elige la ropa un día antes.,Afirmación,En78,78,,,,,0,111,111,111,,,,,,,,,1,1.94949460241,2,0.650454793124,,,,,,,,,2018_may._11_1546,60.0033470429,Experimento Piloto1,001,121,
2.5,Stim\\05_028.jpg,En28_1,Enojo,1,Juan colecciona monedas antiguas.,Afirmación,En28,28,,,,,0,112,112,112,,,,,,,,,1,1.11992276349,2,0.800314515225,,,,,,,,,2018_may._11_1546,60.0033470429,Experimento Piloto1,001,121,
0.25,Stim\\05_019.jpg,En19_12,Enojo,12,Ana compra el libro.,Afirmación,En19,19,,,,,0,113,113,113,,,,,,,,,1,1.29284232425,2,0.649911263687,,,,,,,,,2018_may._11_1546,60.0033470429,Experimento Piloto1,001,121,
0.25,Stim\\02_075.jpg,Al75_13,Alegría,13,Rocío consume alimentos nutritivos.,Afirmación,Al75,75,,,,,0,114,114,114,,,,,,,,,1,1.61728075526,3,0.550454302249,,,,,,,,,2018_may._11_1546,60.0033470429,Experimento Piloto1,001,121,
2.5,Stim\\03_019.jpg,Tr19_6,Tristeza,6,Eduardo camina hacia la biblioteca.,Afirmación,Tr19,19,,,,,0,115,115,115,,,,,,,,,1,2.05031351117,3,0.65018570589,,,,,,,,,2018_may._11_1546,60.0033470429,Experimento Piloto1,001,121,
2.5,Stim\\05_028.jpg,En28_14,Enojo,14,Elizabeth elige la ropa un día antes.,Afirmación,En28,28,,,,,0,116,116,116,,,,,,,,,1,1.21611096211,2,0.600581728218,,,,,,,,,2018_may._11_1546,60.0033470429,Experimento Piloto1,001,121,
2.5,Stim\\02_028.jpg,Al28_5,Alegría,5,Emilio revisa el formato del archivo.,Afirmación,Al28,28,,,,,0,117,117,117,,,,,,,,,1,1.33360792428,3,0.966645678162,,,,,,,,,2018_may._11_1546,60.0033470429,Experimento Piloto1,001,121,
2.5,Stim\\02_078.jpg,Al78_9,Alegría,9,Marco colabora en la organización del evento.,Afirmación,Al78,78,,,,,0,118,118,118,,,,,,,,,1,1.92616433777,3,0.96684961326,,,,,,,,,2018_may._11_1546,60.0033470429,Experimento Piloto1,001,121,
0.25,Stim\\03_019.jpg,Tr19_3,Tristeza,3,Andrea diseña la portada del libro.,Afirmación,Tr19,19,,,,,0,119,119,119,,,,,,,,,1,1.93234441916,3,0.600306393522,,,,,,,,,2018_may._11_1546,60.0033470429,Experimento Piloto1,001,121,
0.25,Stim\\02_075.jpg,Al75_11,Alegría,11,María asiste a la cena.,Afirmación,Al75,75,,,,,,,,,0,0,0,0,,,,,,,,,1,2.02511436207,3,0.917154154855,,,,,2018_may._11_1546,60.0033470429,Experimento Piloto1,001,121,
2.5,Stim\\03_019.jpg,Tr19_9,Tristeza,9,Marco colabora en la organización del evento.,Afirmación,Tr19,19,,,,,,,,,0,1,1,1,,,,,,,,,1,1.5288014819,3,1.31677011427,,,,,2018_may._11_1546,60.0033470429,Experimento Piloto1,001,121,
2.5,Stim\\02_075.jpg,Al75_8,Alegría,8,Estefanía despierta a las 7 a.m.,Afirmación,Al75,75,,,,,,,,,0,2,2,2,,,,,,,,,1,1.3698566073,3,1.21672187492,,,,,2018_may._11_1546,60.0033470429,Experimento Piloto1,001,121,
2.5,Stim\\03_075.jpg,Tr75_13,Tristeza,13,Rocío consume alimentos nutritivos.,Afirmación,Tr75,75,,,,,,,,,0,3,3,3,,,,,,,,,1,1.28361035633,4,0.800231959442,,,,,2018_may._11_1546,60.0033470429,Experimento Piloto1,001,121,
0.25,Stim\\03_019.jpg,Tr19_15,Tristeza,15,Ángel envía una carta a la abuela.,Afirmación,Tr19,19,,,,,,,,,0,4,4,4,,,,,,,,,1,1.78447362209,3,1.01648125828,,,,,2018_may._11_1546,60.0033470429,Experimento Piloto1,001,121,
2.5,Stim\\05_075.jpg,En75_11,Enojo,11,María asiste a la cena.,Afirmación,En75,75,,,,,,,,,0,5,5,5,,,,,,,,,1,1.02573821605,2,1.16666495605,,,,,2018_may._11_1546,60.0033470429,Experimento Piloto1,001,121,
0.25,Stim\\05_028.jpg,En28_4,Enojo,4,Jorge sustituye a Gustavo cada sábado.,Afirmación,En28,28,,,,,,,,,0,6,6,6,,,,,,,,,1,2.08214657534,2,0.750277231247,,,,,2018_may._11_1546,60.0033470429,Experimento Piloto1,001,121,
2.5,Stim\\05_028.jpg,En28_9,Enojo,9,Marco colabora en la organización del evento.,Afirmación,En28,28,,,,,,,,,0,7,7,7,,,,,,,,,1,1.74439568943,2,0.6498916288,,,,,2018_may._11_1546,60.0033470429,Experimento Piloto1,001,121,
2.5,Stim\\03_075.jpg,Tr75_9,Tristeza,9,Marco colabora en la organización del evento.,Afirmación,Tr75,75,,,,,,,,,0,8,8,8,,,,,,,,,1,1.38333283502,4,0.650300391493,,,,,2018_may._11_1546,60.0033470429,Experimento Piloto1,001,121,
2.5,Stim\\05_028.jpg,En28_15,Enojo,15,Ángel envía una carta a la abuela.,Afirmación,En28,28,,,,,,,,,0,9,9,9,,,,,,,,,1,1.08267314737,2,0.899733545628,,,,,2018_may._11_1546,60.0033470429,Experimento Piloto1,001,121,
0.25,Stim\\03_078.jpg,Tr78_8,Tristeza,8,Estefanía despierta a las 7 a.m.,Afirmación,Tr78,78,,,,,,,,,0,10,10,10,,,,,,,,,1,1.53413056934,4,1.10015266126,,,,,2018_may._11_1546,60.0033470429,Experimento Piloto1,001,121,
0.25,Stim\\02_075.jpg,Al75_1,Alegría,1,Juan colecciona monedas antiguas.,Afirmación,Al75,75,,,,,,,,,0,11,11,11,,,,,,,,,1,1.73331848817,3,0.650270046664,,,,,2018_may._11_1546,60.0033470429,Experimento Piloto1,001,121,
0.25,Stim\\05_078.jpg,En78_11,Enojo,11,María asiste a la cena.,Afirmación,En78,78,,,,,,,,,0,12,12,12,,,,,,,,,1,1.22502832556,2,0.700225667351,,,,,2018_may._11_1546,60.0033470429,Experimento Piloto1,001,121,
2.5,Stim\\03_028.jpg,Tr28_15,Tristeza,15,Ángel envía una carta a la abuela.,Afirmación,Tr28,28,,,,,,,,,0,13,13,13,,,,,,,,,1,1.4355232631,4,0.700239501024,,,,,2018_may._11_1546,60.0033470429,Experimento Piloto1,001,121,
2.5,Stim\\02_019.jpg,Al19_3,Alegría,3,Andrea diseña la portada del libro.,Afirmación,Al19,19,,,,,,,,,0,14,14,14,,,,,,,,,1,1.33275112912,2,0.850252286014,,,,,2018_may._11_1546,60.0033470429,Experimento Piloto1,001,121,
2.5,Stim\\05_019.jpg,En19_5,Enojo,5,Emilio revisa el formato del archivo.,Afirmación,En19,19,,,,,,,,,0,15,15,15,,,,,,,,,1,1.18341307032,2,0.850305389466,,,,,2018_may._11_1546,60.0033470429,Experimento Piloto1,001,121,
0.25,Stim\\02_028.jpg,Al28_11,Alegría,11,María asiste a la cena.,Afirmación,Al28,28,,,,,,,,,0,16,16,16,,,,,,,,,1,1.44186399358,3,0.533632557146,,,,,2018_may._11_1546,60.0033470429,Experimento Piloto1,001,121,
0.25,Stim\\03_019.jpg,Tr19_11,Tristeza,11,María asiste a la cena.,Afirmación,Tr19,19,,,,,,,,,0,17,17,17,,,,,,,,,1,1.24978881338,3,1.25007441177,,,,,2018_may._11_1546,60.0033470429,Experimento Piloto1,001,121,
2.5,Stim\\03_078.jpg,Tr78_14,Tristeza,14,Elizabeth elige la ropa un día antes.,Afirmación,Tr78,78,,,,,,,,,0,18,18,18,,,,,,,,,1,1.74921694723,4,1.56660846112,,,,,2018_may._11_1546,60.0033470429,Experimento Piloto1,001,121,
0.25,Stim\\02_019.jpg,Al19_9,Alegría,9,Marco colabora en la organización del evento.,Afirmación,Al19,19,,,,,,,,,0,19,19,19,,,,,,,,,1,2.14411919449,3,1.10001521704,,,,,2018_may._11_1546,60.0033470429,Experimento Piloto1,001,121,
2.5,Stim\\02_075.jpg,Al75_11,Alegría,11,María asiste a la cena.,Afirmación,Al75,75,,,,,,,,,0,20,20,20,,,,,,,,,1,1.24173583131,3,0.750229482768,,,,,2018_may._11_1546,60.0033470429,Experimento Piloto1,001,121,
0.25,Stim\\02_028.jpg,Al28_4,Alegría,4,Jorge sustituye a Gustavo cada sábado.,Afirmación,Al28,28,,,,,,,,,0,21,21,21,,,,,,,,,1,2.24857323524,3,0.500003346857,,,,,2018_may._11_1546,60.0033470429,Experimento Piloto1,001,121,
2.5,Stim\\02_075.jpg,Al75_10,Alegría,10,Laura finaliza la obra.,Afirmación,Al75,75,,,,,,,,,0,22,22,22,,,,,,,,,1,1.94140011933,3,0.500266186624,,,,,2018_may._11_1546,60.0033470429,Experimento Piloto1,001,121,
0.25,Stim\\05_075.jpg,En75_4,Enojo,4,Jorge sustituye a Gustavo cada sábado.,Afirmación,En75,75,,,,,,,,,0,23,23,23,,,,,,,,,1,2.29843112773,2,0.900176223131,,,,,2018_may._11_1546,60.0033470429,Experimento Piloto1,001,121,
2.5,Stim\\02_028.jpg,Al28_11,Alegría,11,María asiste a la cena.,Afirmación,Al28,28,,,,,,,,,0,24,24,24,,,,,,,,,1,1.02582121809,3,0.650370452347,,,,,2018_may._11_1546,60.0033470429,Experimento Piloto1,001,121,
0.25,Stim\\02_078.jpg,Al78_1,Alegría,1,Juan colecciona monedas antiguas.,Afirmación,Al78,78,,,,,,,,,0,25,25,25,,,,,,,,,1,2.61846821982,3,0.850179547673,,,,,2018_may._11_1546,60.0033470429,Experimento Piloto1,001,121,
2.5,Stim\\02_019.jpg,Al19_7,Alegría,7,Roberto contesta los cuestionarios solicitados.,Afirmación,Al19,19,,,,,,,,,0,26,26,26,,,,,,,,,1,1.77709090374,3,0.600265338753,,,,,2018_may._11_1546,60.0033470429,Experimento Piloto1,001,121,
0.25,Stim\\05_028.jpg,En28_15,Enojo,15,Ángel envía una carta a la abuela.,Afirmación,En28,28,,,,,,,,,0,27,27,27,,,,,,,,,1,2.50147685604,2,0.850459791092,,,,,2018_may._11_1546,60.0033470429,Experimento Piloto1,001,121,
0.25,Stim\\03_075.jpg,Tr75_2,Tristeza,2,Jonathan pasea al perro.,Afirmación,Tr75,75,,,,,,,,,0,28,28,28,,,,,,,,,1,2.52469555881,4,0.90014275457,,,,,2018_may._11_1546,60.0033470429,Experimento Piloto1,001,121,
0.25,Stim\\05_075.jpg,En75_3,Enojo,3,Andrea diseña la portada del libro.,Afirmación,En75,75,,,,,,,,,0,29,29,29,,,,,,,,,1,2.65104428605,2,1.26672479784,,,,,2018_may._11_1546,60.0033470429,Experimento Piloto1,001,121,
2.5,Stim\\05_028.jpg,En28_10,Enojo,10,Laura finaliza la obra.,Afirmación,En28,28,,,,,,,,,0,30,30,30,,,,,,,,,1,1.59138233636,2,0.600696413821,,,,,2018_may._11_1546,60.0033470429,Experimento Piloto1,001,121,
0.25,Stim\\05_019.jpg,En19_4,Enojo,4,Jorge sustituye a Gustavo cada sábado.,Afirmación,En19,19,,,,,,,,,0,31,31,31,,,,,,,,,1,3.01381626831,2,0.550379332673,,,,,2018_may._11_1546,60.0033470429,Experimento Piloto1,001,121,
2.5,Stim\\02_078.jpg,Al78_1,Alegría,1,Juan colecciona monedas antiguas.,Afirmación,Al78,78,,,,,,,,,0,32,32,32,,,,,,,,,1,1.58628306638,3,0.800435448293,,,,,2018_may._11_1546,60.0033470429,Experimento Piloto1,001,121,
0.25,Stim\\05_075.jpg,En75_6,Enojo,6,Eduardo camina hacia la biblioteca.,Afirmación,En75,75,,,,,,,,,0,33,33,33,,,,,,,,,1,1.78425183709,2,1.06683582421,,,,,2018_may._11_1546,60.0033470429,Experimento Piloto1,001,121,
2.5,Stim\\02_019.jpg,Al19_12,Alegría,12,Ana compra el libro.,Afirmación,Al19,19,,,,,,,,,0,34,34,34,,,,,,,,,1,2.16003237972,3,0.483555110894,,,,,2018_may._11_1546,60.0033470429,Experimento Piloto1,001,121,
0.25,Stim\\05_075.jpg,En75_8,Enojo,8,Estefanía despierta a las 7 a.m.,Afirmación,En75,75,,,,,,,,,0,35,35,35,,,,,,,,,1,3.23565749435,2,0.650298160255,,,,,2018_may._11_1546,60.0033470429,Experimento Piloto1,001,121,
2.5,Stim\\03_028.jpg,Tr28_4,Tristeza,4,Jorge sustituye a Gustavo cada sábado.,Afirmación,Tr28,28,,,,,,,,,0,36,36,36,,,,,,,,,1,1.53296630965,4,0.850232651126,,,,,2018_may._11_1546,60.0033470429,Experimento Piloto1,001,121,
0.25,Stim\\03_078.jpg,Tr78_12,Tristeza,12,Ana compra el libro.,Afirmación,Tr78,78,,,,,,,,,0,37,37,37,,,,,,,,,1,1.47676813293,4,0.600273371207,,,,,2018_may._11_1546,60.0033470429,Experimento Piloto1,001,121,
2.5,Stim\\03_019.jpg,Tr19_3,Tristeza,3,Andrea diseña la portada del libro.,Afirmación,Tr19,19,,,,,,,,,0,38,38,38,,,,,,,,,1,2.05061517447,3,1.63324927518,,,,,2018_may._11_1546,60.0033470429,Experimento Piloto1,001,121,
2.5,Stim\\05_075.jpg,En75_4,Enojo,4,Jorge sustituye a Gustavo cada sábado.,Afirmación,En75,75,,,,,,,,,0,39,39,39,,,,,,,,,1,2.19877424742,3,0.750312038552,,,,,2018_may._11_1546,60.0033470429,Experimento Piloto1,001,121,
0.25,Stim\\05_078.jpg,En78_6,Enojo,6,Eduardo camina hacia la biblioteca.,Afirmación,En78,78,,,,,,,,,0,40,40,40,,,,,,,,,1,2.18425558557,2,0.916839550378,,,,,2018_may._11_1546,60.0033470429,Experimento Piloto1,001,121,
0.25,Stim\\03_078.jpg,Tr78_3,Tristeza,3,Andrea diseña la portada del libro.,Afirmación,Tr78,78,,,,,,,,,0,41,41,41,,,,,,,,,1,1.51806833745,4,0.600309517255,,,,,2018_may._11_1546,60.0033470429,Experimento Piloto1,001,121,
0.25,Stim\\05_078.jpg,En78_15,Enojo,15,Ángel envía una carta a la abuela.,Afirmación,En78,78,,,,,,,,,0,42,42,42,,,,,,,,,1,1.33563299536,2,0.750388346873,,,,,2018_may._11_1546,60.0033470429,Experimento Piloto1,001,121,
2.5,Stim\\05_078.jpg,En78_2,Enojo,2,Jonathan pasea al perro.,Afirmación,En78,78,,,,,,,,,0,43,43,43,,,,,,,,,1,1.17428507806,2,0.600122539558,,,,,2018_may._11_1546,60.0033470429,Experimento Piloto1,001,121,
2.5,Stim\\02_078.jpg,Al78_4,Alegría,4,Jorge sustituye a Gustavo cada sábado.,Afirmación,Al78,78,,,,,,,,,0,44,44,44,,,,,,,,,1,1.38290265245,3,0.800264089259,,,,,2018_may._11_1546,60.0033470429,Experimento Piloto1,001,121,
2.5,Stim\\05_078.jpg,En78_4,Enojo,4,Jorge sustituye a Gustavo cada sábado.,Afirmación,En78,78,,,,,,,,,0,45,45,45,,,,,,,,,1,1.24992804259,2,1.31675092563,,,,,2018_may._11_1546,60.0033470429,Experimento Piloto1,001,121,
0.25,Stim\\05_019.jpg,En19_9,Enojo,9,Marco colabora en la organización del evento.,Afirmación,En19,19,,,,,,,,,0,46,46,46,,,,,,,,,1,2.44493953123,2,0.7502504564,,,,,2018_may._11_1546,60.0033470429,Experimento Piloto1,001,121,
0.25,Stim\\05_019.jpg,En19_15,Enojo,15,Ángel envía una carta a la abuela.,Afirmación,En19,19,,,,,,,,,0,47,47,47,,,,,,,,,1,1.83495536856,2,0.650232561875,,,,,2018_may._11_1546,60.0033470429,Experimento Piloto1,001,121,
2.5,Stim\\02_028.jpg,Al28_2,Alegría,2,Jonathan pasea al perro.,Afirmación,Al28,28,,,,,,,,,0,48,48,48,,,,,,,,,1,1.27511380426,3,0.716724329279,,,,,2018_may._11_1546,60.0033470429,Experimento Piloto1,001,121,
0.25,Stim\\03_075.jpg,Tr75_1,Tristeza,1,Juan colecciona monedas antiguas.,Afirmación,Tr75,75,,,,,,,,,0,49,49,49,,,,,,,,,1,2.33616447611,3,0.550543551746,,,,,2018_may._11_1546,60.0033470429,Experimento Piloto1,001,121,
2.5,Stim\\02_028.jpg,Al28_12,Alegría,12,Ana compra el libro.,Afirmación,Al28,28,,,,,,,,,0,50,50,50,,,,,,,,,1,1.33964476023,3,0.550330245449,,,,,2018_may._11_1546,60.0033470429,Experimento Piloto1,001,121,
0.25,Stim\\05_019.jpg,En19_5,Enojo,5,Emilio revisa el formato del archivo.,Afirmación,En19,19,,,,,,,,,0,51,51,51,,,,,,,,,1,1.36619871668,2,0.600164486821,,,,,2018_may._11_1546,60.0033470429,Experimento Piloto1,001,121,
0.25,Stim\\02_075.jpg,Al75_9,Alegría,9,Marco colabora en la organización del evento.,Afirmación,Al75,75,,,,,,,,,0,52,52,52,,,,,,,,,1,1.62862481252,3,1.61656274307,,,,,2018_may._11_1546,60.0033470429,Experimento Piloto1,001,121,
2.5,Stim\\03_019.jpg,Tr19_12,Tristeza,12,Ana compra el libro.,Afirmación,Tr19,19,,,,,,,,,0,53,53,53,,,,,,,,,1,1.59345604842,3,0.916759225833,,,,,2018_may._11_1546,60.0033470429,Experimento Piloto1,001,121,
2.5,Stim\\02_019.jpg,Al19_4,Alegría,4,Jorge sustituye a Gustavo cada sábado.,Afirmación,Al19,19,,,,,,,,,0,54,54,54,,,,,,,,,1,1.42877332368,3,0.950190748486,,,,,2018_may._11_1546,60.0033470429,Experimento Piloto1,001,121,
0.25,Stim\\02_019.jpg,Al19_12,Alegría,12,Ana compra el libro.,Afirmación,Al19,19,,,,,,,,,0,55,55,55,,,,,,,,,1,1.12640986314,3,0.60020911157,,,,,2018_may._11_1546,60.0033470429,Experimento Piloto1,001,121,
2.5,Stim\\02_078.jpg,Al78_7,Alegría,7,Roberto contesta los cuestionarios solicitados.,Afirmación,Al78,78,,,,,,,,,0,56,56,56,,,,,,,,,1,2.54358164477,3,0.766914676144,,,,,2018_may._11_1546,60.0033470429,Experimento Piloto1,001,121,
2.5,Stim\\03_078.jpg,Tr78_13,Tristeza,13,Rocío consume alimentos nutritivos.,Afirmación,Tr78,78,,,,,,,,,0,57,57,57,,,,,,,,,1,1.11749517718,4,0.850913624783,,,,,2018_may._11_1546,60.0033470429,Experimento Piloto1,001,121,
2.5,Stim\\02_075.jpg,Al75_9,Alegría,9,Marco colabora en la organización del evento.,Afirmación,Al75,75,,,,,,,,,0,58,58,58,,,,,,,,,1,1.12826179019,3,0.600552275884,,,,,2018_may._11_1546,60.0033470429,Experimento Piloto1,001,121,
0.25,Stim\\02_028.jpg,Al28_5,Alegría,5,Emilio revisa el formato del archivo.,Afirmación,Al28,28,,,,,,,,,0,59,59,59,,,,,,,,,1,2.33255031775,3,0.500026997972,,,,,2018_may._11_1546,60.0033470429,Experimento Piloto1,001,121,
2.5,Stim\\03_028.jpg,Tr28_7,Tristeza,7,Roberto contesta los cuestionarios solicitados.,Afirmación,Tr28,28,,,,,,,,,0,60,60,60,,,,,,,,,1,1.32763222424,4,0.550280711979,,,,,2018_may._11_1546,60.0033470429,Experimento Piloto1,001,121,
0.25,Stim\\05_078.jpg,En78_7,Enojo,7,Roberto contesta los cuestionarios solicitados.,Afirmación,En78,78,,,,,,,,,0,61,61,61,,,,,,,,,1,1.79982007301,2,0.750228144027,,,,,2018_may._11_1546,60.0033470429,Experimento Piloto1,001,121,
2.5,Stim\\03_028.jpg,Tr28_5,Tristeza,5,Emilio revisa el formato del archivo.,Afirmación,Tr28,28,,,,,,,,,0,62,62,62,,,,,,,,,1,1.33305100742,4,0.533599534832,,,,,2018_may._11_1546,60.0033470429,Experimento Piloto1,001,121,
0.25,Stim\\02_019.jpg,Al19_13,Alegría,13,Rocío consume alimentos nutritivos.,Afirmación,Al19,19,,,,,,,,,0,63,63,63,,,,,,,,,1,2.09847030825,3,0.500271987841,,,,,2018_may._11_1546,60.0033470429,Experimento Piloto1,001,121,
2.5,Stim\\05_019.jpg,En19_13,Enojo,13,Rocío consume alimentos nutritivos.,Afirmación,En19,19,,,,,,,,,0,64,64,64,,,,,,,,,1,0.783234392828,2,0.700162300209,,,,,2018_may._11_1546,60.0033470429,Experimento Piloto1,001,121,
2.5,Stim\\03_078.jpg,Tr78_4,Tristeza,4,Jorge sustituye a Gustavo cada sábado.,Afirmación,Tr78,78,,,,,,,,,0,65,65,65,,,,,,,,,1,1.265277171,4,0.550326229222,,,,,2018_may._11_1546,60.0033470429,Experimento Piloto1,001,121,
0.25,Stim\\05_028.jpg,En28_13,Enojo,13,Rocío consume alimentos nutritivos.,Afirmación,En28,28,,,,,,,,,0,66,66,66,,,,,,,,,1,1.41730030091,2,0.600234547677,,,,,2018_may._11_1546,60.0033470429,Experimento Piloto1,001,121,
0.25,Stim\\02_075.jpg,Al75_4,Alegría,4,Jorge sustituye a Gustavo cada sábado.,Afirmación,Al75,75,,,,,,,,,0,67,67,67,,,,,,,,,1,1.63167089784,3,0.55031775052,,,,,2018_may._11_1546,60.0033470429,Experimento Piloto1,001,121,
0.25,Stim\\03_019.jpg,Tr19_14,Tristeza,14,Elizabeth elige la ropa un día antes.,Afirmación,Tr19,19,,,,,,,,,0,68,68,68,,,,,,,,,1,2.86517881806,3,2.13313972143,,,,,2018_may._11_1546,60.0033470429,Experimento Piloto1,001,121,
2.5,Stim\\02_075.jpg,Al75_4,Alegría,4,Jorge sustituye a Gustavo cada sábado.,Afirmación,Al75,75,,,,,,,,,0,69,69,69,,,,,,,,,1,1.7780623845,3,0.500269756603,,,,,2018_may._11_1546,60.0033470429,Experimento Piloto1,001,121,
2.5,Stim\\05_078.jpg,En78_7,Enojo,7,Roberto contesta los cuestionarios solicitados.,Afirmación,En78,78,,,,,,,,,0,70,70,70,,,,,,,,,1,2.44406622491,2,1.88324514739,,,,,2018_may._11_1546,60.0033470429,Experimento Piloto1,001,121,
2.5,Stim\\05_028.jpg,En28_6,Enojo,6,Eduardo camina hacia la biblioteca.,Afirmación,En28,28,,,,,,,,,0,71,71,71,,,,,,,,,1,1.01836174517,2,2.24980041581,,,,,2018_may._11_1546,60.0033470429,Experimento Piloto1,001,121,
2.5,Stim\\05_028.jpg,En28_7,Enojo,7,Roberto contesta los cuestionarios solicitados.,Afirmación,En28,28,,,,,,,,,0,72,72,72,,,,,,,,,1,1.20766126603,2,0.600240348893,,,,,2018_may._11_1546,60.0033470429,Experimento Piloto1,001,121,
2.5,Stim\\03_028.jpg,Tr28_14,Tristeza,14,Elizabeth elige la ropa un día antes.,Afirmación,Tr28,28,,,,,,,,,0,73,73,73,,,,,,,,,1,1.18141343535,4,0.650285219079,,,,,2018_may._11_1546,60.0033470429,Experimento Piloto1,001,121,
2.5,Stim\\02_019.jpg,Al19_11,Alegría,11,María asiste a la cena.,Afirmación,Al19,19,,,,,,,,,0,74,74,74,,,,,,,,,1,1.59221592666,3,0.70029349697,,,,,2018_may._11_1546,60.0033470429,Experimento Piloto1,001,121,
0.25,Stim\\05_028.jpg,En28_7,Enojo,7,Roberto contesta los cuestionarios solicitados.,Afirmación,En28,28,,,,,,,,,0,75,75,75,,,,,,,,,1,1.57717917149,2,0.483729147414,,,,,2018_may._11_1546,60.0033470429,Experimento Piloto1,001,121,
0.25,Stim\\05_078.jpg,En78_13,Enojo,13,Rocío consume alimentos nutritivos.,Afirmación,En78,78,,,,,,,,,0,76,76,76,,,,,,,,,1,2.00082288036,2,0.750234391491,,,,,2018_may._11_1546,60.0033470429,Experimento Piloto1,001,121,
0.25,Stim\\03_028.jpg,Tr28_14,Tristeza,14,Elizabeth elige la ropa un día antes.,Afirmación,Tr28,28,,,,,,,,,0,77,77,77,,,,,,,,,1,1.56594132113,4,0.600469720101,,,,,2018_may._11_1546,60.0033470429,Experimento Piloto1,001,121,
2.5,Stim\\03_075.jpg,Tr75_14,Tristeza,14,Elizabeth elige la ropa un día antes.,Afirmación,Tr75,75,,,,,,,,,0,78,78,78,,,,,,,,,1,1.0503166349,4,0.483350729548,,,,,2018_may._11_1546,60.0033470429,Experimento Piloto1,001,121,
0.25,Stim\\05_019.jpg,En19_10,Enojo,10,Laura finaliza la obra.,Afirmación,En19,19,,,,,,,,,0,79,79,79,,,,,,,,,1,1.24190629785,2,0.4837844821,,,,,2018_may._11_1546,60.0033470429,Experimento Piloto1,001,121,
0.25,Stim\\05_078.jpg,En78_9,Enojo,9,Marco colabora en la organización del evento.,Afirmación,En78,78,,,,,,,,,0,80,80,80,,,,,,,,,1,2.04494872393,2,0.550045539556,,,,,2018_may._11_1546,60.0033470429,Experimento Piloto1,001,121,
0.25,Stim\\02_028.jpg,Al28_6,Alegría,6,Eduardo camina hacia la biblioteca.,Afirmación,Al28,28,,,,,,,,,0,81,81,81,,,,,,,,,1,1.98399533404,3,0.450091458422,,,,,2018_may._11_1546,60.0033470429,Experimento Piloto1,001,121,
0.25,Stim\\05_078.jpg,En78_12,Enojo,12,Ana compra el libro.,Afirmación,En78,78,,,,,,,,,0,82,82,82,,,,,,,,,1,1.47658427897,2,0.700304653157,,,,,2018_may._11_1546,60.0033470429,Experimento Piloto1,001,121,
2.5,Stim\\05_075.jpg,En75_1,Enojo,1,Juan colecciona monedas antiguas.,Afirmación,En75,75,,,,,,,,,0,83,83,83,,,,,,,,,1,1.85196230637,2,0.533917263039,,,,,2018_may._11_1546,60.0033470429,Experimento Piloto1,001,121,
0.25,Stim\\03_019.jpg,Tr19_13,Tristeza,13,Rocío consume alimentos nutritivos.,Afirmación,Tr19,19,,,,,,,,,0,84,84,84,,,,,,,,,1,2.14989095943,3,1.21675445098,,,,,2018_may._11_1546,60.0033470429,Experimento Piloto1,001,121,
2.5,Stim\\03_078.jpg,Tr78_11,Tristeza,11,María asiste a la cena.,Afirmación,Tr78,78,,,,,,,,,0,85,85,85,,,,,,,,,1,1.12721355486,4,0.600236332668,,,,,2018_may._11_1546,60.0033470429,Experimento Piloto1,001,121,
2.5,Stim\\05_019.jpg,En19_1,Enojo,1,Juan colecciona monedas antiguas.,Afirmación,En19,19,,,,,,,,,0,86,86,86,,,,,,,,,1,1.38546322051,2,0.650328058837,,,,,2018_may._11_1546,60.0033470429,Experimento Piloto1,001,121,
0.25,Stim\\02_075.jpg,Al75_10,Alegría,10,Laura finaliza la obra.,Afirmación,Al75,75,,,,,,,,,0,87,87,87,,,,,,,,,1,1.89129277449,2,0.600218929016,,,,,2018_may._11_1546,60.0033470429,Experimento Piloto1,001,121,
2.5,Stim\\02_019.jpg,Al19_14,Alegría,14,Elizabeth elige la ropa un día antes.,Afirmación,Al19,19,,,,,,,,,0,88,88,88,,,,,,,,,1,1.88358786546,3,0.550128987836,,,,,2018_may._11_1546,60.0033470429,Experimento Piloto1,001,121,
0.25,Stim\\03_028.jpg,Tr28_6,Tristeza,6,Eduardo camina hacia la biblioteca.,Afirmación,Tr28,28,,,,,,,,,0,89,89,89,,,,,,,,,1,2.30073108725,4,0.550288744435,,,,,2018_may._11_1546,60.0033470429,Experimento Piloto1,001,121,
0.25,Stim\\02_075.jpg,Al75_8,Alegría,8,Estefanía despierta a las 7 a.m.,Afirmación,Al75,75,,,,,,,,,0,90,90,90,,,,,,,,,1,2.19646714793,3,0.533728054108,,,,,2018_may._11_1546,60.0033470429,Experimento Piloto1,001,121,
2.5,Stim\\02_019.jpg,Al19_6,Alegría,6,Eduardo camina hacia la biblioteca.,Afirmación,Al19,19,,,,,,,,,0,91,91,91,,,,,,,,,1,1.38465863629,3,0.450256123742,,,,,2018_may._11_1546,60.0033470429,Experimento Piloto1,001,121,
2.5,Stim\\03_078.jpg,Tr78_7,Tristeza,7,Roberto contesta los cuestionarios solicitados.,Afirmación,Tr78,78,,,,,,,,,0,92,92,92,,,,,,,,,1,1.5777271634,4,0.750224127798,,,,,2018_may._11_1546,60.0033470429,Experimento Piloto1,001,121,
2.5,Stim\\02_028.jpg,Al28_8,Alegría,8,Estefanía despierta a las 7 a.m.,Afirmación,Al28,28,,,,,,,,,0,93,93,93,,,,,,,,,1,2.05294503257,3,0.45005977485,,,,,2018_may._11_1546,60.0033470429,Experimento Piloto1,001,121,
0.25,Stim\\03_075.jpg,Tr75_13,Tristeza,13,Rocío consume alimentos nutritivos.,Afirmación,Tr75,75,,,,,,,,,0,94,94,94,,,,,,,,,1,1.61806525834,4,0.650362419892,,,,,2018_may._11_1546,60.0033470429,Experimento Piloto1,001,121,
2.5,Stim\\02_075.jpg,Al75_6,Alegría,6,Eduardo camina hacia la biblioteca.,Afirmación,Al75,75,,,,,,,,,0,95,95,95,,,,,,,,,1,1.33427149429,3,0.450535474667,,,,,2018_may._11_1546,60.0033470429,Experimento Piloto1,001,121,
0.25,Stim\\02_028.jpg,Al28_9,Alegría,9,Marco colabora en la organización del evento.,Afirmación,Al28,28,,,,,,,,,0,96,96,96,,,,,,,,,1,1.72140457288,3,0.533641928343,,,,,2018_may._11_1546,60.0033470429,Experimento Piloto1,001,121,
0.25,Stim\\02_019.jpg,Al19_8,Alegría,8,Estefanía despierta a las 7 a.m.,Afirmación,Al19,19,,,,,,,,,0,97,97,97,,,,,,,,,1,1.58644326923,3,0.400341111575,,,,,2018_may._11_1546,60.0033470429,Experimento Piloto1,001,121,
2.5,Stim\\02_019.jpg,Al19_1,Alegría,1,Juan colecciona monedas antiguas.,Afirmación,Al19,19,,,,,,,,,0,98,98,98,,,,,,,,,1,1.06983639229,3,0.550318196767,,,,,2018_may._11_1546,60.0033470429,Experimento Piloto1,001,121,
0.25,Stim\\02_019.jpg,Al19_5,Alegría,5,Emilio revisa el formato del archivo.,Afirmación,Al19,19,,,,,,,,,0,99,99,99,,,,,,,,,1,3.36355916282,3,1.11681598851,,,,,2018_may._11_1546,60.0033470429,Experimento Piloto1,001,121,
2.5,Stim\\02_078.jpg,Al78_13,Alegría,13,Rocío consume alimentos nutritivos.,Afirmación,Al78,78,,,,,,,,,0,100,100,100,,,,,,,,,1,1.38515173976,3,0.650439620707,,,,,2018_may._11_1546,60.0033470429,Experimento Piloto1,001,121,
2.5,Stim\\05_078.jpg,En78_12,Enojo,12,Ana compra el libro.,Afirmación,En78,78,,,,,,,,,0,101,101,101,,,,,,,,,1,1.49365279893,2,1.46670257471,,,,,2018_may._11_1546,60.0033470429,Experimento Piloto1,001,121,
2.5,Stim\\03_075.jpg,Tr75_11,Tristeza,11,María asiste a la cena.,Afirmación,Tr75,75,,,,,,,,,0,102,102,102,,,,,,,,,1,1.27545741483,4,0.550380225168,,,,,2018_may._11_1546,60.0033470429,Experimento Piloto1,001,121,
0.25,Stim\\02_078.jpg,Al78_13,Alegría,13,Rocío consume alimentos nutritivos.,Afirmación,Al78,78,,,,,,,,,0,103,103,103,,,,,,,,,1,4.30019157404,3,0.600222945242,,,,,2018_may._11_1546,60.0033470429,Experimento Piloto1,001,121,
0.25,Stim\\03_075.jpg,Tr75_11,Tristeza,11,María asiste a la cena.,Afirmación,Tr75,75,,,,,,,,,0,104,104,104,,,,,,,,,1,2.30860378534,4,0.43375478433,,,,,2018_may._11_1546,60.0033470429,Experimento Piloto1,001,121,
2.5,Stim\\05_075.jpg,En75_8,Enojo,8,Estefanía despierta a las 7 a.m.,Afirmación,En75,75,,,,,,,,,0,105,105,105,,,,,,,,,1,1.80296567152,2,0.60025507506,,,,,2018_may._11_1546,60.0033470429,Experimento Piloto1,001,121,
2.5,Stim\\03_078.jpg,Tr78_2,Tristeza,2,Jonathan pasea al perro.,Afirmación,Tr78,78,,,,,,,,,0,106,106,106,,,,,,,,,1,1.79075098543,4,0.500255922932,,,,,2018_may._11_1546,60.0033470429,Experimento Piloto1,001,121,
2.5,Stim\\03_078.jpg,Tr78_12,Tristeza,12,Ana compra el libro.,Afirmación,Tr78,78,,,,,,,,,0,107,107,107,,,,,,,,,1,1.29371384559,4,0.850194273842,,,,,2018_may._11_1546,60.0033470429,Experimento Piloto1,001,121,
2.5,Stim\\05_019.jpg,En19_10,Enojo,10,Laura finaliza la obra.,Afirmación,En19,19,,,,,,,,,0,108,108,108,,,,,,,,,1,2.3553290205,2,0.500276004068,,,,,2018_may._11_1546,60.0033470429,Experimento Piloto1,001,121,
2.5,Stim\\05_078.jpg,En78_15,Enojo,15,Ángel envía una carta a la abuela.,Afirmación,En78,78,,,,,,,,,0,109,109,109,,,,,,,,,1,1.93494157951,2,0.600403675473,,,,,2018_may._11_1546,60.0033470429,Experimento Piloto1,001,121,
0.25,Stim\\02_028.jpg,Al28_15,Alegría,15,Ángel envía una carta a la abuela.,Afirmación,Al28,28,,,,,,,,,0,110,110,110,,,,,,,,,1,2.16640122379,3,0.500275111574,,,,,2018_may._11_1546,60.0033470429,Experimento Piloto1,001,121,
2.5,Stim\\02_075.jpg,Al75_13,Alegría,13,Rocío consume alimentos nutritivos.,Afirmación,Al75,75,,,,,,,,,0,111,111,111,,,,,,,,,1,2.08474909066,3,0.450507361076,,,,,2018_may._11_1546,60.0033470429,Experimento Piloto1,001,121,
2.5,Stim\\02_078.jpg,Al78_5,Alegría,5,Emilio revisa el formato del archivo.,Afirmación,Al78,78,,,,,,,,,0,112,112,112,,,,,,,,,1,2.56569722376,3,0.483680952684,,,,,2018_may._11_1546,60.0033470429,Experimento Piloto1,001,121,
2.5,Stim\\05_019.jpg,En19_12,Enojo,12,Ana compra el libro.,Afirmación,En19,19,,,,,,,,,0,113,113,113,,,,,,,,,1,1.29341173604,2,0.75016165315,,,,,2018_may._11_1546,60.0033470429,Experimento Piloto1,001,121,
2.5,Stim\\03_028.jpg,Tr28_13,Tristeza,13,Rocío consume alimentos nutritivos.,Afirmación,Tr28,28,,,,,,,,,0,114,114,114,,,,,,,,,1,1.90143017856,4,0.65023166938,,,,,2018_may._11_1546,60.0033470429,Experimento Piloto1,001,121,
2.5,Stim\\02_075.jpg,Al75_1,Alegría,1,Juan colecciona monedas antiguas.,Afirmación,Al75,75,,,,,,,,,0,115,115,115,,,,,,,,,1,2.60172546052,3,0.550183876276,,,,,2018_may._11_1546,60.0033470429,Experimento Piloto1,001,121,
2.5,Stim\\02_028.jpg,Al28_3,Alegría,3,Andrea diseña la portada del libro.,Afirmación,Al28,28,,,,,,,,,0,116,116,116,,,,,,,,,1,2.34974423326,3,0.500285821512,,,,,2018_may._11_1546,60.0033470429,Experimento Piloto1,001,121,
0.25,Stim\\05_028.jpg,En28_10,Enojo,10,Laura finaliza la obra.,Afirmación,En28,28,,,,,,,,,0,117,117,117,,,,,,,,,1,1.442100951,4,0.549999576064,,,,,2018_may._11_1546,60.0033470429,Experimento Piloto1,001,121,
0.25,Stim\\02_078.jpg,Al78_3,Alegría,3,Andrea diseña la portada del libro.,Afirmación,Al78,78,,,,,,,,,0,118,118,118,,,,,,,,,1,1.88400421436,3,0.600330937134,,,,,2018_may._11_1546,60.0033470429,Experimento Piloto1,001,121,
2.5,Stim\\03_075.jpg,Tr75_15,Tristeza,15,Ángel envía una carta a la abuela.,Afirmación,Tr75,75,,,,,,,,,0,119,119,119,,,,,,,,,1,1.26810548755,4,0.800114150106,,,,,2018_may._11_1546,60.0033470429,Experimento Piloto1,001,121,
0.25,Stim\\03_028.jpg,Tr28_2,Tristeza,2,Jonathan pasea al perro.,Afirmación,Tr28,28,,,,,,,,,,,,,0,0,0,0,,,,,,,,,1,2.14112264264,4,1.31666613861,2018_may._11_1546,60.0033470429,Experimento Piloto1,001,121,
2.5,Stim\\05_075.jpg,En75_12,Enojo,12,Ana compra el libro.,Afirmación,En75,75,,,,,,,,,,,,,0,1,1,1,,,,,,,,,1,1.29422881518,2,1.0002922921,2018_may._11_1546,60.0033470429,Experimento Piloto1,001,121,
0.25,Stim\\02_078.jpg,Al78_11,Alegría,11,María asiste a la cena.,Afirmación,Al78,78,,,,,,,,,,,,,0,2,2,2,,,,,,,,,1,1.74169901589,3,0.700274754574,2018_may._11_1546,60.0033470429,Experimento Piloto1,001,121,
0.25,Stim\\02_078.jpg,Al78_8,Alegría,8,Estefanía despierta a las 7 a.m.,Afirmación,Al78,78,,,,,,,,,,,,,0,3,3,3,,,,,,,,,1,1.88278595873,3,0.550297223137,2018_may._11_1546,60.0033470429,Experimento Piloto1,001,121,
0.25,Stim\\05_028.jpg,En28_6,Enojo,6,Eduardo camina hacia la biblioteca.,Afirmación,En28,28,,,,,,,,,,,,,0,4,4,4,,,,,,,,,1,1.93351938878,2,0.916935939837,2018_may._11_1546,60.0033470429,Experimento Piloto1,001,121,
0.25,Stim\\02_019.jpg,Al19_14,Alegría,14,Elizabeth elige la ropa un día antes.,Afirmación,Al19,19,,,,,,,,,,,,,0,5,5,5,,,,,,,,,1,2.64893308921,3,0.700355079121,2018_may._11_1546,60.0033470429,Experimento Piloto1,001,121,
2.5,Stim\\05_078.jpg,En78_1,Enojo,1,Juan colecciona monedas antiguas.,Afirmación,En78,78,,,,,,,,,,,,,0,6,6,6,,,,,,,,,1,1.13524422455,2,0.700238608528,2018_may._11_1546,60.0033470429,Experimento Piloto1,001,121,
2.5,Stim\\02_078.jpg,Al78_15,Alegría,15,Ángel envía una carta a la abuela.,Afirmación,Al78,78,,,,,,,,,,,,,0,7,7,7,,,,,,,,,1,1.1187585038,3,0.850322793116,2018_may._11_1546,60.0033470429,Experimento Piloto1,001,121,
0.25,Stim\\02_075.jpg,Al75_14,Alegría,14,Elizabeth elige la ropa un día antes.,Afirmación,Al75,75,,,,,,,,,,,,,0,8,8,8,,,,,,,,,1,1.78285552872,3,0.700345261677,2018_may._11_1546,60.0033470429,Experimento Piloto1,001,121,
2.5,Stim\\02_075.jpg,Al75_2,Alegría,2,Jonathan pasea al perro.,Afirmación,Al75,75,,,,,,,,,,,,,0,9,9,9,,,,,,,,,1,1.14089773391,3,0.750413782978,2018_may._11_1546,60.0033470429,Experimento Piloto1,001,121,
0.25,Stim\\05_075.jpg,En75_12,Enojo,12,Ana compra el libro.,Afirmación,En75,75,,,,,,,,,,,,,0,10,10,10,,,,,,,,,1,2.40950301864,2,0.800670174471,2018_may._11_1546,60.0033470429,Experimento Piloto1,001,121,
2.5,Stim\\03_078.jpg,Tr78_8,Tristeza,8,Estefanía despierta a las 7 a.m.,Afirmación,Tr78,78,,,,,,,,,,,,,0,11,11,11,,,,,,,,,1,2.25088479719,4,0.700397026385,2018_may._11_1546,60.0033470429,Experimento Piloto1,001,121,
0.25,Stim\\03_078.jpg,Tr78_15,Tristeza,15,Ángel envía una carta a la abuela.,Afirmación,Tr78,78,,,,,,,,,,,,,0,12,12,12,,,,,,,,,1,1.78492210081,4,0.750324533481,2018_may._11_1546,60.0033470429,Experimento Piloto1,001,121,
0.25,Stim\\03_078.jpg,Tr78_5,Tristeza,5,Emilio revisa el formato del archivo.,Afirmación,Tr78,78,,,,,,,,,,,,,0,13,13,13,,,,,,,,,1,1.78274976806,4,0.650266030438,2018_may._11_1546,60.0033470429,Experimento Piloto1,001,121,
2.5,Stim\\02_019.jpg,Al19_5,Alegría,5,Emilio revisa el formato del archivo.,Afirmación,Al19,19,,,,,,,,,,,,,0,14,14,14,,,,,,,,,1,2.43297518998,3,0.900115979721,2018_may._11_1546,60.0033470429,Experimento Piloto1,001,121,
2.5,Stim\\03_075.jpg,Tr75_10,Tristeza,10,Laura finaliza la obra.,Afirmación,Tr75,75,,,,,,,,,,,,,0,15,15,15,,,,,,,,,1,1.0756398408,4,0.816493217708,2018_may._11_1546,60.0033470429,Experimento Piloto1,001,121,
2.5,Stim\\03_075.jpg,Tr75_4,Tristeza,4,Jorge sustituye a Gustavo cada sábado.,Afirmación,Tr75,75,,,,,,,,,,,,,0,16,16,16,,,,,,,,,1,2.24828986808,4,0.650239255587,2018_may._11_1546,60.0033470429,Experimento Piloto1,001,121,
0.25,Stim\\03_028.jpg,Tr28_5,Tristeza,5,Emilio revisa el formato del archivo.,Afirmación,Tr28,28,,,,,,,,,,,,,0,17,17,17,,,,,,,,,1,2.49880294113,4,0.549926391477,2018_may._11_1546,60.0033470429,Experimento Piloto1,001,121,
0.25,Stim\\05_075.jpg,En75_11,Enojo,11,María asiste a la cena.,Afirmación,En75,75,,,,,,,,,,,,,0,18,18,18,,,,,,,,,1,2.5576518279,2,0.950093466536,2018_may._11_1546,60.0033470429,Experimento Piloto1,001,121,
0.25,Stim\\02_075.jpg,Al75_6,Alegría,6,Eduardo camina hacia la biblioteca.,Afirmación,Al75,75,,,,,,,,,,,,,0,19,19,19,,,,,,,,,1,1.73471078031,3,0.650231223133,2018_may._11_1546,60.0033470429,Experimento Piloto1,001,121,
0.25,Stim\\05_078.jpg,En78_1,Enojo,1,Juan colecciona monedas antiguas.,Afirmación,En78,78,,,,,,,,,,,,,0,20,20,20,,,,,,,,,1,2.30181546863,2,0.650174103455,2018_may._11_1546,60.0033470429,Experimento Piloto1,001,121,
2.5,Stim\\03_019.jpg,Tr19_4,Tristeza,4,Jorge sustituye a Gustavo cada sábado.,Afirmación,Tr19,19,,,,,,,,,,,,,0,21,21,21,,,,,,,,,1,2.14872357601,3,1.46655799053,2018_may._11_1546,60.0033470429,Experimento Piloto1,001,121,
0.25,Stim\\03_028.jpg,Tr28_11,Tristeza,11,María asiste a la cena.,Afirmación,Tr28,28,,,,,,,,,,,,,0,22,22,22,,,,,,,,,1,3.59108558179,4,0.800294880337,2018_may._11_1546,60.0033470429,Experimento Piloto1,001,121,
0.25,Stim\\02_019.jpg,Al19_7,Alegría,7,Roberto contesta los cuestionarios solicitados.,Afirmación,Al19,19,,,,,,,,,,,,,0,23,23,23,,,,,,,,,1,2.29367145208,3,0.533655315767,2018_may._11_1546,60.0033470429,Experimento Piloto1,001,121,
0.25,Stim\\05_028.jpg,En28_1,Enojo,1,Juan colecciona monedas antiguas.,Afirmación,En28,28,,,,,,,,,,,,,0,24,24,24,,,,,,,,,1,2.71821568837,2,0.650161162277,2018_may._11_1546,60.0033470429,Experimento Piloto1,001,121,
0.25,Stim\\03_019.jpg,Tr19_6,Tristeza,6,Eduardo camina hacia la biblioteca.,Afirmación,Tr19,19,,,,,,,,,,,,,0,25,25,25,,,,,,,,,1,1.98446969511,3,0.752515162374,2018_may._11_1546,60.0033470429,Experimento Piloto1,001,121,
0.25,Stim\\03_078.jpg,Tr78_7,Tristeza,7,Roberto contesta los cuestionarios solicitados.,Afirmación,Tr78,78,,,,,,,,,,,,,0,26,26,26,,,,,,,,,1,2.44335222894,4,0.650302622731,2018_may._11_1546,60.0033470429,Experimento Piloto1,001,121,
2.5,Stim\\03_019.jpg,Tr19_15,Tristeza,15,Ángel envía una carta a la abuela.,Afirmación,Tr19,19,,,,,,,,,,,,,0,27,27,27,,,,,,,,,1,2.10226118062,3,1.83326453685,2018_may._11_1546,60.0033470429,Experimento Piloto1,001,121,
2.5,Stim\\02_028.jpg,Al28_4,Alegría,4,Jorge sustituye a Gustavo cada sábado.,Afirmación,Al28,28,,,,,,,,,,,,,0,28,28,28,,,,,,,,,1,3.63201986337,3,1.63286907233,2018_may._11_1546,60.0033470429,Experimento Piloto1,001,121,
2.5,Stim\\03_078.jpg,Tr78_5,Tristeza,5,Emilio revisa el formato del archivo.,Afirmación,Tr78,78,,,,,,,,,,,,,0,29,29,29,,,,,,,,,1,4.03291298308,4,0.500240304269,2018_may._11_1546,60.0033470429,Experimento Piloto1,001,121,
2.5,Stim\\03_028.jpg,Tr28_12,Tristeza,12,Ana compra el libro.,Afirmación,Tr28,28,,,,,,,,,,,,,0,30,30,30,,,,,,,,,1,0.926429855028,4,0.650314671411,2018_may._11_1546,60.0033470429,Experimento Piloto1,001,121,
0.25,Stim\\02_028.jpg,Al28_2,Alegría,2,Jonathan pasea al perro.,Afirmación,Al28,28,,,,,,,,,,,,,0,31,31,31,,,,,,,,,1,1.22418268658,3,0.500515192718,2018_may._11_1546,60.0033470429,Experimento Piloto1,001,121,
0.25,Stim\\05_019.jpg,En19_8,Enojo,8,Estefanía despierta a las 7 a.m.,Afirmación,En19,19,,,,,,,,,,,,,0,32,32,32,,,,,,,,,1,1.5863067175,2,0.650182135911,2018_may._11_1546,60.0033470429,Experimento Piloto1,001,121,
0.25,Stim\\03_019.jpg,Tr19_9,Tristeza,9,Marco colabora en la organización del evento.,Afirmación,Tr19,19,,,,,,,,,,,,,0,33,33,33,,,,,,,,,1,2.79448250688,3,1.83326989182,2018_may._11_1546,60.0033470429,Experimento Piloto1,001,121,
2.5,Stim\\02_078.jpg,Al78_10,Alegría,10,Laura finaliza la obra.,Afirmación,Al78,78,,,,,,,,,,,,,0,34,34,34,,,,,,,,,1,1.17530430731,3,0.450437746467,2018_may._11_1546,60.0033470429,Experimento Piloto1,001,121,
2.5,Stim\\02_075.jpg,Al75_15,Alegría,15,Ángel envía una carta a la abuela.,Afirmación,Al75,75,,,,,,,,,,,,,0,35,35,35,,,,,,,,,1,1.23397737258,3,0.549976817445,2018_may._11_1546,60.0033470429,Experimento Piloto1,001,121,
2.5,Stim\\03_028.jpg,Tr28_6,Tristeza,6,Eduardo camina hacia la biblioteca.,Afirmación,Tr28,28,,,,,,,,,,,,,0,36,36,36,,,,,,,,,1,1.31743770051,4,0.600293006097,2018_may._11_1546,60.0033470429,Experimento Piloto1,001,121,
0.25,Stim\\03_075.jpg,Tr75_14,Tristeza,14,Elizabeth elige la ropa un día antes.,Afirmación,Tr75,75,,,,,,,,,,,,,0,37,37,37,,,,,,,,,1,1.93175001752,4,0.600256860051,2018_may._11_1546,60.0033470429,Experimento Piloto1,001,121,
2.5,Stim\\05_075.jpg,En75_13,Enojo,13,Rocío consume alimentos nutritivos.,Afirmación,En75,75,,,,,,,,,,,,,0,38,38,38,,,,,,,,,1,2.25101287022,2,0.966631398242,2018_may._11_1546,60.0033470429,Experimento Piloto1,001,121,
2.5,Stim\\03_075.jpg,Tr75_8,Tristeza,8,Estefanía despierta a las 7 a.m.,Afirmación,Tr75,75,,,,,,,,,,,,,0,39,39,39,,,,,,,,,1,2.20300065732,4,4.23239140902,2018_may._11_1546,60.0033470429,Experimento Piloto1,001,121,
0.25,Stim\\05_075.jpg,En75_7,Enojo,7,Roberto contesta los cuestionarios solicitados.,Afirmación,En75,75,,,,,,,,,,,,,0,40,40,40,,,,,,,,,1,1.8778825914,2,0.600351018269,2018_may._11_1546,60.0033470429,Experimento Piloto1,001,121,
2.5,Stim\\03_019.jpg,Tr19_10,Tristeza,10,Laura finaliza la obra.,Afirmación,Tr19,19,,,,,,,,,,,,,0,41,41,41,,,,,,,,,1,2.30890009367,3,1.43327819202,2018_may._11_1546,60.0033470429,Experimento Piloto1,001,121,
2.5,Stim\\03_019.jpg,Tr19_2,Tristeza,2,Jonathan pasea al perro.,Afirmación,Tr19,19,,,,,,,,,,,,,0,42,42,42,,,,,,,,,1,3.64023215579,3,1.16648020959,2018_may._11_1546,60.0033470429,Experimento Piloto1,001,121,
0.25,Stim\\03_075.jpg,Tr75_15,Tristeza,15,Ángel envía una carta a la abuela.,Afirmación,Tr75,75,,,,,,,,,,,,,0,43,43,43,,,,,,,,,1,2.0344864517,4,0.550695722137,2018_may._11_1546,60.0033470429,Experimento Piloto1,001,121,
0.25,Stim\\05_019.jpg,En19_1,Enojo,1,Juan colecciona monedas antiguas.,Afirmación,En19,19,,,,,,,,,,,,,0,44,44,44,,,,,,,,,1,3.41907770463,2,0.700248872221,2018_may._11_1546,60.0033470429,Experimento Piloto1,001,121,
0.25,Stim\\03_078.jpg,Tr78_2,Tristeza,2,Jonathan pasea al perro.,Afirmación,Tr78,78,,,,,,,,,,,,,0,45,45,45,,,,,,,,,1,1.29070836879,4,0.533756613944,2018_may._11_1546,60.0033470429,Experimento Piloto1,001,121,
2.5,Stim\\02_019.jpg,Al19_9,Alegría,9,Marco colabora en la organización del evento.,Afirmación,Al19,19,,,,,,,,,,,,,0,46,46,46,,,,,,,,,1,2.96119833514,3,1.16681757269,2018_may._11_1546,60.0033470429,Experimento Piloto1,001,121,
2.5,Stim\\03_028.jpg,Tr28_11,Tristeza,11,María asiste a la cena.,Afirmación,Tr28,28,,,,,,,,,,,,,0,47,47,47,,,,,,,,,1,1.39220557372,4,0.450309673441,2018_may._11_1546,60.0033470429,Experimento Piloto1,001,121,
2.5,Stim\\05_078.jpg,En78_6,Enojo,6,Eduardo camina hacia la biblioteca.,Afirmación,En78,78,,,,,,,,,,,,,0,48,48,48,,,,,,,,,1,1.88356019812,2,0.600252397575,2018_may._11_1546,60.0033470429,Experimento Piloto1,001,121,
2.5,Stim\\02_028.jpg,Al28_14,Alegría,14,Elizabeth elige la ropa un día antes.,Afirmación,Al28,28,,,,,,,,,,,,,0,49,49,49,,,,,,,,,1,4.71510177343,3,1.41673088912,2018_may._11_1546,60.0033470429,Experimento Piloto1,001,121,
0.25,Stim\\03_019.jpg,Tr19_10,Tristeza,10,Laura finaliza la obra.,Afirmación,Tr19,19,,,,,,,,,,,,,0,50,50,50,,,,,,,,,1,2.55865097601,3,2.03326328735,2018_may._11_1546,60.0033470429,Experimento Piloto1,001,121,
2.5,Stim\\05_019.jpg,En19_2,Enojo,2,Jonathan pasea al perro.,Afirmación,En19,19,,,,,,,,,,,,,0,51,51,51,,,,,,,,,1,1.34161226538,2,1.36669003516,2018_may._11_1546,60.0033470429,Experimento Piloto1,001,121,
0.25,Stim\\05_078.jpg,En78_5,Enojo,5,Emilio revisa el formato del archivo.,Afirmación,En78,78,,,,,,,,,,,,,0,52,52,52,,,,,,,,,1,1.58346501353,2,0.550060711968,2018_may._11_1546,60.0033470429,Experimento Piloto1,001,121,
2.5,Stim\\02_075.jpg,Al75_5,Alegría,5,Emilio revisa el formato del archivo.,Afirmación,Al75,75,,,,,,,,,,,,,0,53,53,53,,,,,,,,,1,1.74988051724,3,0.500193448284,2018_may._11_1546,60.0033470429,Experimento Piloto1,001,121,
0.25,Stim\\05_028.jpg,En28_9,Enojo,9,Marco colabora en la organización del evento.,Afirmación,En28,28,,,,,,,,,,,,,0,54,54,54,,,,,,,,,1,1.77801775976,2,0.650267815427,2018_may._11_1546,60.0033470429,Experimento Piloto1,001,121,
2.5,Stim\\03_019.jpg,Tr19_1,Tristeza,1,Juan colecciona monedas antiguas.,Afirmación,Tr19,19,,,,,,,,,,,,,0,55,55,55,,,,,,,,,1,1.63518286552,3,1.41651981406,2018_may._11_1546,60.0033470429,Experimento Piloto1,001,121,
0.25,Stim\\02_028.jpg,Al28_3,Alegría,3,Andrea diseña la portada del libro.,Afirmación,Al28,28,,,,,,,,,,,,,0,56,56,56,,,,,,,,,1,4.30026431238,3,0.549981726166,2018_may._11_1546,60.0033470429,Experimento Piloto1,001,121,
0.25,Stim\\05_028.jpg,En28_5,Enojo,5,Emilio revisa el formato del archivo.,Afirmación,En28,28,,,,,,,,,,,,,0,57,57,57,,,,,,,,,1,2.44933640768,2,0.583656007451,2018_may._11_1546,60.0033470429,Experimento Piloto1,001,121,
2.5,Stim\\03_078.jpg,Tr78_15,Tristeza,15,Ángel envía una carta a la abuela.,Afirmación,Tr78,78,,,,,,,,,,,,,0,58,58,58,,,,,,,,,1,2.76746846927,4,0.550190569988,2018_may._11_1546,60.0033470429,Experimento Piloto1,001,121,
0.25,Stim\\02_078.jpg,Al78_10,Alegría,10,Laura finaliza la obra.,Afirmación,Al78,78,,,,,,,,,,,,,0,59,59,59,,,,,,,,,1,2.65719179137,3,0.650482014218,2018_may._11_1546,60.0033470429,Experimento Piloto1,001,121,
0.25,Stim\\03_075.jpg,Tr75_7,Tristeza,7,Roberto contesta los cuestionarios solicitados.,Afirmación,Tr75,75,,,,,,,,,,,,,0,60,60,60,,,,,,,,,1,2.19399092065,4,1.06650470858,2018_may._11_1546,60.0033470429,Experimento Piloto1,001,121,
0.25,Stim\\03_075.jpg,Tr75_5,Tristeza,5,Emilio revisa el formato del archivo.,Afirmación,Tr75,75,,,,,,,,,,,,,0,61,61,61,,,,,,,,,1,1.73314266666,4,0.700199338751,2018_may._11_1546,60.0033470429,Experimento Piloto1,001,121,
0.25,Stim\\05_075.jpg,En75_14,Enojo,14,Elizabeth elige la ropa un día antes.,Afirmación,En75,75,,,,,,,,,,,,,0,62,62,62,,,,,,,,,1,2.08242057129,2,0.700446113609,2018_may._11_1546,60.0033470429,Experimento Piloto1,001,121,
0.25,Stim\\05_075.jpg,En75_2,Enojo,2,Jonathan pasea al perro.,Afirmación,En75,75,,,,,,,,,,,,,0,63,63,63,,,,,,,,,1,1.07459651418,2,0.550362375268,2018_may._11_1546,60.0033470429,Experimento Piloto1,001,121,
0.25,Stim\\02_078.jpg,Al78_6,Alegría,6,Eduardo camina hacia la biblioteca.,Afirmación,Al78,78,,,,,,,,,,,,,0,64,64,64,,,,,,,,,1,1.83407402978,3,0.700252888448,2018_may._11_1546,60.0033470429,Experimento Piloto1,001,121,
0.25,Stim\\03_075.jpg,Tr75_4,Tristeza,4,Jorge sustituye a Gustavo cada sábado.,Afirmación,Tr75,75,,,,,,,,,,,,,0,65,65,65,,,,,,,,,1,1.73197126702,4,1.61678408182,2018_may._11_1546,60.0033470429,Experimento Piloto1,001,121,
0.25,Stim\\03_075.jpg,Tr75_3,Tristeza,3,Andrea diseña la portada del libro.,Afirmación,Tr75,75,,,,,,,,,,,,,0,66,66,66,,,,,,,,,1,2.0014886816,4,0.850392407723,2018_may._11_1546,60.0033470429,Experimento Piloto1,001,121,
0.25,Stim\\02_028.jpg,Al28_10,Alegría,10,Laura finaliza la obra.,Afirmación,Al28,28,,,,,,,,,,,,,0,67,67,67,,,,,,,,,1,1.32576824851,3,0.600317995957,2018_may._11_1546,60.0033470429,Experimento Piloto1,001,121,
0.25,Stim\\03_028.jpg,Tr28_12,Tristeza,12,Ana compra el libro.,Afirmación,Tr28,28,,,,,,,,,,,,,0,68,68,68,,,,,,,,,1,1.69379568738,4,0.600282296156,2018_may._11_1546,60.0033470429,Experimento Piloto1,001,121,
0.25,Stim\\03_075.jpg,Tr75_10,Tristeza,10,Laura finaliza la obra.,Afirmación,Tr75,75,,,,,,,,,,,,,0,69,69,69,,,,,,,,,1,2.65826233908,4,0.650341446262,2018_may._11_1546,60.0033470429,Experimento Piloto1,001,121,
0.25,Stim\\02_028.jpg,Al28_8,Alegría,8,Estefanía despierta a las 7 a.m.,Afirmación,Al28,28,,,,,,,,,,,,,0,70,70,70,,,,,,,,,1,2.96908799063,3,0.500097505075,2018_may._11_1546,60.0033470429,Experimento Piloto1,001,121,
0.25,Stim\\05_078.jpg,En78_14,Enojo,14,Elizabeth elige la ropa un día antes.,Afirmación,En78,78,,,,,,,,,,,,,0,71,71,71,,,,,,,,,1,3.11650272278,2,0.600120754569,2018_may._11_1546,60.0033470429,Experimento Piloto1,001,121,
2.5,Stim\\03_078.jpg,Tr78_9,Tristeza,9,Marco colabora en la organización del evento.,Afirmación,Tr78,78,,,,,,,,,,,,,0,72,72,72,,,,,,,,,1,2.49385539529,4,2.81591577346,2018_may._11_1546,60.0033470429,Experimento Piloto1,001,121,
0.25,Stim\\02_019.jpg,Al19_3,Alegría,3,Andrea diseña la portada del libro.,Afirmación,Al19,19,,,,,,,,,,,,,0,73,73,73,,,,,,,,,1,2.89761208509,3,1.31679287289,2018_may._11_1546,60.0033470429,Experimento Piloto1,001,121,
0.25,Stim\\03_078.jpg,Tr78_6,Tristeza,6,Eduardo camina hacia la biblioteca.,Afirmación,Tr78,78,,,,,,,,,,,,,0,74,74,74,,,,,,,,,1,2.10143473028,4,0.600184121711,2018_may._11_1546,60.0033470429,Experimento Piloto1,001,121,
0.25,Stim\\03_028.jpg,Tr28_8,Tristeza,8,Estefanía despierta a las 7 a.m.,Afirmación,Tr28,28,,,,,,,,,,,,,0,75,75,75,,,,,,,,,1,1.46957283852,4,0.600437590281,2018_may._11_1546,60.0033470429,Experimento Piloto1,001,121,
2.5,Stim\\05_078.jpg,En78_9,Enojo,9,Marco colabora en la organización del evento.,Afirmación,En78,78,,,,,,,,,,,,,0,76,76,76,,,,,,,,,1,1.32863806607,2,0.700087776881,2018_may._11_1546,60.0033470429,Experimento Piloto1,001,121,
2.5,Stim\\02_028.jpg,Al28_6,Alegría,6,Eduardo camina hacia la biblioteca.,Afirmación,Al28,28,,,,,,,,,,,,,0,77,77,77,,,,,,,,,1,3.16670511832,3,0.450266387435,2018_may._11_1546,60.0033470429,Experimento Piloto1,001,121,
2.5,Stim\\03_078.jpg,Tr78_6,Tristeza,6,Eduardo camina hacia la biblioteca.,Afirmación,Tr78,78,,,,,,,,,,,,,0,78,78,78,,,,,,,,,1,1.45007405477,4,0.800401979732,2018_may._11_1546,60.0033470429,Experimento Piloto1,001,121,
2.5,Stim\\02_078.jpg,Al78_2,Alegría,2,Jonathan pasea al perro.,Afirmación,Al78,78,,,,,,,,,,,,,0,79,79,79,,,,,,,,,1,1.58833268107,3,0.600316210966,2018_may._11_1546,60.0033470429,Experimento Piloto1,001,121,
2.5,Stim\\02_028.jpg,Al28_10,Alegría,10,Laura finaliza la obra.,Afirmación,Al28,28,,,,,,,,,,,,,0,80,80,80,,,,,,,,,1,2.40720127413,3,0.6504940629,2018_may._11_1546,60.0033470429,Experimento Piloto1,001,121,
2.5,Stim\\02_019.jpg,Al19_15,Alegría,15,Ángel envía una carta a la abuela.,Afirmación,Al19,19,,,,,,,,,,,,,0,81,81,81,,,,,,,,,1,3.18468175191,3,0.499578519253,2018_may._11_1546,60.0033470429,Experimento Piloto1,001,121,
0.25,Stim\\03_019.jpg,Tr19_5,Tristeza,5,Emilio revisa el formato del archivo.,Afirmación,Tr19,19,,,,,,,,,,,,,0,82,82,82,,,,,,,,,1,3.11581773289,2,0.800180640981,2018_may._11_1546,60.0033470429,Experimento Piloto1,001,121,
0.25,Stim\\02_075.jpg,Al75_12,Alegría,12,Ana compra el libro.,Afirmación,Al75,75,,,,,,,,,,,,,0,83,83,83,,,,,,,,,1,1.5767967374,3,0.45023872009,2018_may._11_1546,60.0033470429,Experimento Piloto1,001,121,
2.5,Stim\\05_078.jpg,En78_3,Enojo,3,Andrea diseña la portada del libro.,Afirmación,En78,78,,,,,,,,,,,,,0,84,84,84,,,,,,,,,1,1.13488990405,2,0.90015346451,2018_may._11_1546,60.0033470429,Experimento Piloto1,001,121,
2.5,Stim\\03_075.jpg,Tr75_5,Tristeza,5,Emilio revisa el formato del archivo.,Afirmación,Tr75,75,,,,,,,,,,,,,0,85,85,85,,,,,,,,,1,1.43304703582,4,0.550240549705,2018_may._11_1546,60.0033470429,Experimento Piloto1,001,121,
2.5,Stim\\05_028.jpg,En28_2,Enojo,2,Jonathan pasea al perro.,Afirmación,En28,28,,,,,,,,,,,,,0,86,86,86,,,,,,,,,1,0.707917188962,2,0.500374178513,2018_may._11_1546,60.0033470429,Experimento Piloto1,001,121,
0.25,Stim\\03_028.jpg,Tr28_9,Tristeza,9,Marco colabora en la organización del evento.,Afirmación,Tr28,28,,,,,,,,,,,,,0,87,87,87,,,,,,,,,1,1.67781556502,4,0.850334841798,2018_may._11_1546,60.0033470429,Experimento Piloto1,001,121,
0.25,Stim\\03_078.jpg,Tr78_9,Tristeza,9,Marco colabora en la organización del evento.,Afirmación,Tr78,78,,,,,,,,,,,,,0,88,88,88,,,,,,,,,1,1.34991023732,4,0.583753289402,2018_may._11_1546,60.0033470429,Experimento Piloto1,001,121,
2.5,Stim\\03_075.jpg,Tr75_12,Tristeza,12,Ana compra el libro.,Afirmación,Tr75,75,,,,,,,,,,,,,0,89,89,89,,,,,,,,,1,1.24401258596,4,0.550249474656,2018_may._11_1546,60.0033470429,Experimento Piloto1,001,121,
2.5,Stim\\05_078.jpg,En78_11,Enojo,11,María asiste a la cena.,Afirmación,En78,78,,,,,,,,,,,,,0,90,90,90,,,,,,,,,1,1.84170352299,2,0.550274910762,2018_may._11_1546,60.0033470429,Experimento Piloto1,001,121,
2.5,Stim\\02_075.jpg,Al75_14,Alegría,14,Elizabeth elige la ropa un día antes.,Afirmación,Al75,75,,,,,,,,,,,,,0,91,91,91,,,,,,,,,1,1.38292719606,3,1.21674017106,2018_may._11_1546,60.0033470429,Experimento Piloto1,001,121,
0.25,Stim\\03_019.jpg,Tr19_7,Tristeza,7,Roberto contesta los cuestionarios solicitados.,Afirmación,Tr19,19,,,,,,,,,,,,,0,92,92,92,,,,,,,,,1,2.96073379151,3,0.700202016234,2018_may._11_1546,60.0033470429,Experimento Piloto1,001,121,
0.25,Stim\\05_075.jpg,En75_5,Enojo,5,Emilio revisa el formato del archivo.,Afirmación,En75,75,,,,,,,,,,,,,0,93,93,93,,,,,,,,,1,1.88293009667,2,0.550436006104,2018_may._11_1546,60.0033470429,Experimento Piloto1,001,121,
2.5,Stim\\05_019.jpg,En19_14,Enojo,14,Elizabeth elige la ropa un día antes.,Afirmación,En19,19,,,,,,,,,,,,,0,94,94,94,,,,,,,,,1,1.98161951244,2,0.650301283988,2018_may._11_1546,60.0033470429,Experimento Piloto1,001,121,
0.25,Stim\\02_075.jpg,Al75_2,Alegría,2,Jonathan pasea al perro.,Afirmación,Al75,75,,,,,,,,,,,,,0,95,95,95,,,,,,,,,1,2.00759245467,3,0.650235685607,2018_may._11_1546,60.0033470429,Experimento Piloto1,001,121,
2.5,Stim\\03_028.jpg,Tr28_10,Tristeza,10,Laura finaliza la obra.,Afirmación,Tr28,28,,,,,,,,,,,,,0,96,96,96,,,,,,,,,1,2.60857982185,4,0.800252486826,2018_may._11_1546,60.0033470429,Experimento Piloto1,001,121,
2.5,Stim\\02_078.jpg,Al78_3,Alegría,3,Andrea diseña la portada del libro.,Afirmación,Al78,78,,,,,,,,,,,,,0,97,97,97,,,,,,,,,1,1.08417164642,3,0.550339170399,2018_may._11_1546,60.0033470429,Experimento Piloto1,001,121,
2.5,Stim\\05_075.jpg,En75_3,Enojo,3,Andrea diseña la portada del libro.,Afirmación,En75,75,,,,,,,,,,,,,0,98,98,98,,,,,,,,,1,1.5999284219,2,0.650172764714,2018_may._11_1546,60.0033470429,Experimento Piloto1,001,121,
2.5,Stim\\03_075.jpg,Tr75_3,Tristeza,3,Andrea diseña la portada del libro.,Afirmación,Tr75,75,,,,,,,,,,,,,0,99,99,99,,,,,,,,,1,1.84983906085,4,0.966734481408,2018_may._11_1546,60.0033470429,Experimento Piloto1,001,121,
2.5,Stim\\03_075.jpg,Tr75_7,Tristeza,7,Roberto contesta los cuestionarios solicitados.,Afirmación,Tr75,75,,,,,,,,,,,,,0,100,100,100,,,,,,,,,1,3.00981789086,4,1.31679644287,2018_may._11_1546,60.0033470429,Experimento Piloto1,001,121,
2.5,Stim\\03_019.jpg,Tr19_14,Tristeza,14,Elizabeth elige la ropa un día antes.,Afirmación,Tr19,19,,,,,,,,,,,,,0,101,101,101,,,,,,,,,1,2.86569111017,3,1.41661486477,2018_may._11_1546,60.0033470429,Experimento Piloto1,001,121,
2.5,Stim\\05_078.jpg,En78_5,Enojo,5,Emilio revisa el formato del archivo.,Afirmación,En78,78,,,,,,,,,,,,,0,102,102,102,,,,,,,,,1,1.63363929548,2,0.700386762694,2018_may._11_1546,60.0033470429,Experimento Piloto1,001,121,
2.5,Stim\\02_078.jpg,Al78_12,Alegría,12,Ana compra el libro.,Afirmación,Al78,78,,,,,,,,,,,,,0,103,103,103,,,,,,,,,1,1.39286468125,3,0.550264647069,2018_may._11_1546,60.0033470429,Experimento Piloto1,001,121,
2.5,Stim\\02_028.jpg,Al28_13,Alegría,13,Rocío consume alimentos nutritivos.,Afirmación,Al28,28,,,,,,,,,,,,,0,104,104,104,,,,,,,,,1,3.11689497432,3,1.01677087289,2018_may._11_1546,60.0033470429,Experimento Piloto1,001,121,
2.5,Stim\\05_028.jpg,En28_4,Enojo,4,Jorge sustituye a Gustavo cada sábado.,Afirmación,En28,28,,,,,,,,,,,,,0,105,105,105,,,,,,,,,1,3.63161154692,2,0.90040693308,2018_may._11_1546,60.0033470429,Experimento Piloto1,001,121,
0.25,Stim\\02_028.jpg,Al28_7,Alegría,7,Roberto contesta los cuestionarios solicitados.,Afirmación,Al28,28,,,,,,,,,,,,,0,106,106,106,,,,,,,,,1,2.59341053117,3,0.866897763362,2018_may._11_1546,60.0033470429,Experimento Piloto1,001,121,
0.25,Stim\\02_078.jpg,Al78_12,Alegría,12,Ana compra el libro.,Afirmación,Al78,78,,,,,,,,,,,,,0,107,107,107,,,,,,,,,1,1.64261734859,3,0.583490449635,2018_may._11_1546,60.0033470429,Experimento Piloto1,001,121,
2.5,Stim\\02_028.jpg,Al28_7,Alegría,7,Roberto contesta los cuestionarios solicitados.,Afirmación,Al28,28,,,,,,,,,,,,,0,108,108,108,,,,,,,,,1,1.79458871378,3,0.750215202848,2018_may._11_1546,60.0033470429,Experimento Piloto1,001,121,
0.25,Stim\\02_075.jpg,Al75_7,Alegría,7,Roberto contesta los cuestionarios solicitados.,Afirmación,Al75,75,,,,,,,,,,,,,0,109,109,109,,,,,,,,,1,2.8325911494,3,0.900117764711,2018_may._11_1546,60.0033470429,Experimento Piloto1,001,121,
0.25,Stim\\05_075.jpg,En75_10,Enojo,10,Laura finaliza la obra.,Afirmación,En75,75,,,,,,,,,,,,,0,110,110,110,,,,,,,,,1,1.47487425862,2,0.700321164313,2018_may._11_1546,60.0033470429,Experimento Piloto1,001,121,
2.5,Stim\\05_028.jpg,En28_8,Enojo,8,Estefanía despierta a las 7 a.m.,Afirmación,En28,28,,,,,,,,,,,,,0,111,111,111,,,,,,,,,1,1.48617904609,2,0.966800972283,2018_may._11_1546,60.0033470429,Experimento Piloto1,001,121,
0.25,Stim\\03_075.jpg,Tr75_6,Tristeza,6,Eduardo camina hacia la biblioteca.,Afirmación,Tr75,75,,,,,,,,,,,,,0,112,112,112,,,,,,,,,1,4.08221886743,4,0.550489555801,2018_may._11_1546,60.0033470429,Experimento Piloto1,001,121,
0.25,Stim\\02_078.jpg,Al78_4,Alegría,4,Jorge sustituye a Gustavo cada sábado.,Afirmación,Al78,78,,,,,,,,,,,,,0,113,113,113,,,,,,,,,1,5.43153202562,4,0.650249073033,2018_may._11_1546,60.0033470429,Experimento Piloto1,001,121,
2.5,Stim\\02_019.jpg,Al19_13,Alegría,13,Rocío consume alimentos nutritivos.,Afirmación,Al19,19,,,,,,,,,,,,,0,114,114,114,,,,,,,,,1,3.31654342055,3,1.01683156255,2018_may._11_1546,60.0033470429,Experimento Piloto1,001,121,
0.25,Stim\\02_078.jpg,Al78_15,Alegría,15,Ángel envía una carta a la abuela.,Afirmación,Al78,78,,,,,,,,,,,,,0,115,115,115,,,,,,,,,1,1.68570968299,3,0.650050046655,2018_may._11_1546,60.0033470429,Experimento Piloto1,001,121,
2.5,Stim\\05_019.jpg,En19_4,Enojo,4,Jorge sustituye a Gustavo cada sábado.,Afirmación,En19,19,,,,,,,,,,,,,0,116,116,116,,,,,,,,,1,1.36546151584,2,1.53329965652,2018_may._11_1546,60.0033470429,Experimento Piloto1,001,121,
2.5,Stim\\05_075.jpg,En75_9,Enojo,9,Marco colabora en la organización del evento.,Afirmación,En75,75,,,,,,,,,,,,,0,117,117,117,,,,,,,,,1,1.82903901943,2,0.700157391486,2018_may._11_1546,60.0033470429,Experimento Piloto1,001,121,
0.25,Stim\\05_078.jpg,En78_8,Enojo,8,Estefanía despierta a las 7 a.m.,Afirmación,En78,78,,,,,,,,,,,,,0,118,118,118,,,,,,,,,1,1.6872050583,2,1.11630146516,2018_may._11_1546,60.0033470429,Experimento Piloto1,001,121,
0.25,Stim\\03_075.jpg,Tr75_12,Tristeza,12,Ana compra el libro.,Afirmación,Tr75,75,,,,,,,,,,,,,0,119,119,119,,,,,,,,,1,2.25892082186,2,0.649847896546,2018_may._11_1546,60.0033470429,Experimento Piloto1,001,121,
