Tiempo,ImagenesE,ClaveEn,Emocion,NumEn,Enunciado,ActoHabla,Clave,Cara,trials.thisRepN,trials.thisTrialN,trials.thisN,trials.thisIndex,Bloque1.thisRepN,Bloque1.thisTrialN,Bloque1.thisN,Bloque1.thisIndex,Bloque2.thisRepN,Bloque2.thisTrialN,Bloque2.thisN,Bloque2.thisIndex,Bloque3.thisRepN,Bloque3.thisTrialN,Bloque3.thisN,Bloque3.thisIndex,Sig_B1.keys,Sig_B1.rt,Resp_Bloque1.keys,Resp_Bloque1.rt,Sig_B2.keys,Sig_B2.rt,Resp_Bloque2.keys,Resp_Bloque2.rt,Sig_B3.keys,Sig_B3.rt,Resp_Bloque3.keys,Resp_Bloque3.rt,date,frameRate,expName,session,participant,
2.5,Stim\\05_028.jpg,En28_16,Enojo,16,Valeria modifica algunas imágenes.,Afirmación,En28,28,,,,,0,0,0,0,,,,,,,,,1,4.26367850161,4,8.69778665514,,,,,,,,,2018_may._14_1237,59.7095931,Experimento Piloto1,001,122,
2.5,Stim\\05_028.jpg,En28_29,Enojo,29,Miriam mira la película.,Afirmación,En28,28,,,,,0,1,1,1,,,,,,,,,1,0.134155054181,3,1.61685201572,,,,,,,,,2018_may._14_1237,59.7095931,Experimento Piloto1,001,122,
0.25,Stim\\03_028.jpg,Tr28_29,Tristeza,29,Miriam mira la película.,Afirmación,Tr28,28,,,,,0,2,2,2,,,,,,,,,1,6.26536978108,2,0.600501493369,,,,,,,,,2018_may._14_1237,59.7095931,Experimento Piloto1,001,122,
2.5,Stim\\02_075.jpg,Al75_22,Alegría,22,Enrique corre todas las mañanas.,Afirmación,Al75,75,,,,,0,3,3,3,,,,,,,,,1,5.24870420772,3,1.63246979906,,,,,,,,,2018_may._14_1237,59.7095931,Experimento Piloto1,001,122,
2.5,Stim\\05_019.jpg,En19_17,Enojo,17,Brenda sube el autobús en las mañanas.,Afirmación,En19,19,,,,,0,4,4,4,,,,,,,,,1,8.07908404945,3,1.51673942738,,,,,,,,,2018_may._14_1237,59.7095931,Experimento Piloto1,001,122,
2.5,Stim\\02_028.jpg,Al28_17,Alegría,17,Brenda sube el autobús en las mañanas.,Afirmación,Al28,28,,,,,0,5,5,5,,,,,,,,,1,3.49947588186,3,0.950722631506,,,,,,,,,2018_may._14_1237,59.7095931,Experimento Piloto1,001,122,
0.25,Stim\\05_075.jpg,En75_24,Enojo,24,Guadalupe comenta los resultados con los compañeros.,Afirmación,En75,75,,,,,0,6,6,6,,,,,,,,,1,5.26211797277,4,2.94983013574,,,,,,,,,2018_may._14_1237,59.7095931,Experimento Piloto1,001,122,
2.5,Stim\\03_078.jpg,Tr78_23,Tristeza,23,Óscar consigue un nuevo departamento.,Afirmación,Tr78,78,,,,,0,7,7,7,,,,,,,,,1,4.85381321045,4,0.96699550673,,,,,,,,,2018_may._14_1237,59.7095931,Experimento Piloto1,001,122,
0.25,Stim\\05_075.jpg,En75_16,Enojo,16,Valeria modifica algunas imágenes.,Afirmación,En75,75,,,,,0,8,8,8,,,,,,,,,1,3.66196901522,3,0.917076433783,,,,,,,,,2018_may._14_1237,59.7095931,Experimento Piloto1,001,122,
0.25,Stim\\02_078.jpg,Al78_23,Alegría,23,Óscar consigue un nuevo departamento.,Afirmación,Al78,78,,,,,0,9,9,9,,,,,,,,,1,5.05812691022,4,1.76672927524,,,,,,,,,2018_may._14_1237,59.7095931,Experimento Piloto1,001,122,
2.5,Stim\\05_078.jpg,En78_24,Enojo,24,Guadalupe comenta los resultados con los compañeros.,Afirmación,En78,78,,,,,0,10,10,10,,,,,,,,,1,6.34472157925,2,0.483990634149,,,,,,,,,2018_may._14_1237,59.7095931,Experimento Piloto1,001,122,
2.5,Stim\\03_028.jpg,Tr28_28,Tristeza,28,Antonio responde la pregunta.,Afirmación,Tr28,28,,,,,0,11,11,11,,,,,,,,,1,3.79416637995,3,1.16633845135,,,,,,,,,2018_may._14_1237,59.7095931,Experimento Piloto1,001,122,
0.25,Stim\\02_019.jpg,Al19_20,Alegría,20,Karen analiza la idea.,Afirmación,Al19,19,,,,,0,12,12,12,,,,,,,,,1,5.16617289339,3,0.649977888417,,,,,,,,,2018_may._14_1237,59.7095931,Experimento Piloto1,001,122,
2.5,Stim\\05_078.jpg,En78_27,Enojo,27,Claudia informa los avances en el reporte.,Afirmación,En78,78,,,,,0,13,13,13,,,,,,,,,1,7.66334524369,2,0.750348854281,,,,,,,,,2018_may._14_1237,59.7095931,Experimento Piloto1,001,122,
0.25,Stim\\05_028.jpg,En28_28,Enojo,28,Antonio responde la pregunta.,Afirmación,En28,28,,,,,0,14,14,14,,,,,,,,,1,4.59690652044,2,0.800473647501,,,,,,,,,2018_may._14_1237,59.7095931,Experimento Piloto1,001,122,
2.5,Stim\\03_078.jpg,Tr78_30,Tristeza,30,Marisol toma 2 litros de agua cada día.,Afirmación,Tr78,78,,,,,0,15,15,15,,,,,,,,,1,5.93964809785,3,1.8333665788,,,,,,,,,2018_may._14_1237,59.7095931,Experimento Piloto1,001,122,
0.25,Stim\\03_028.jpg,Tr28_27,Tristeza,27,Claudia informa los avances en el reporte.,Afirmación,Tr28,28,,,,,0,16,16,16,,,,,,,,,1,8.21727675446,2,1.58349944911,,,,,,,,,2018_may._14_1237,59.7095931,Experimento Piloto1,001,122,
0.25,Stim\\02_075.jpg,Al75_24,Alegría,24,Guadalupe comenta los resultados con los compañeros.,Afirmación,Al75,75,,,,,0,17,17,17,,,,,,,,,1,8.27844350524,3,0.850258846083,,,,,,,,,2018_may._14_1237,59.7095931,Experimento Piloto1,001,122,
0.25,Stim\\02_019.jpg,Al19_16,Alegría,16,Valeria modifica algunas imágenes.,Afirmación,Al19,19,,,,,0,18,18,18,,,,,,,,,1,3.92545072152,3,1.01690029974,,,,,,,,,2018_may._14_1237,59.7095931,Experimento Piloto1,001,122,
2.5,Stim\\02_028.jpg,Al28_30,Alegría,30,Marisol toma 2 litros de agua cada día.,Afirmación,Al28,28,,,,,0,19,19,19,,,,,,,,,1,4.23766537389,3,1.00005176475,,,,,,,,,2018_may._14_1237,59.7095931,Experimento Piloto1,001,122,
2.5,Stim\\05_078.jpg,En78_16,Enojo,16,Valeria modifica algunas imágenes.,Afirmación,En78,78,,,,,0,20,20,20,,,,,,,,,1,2.91084725961,2,0.600366280261,,,,,,,,,2018_may._14_1237,59.7095931,Experimento Piloto1,001,122,
0.25,Stim\\02_075.jpg,Al75_28,Alegría,28,Antonio responde la pregunta.,Afirmación,Al75,75,,,,,0,21,21,21,,,,,,,,,1,3.4311245402,3,3.46602514071,,,,,,,,,2018_may._14_1237,59.7095931,Experimento Piloto1,001,122,
2.5,Stim\\03_075.jpg,Tr75_17,Tristeza,17,Brenda sube el autobús en las mañanas.,Afirmación,Tr75,75,,,,,0,22,22,22,,,,,,,,,1,3.94009925445,4,2.28292026398,,,,,,,,,2018_may._14_1237,59.7095931,Experimento Piloto1,001,122,
0.25,Stim\\05_075.jpg,En75_18,Enojo,18,Sofía escucha la música.,Afirmación,En75,75,,,,,0,23,23,23,,,,,,,,,1,2.25234826791,3,1.150461398,,,,,,,,,2018_may._14_1237,59.7095931,Experimento Piloto1,001,122,
2.5,Stim\\02_075.jpg,Al75_25,Alegría,25,Luis decide la comida siguiente.,Afirmación,Al75,75,,,,,0,24,24,24,,,,,,,,,1,5.7388901012,3,5.56548174467,,,,,,,,,2018_may._14_1237,59.7095931,Experimento Piloto1,001,122,
0.25,Stim\\02_028.jpg,Al28_18,Alegría,18,Sofía escucha la música.,Afirmación,Al28,28,,,,,0,25,25,25,,,,,,,,,1,9.38363260947,3,1.150196773,,,,,,,,,2018_may._14_1237,59.7095931,Experimento Piloto1,001,122,
0.25,Stim\\02_028.jpg,Al28_23,Alegría,23,Óscar consigue un nuevo departamento.,Afirmación,Al28,28,,,,,0,26,26,26,,,,,,,,,1,2.90874989457,3,0.650444217453,,,,,,,,,2018_may._14_1237,59.7095931,Experimento Piloto1,001,122,
0.25,Stim\\02_075.jpg,Al75_19,Alegría,19,Armando acompaña a Rodrígo a la tienda.,Afirmación,Al75,75,,,,,0,27,27,27,,,,,,,,,1,3.05565826694,3,0.850547568462,,,,,,,,,2018_may._14_1237,59.7095931,Experimento Piloto1,001,122,
2.5,Stim\\05_019.jpg,En19_16,Enojo,16,Valeria modifica algunas imágenes.,Afirmación,En19,19,,,,,0,28,28,28,,,,,,,,,1,3.1782479148,2,0.600455083589,,,,,,,,,2018_may._14_1237,59.7095931,Experimento Piloto1,001,122,
2.5,Stim\\02_019.jpg,Al19_25,Alegría,25,Luis decide la comida siguiente.,Afirmación,Al19,19,,,,,0,29,29,29,,,,,,,,,1,2.6951618251,3,0.450452874662,,,,,,,,,2018_may._14_1237,59.7095931,Experimento Piloto1,001,122,
0.25,Stim\\02_078.jpg,Al78_27,Alegría,27,Claudia informa los avances en el reporte.,Afirmación,Al78,78,,,,,0,30,30,30,,,,,,,,,1,3.91889667889,3,1.36677202579,,,,,,,,,2018_may._14_1237,59.7095931,Experimento Piloto1,001,122,
0.25,Stim\\03_019.jpg,Tr19_22,Tristeza,22,Enrique corre todas las mañanas.,Afirmación,Tr19,19,,,,,0,31,31,31,,,,,,,,,1,3.62904440033,4,0.650225555991,,,,,,,,,2018_may._14_1237,59.7095931,Experimento Piloto1,001,122,
2.5,Stim\\05_019.jpg,En19_26,Enojo,26,Víctor trae el café a Marco.,Afirmación,En19,19,,,,,0,32,32,32,,,,,,,,,1,2.45061887887,2,1.31640224248,,,,,,,,,2018_may._14_1237,59.7095931,Experimento Piloto1,001,122,
2.5,Stim\\02_078.jpg,Al78_26,Alegría,26,Víctor trae el café a Marco.,Afirmación,Al78,78,,,,,0,33,33,33,,,,,,,,,1,2.16672445577,3,0.650587016775,,,,,,,,,2018_may._14_1237,59.7095931,Experimento Piloto1,001,122,
0.25,Stim\\05_078.jpg,En78_17,Enojo,17,Brenda sube el autobús en las mañanas.,Afirmación,En78,78,,,,,0,34,34,34,,,,,,,,,1,2.70730244495,2,0.550327612882,,,,,,,,,2018_may._14_1237,59.7095931,Experimento Piloto1,001,122,
0.25,Stim\\05_078.jpg,En78_21,Enojo,21,Mauro anuncia la actividad.,Afirmación,En78,78,,,,,0,35,35,35,,,,,,,,,1,3.21573407553,2,0.500145699933,,,,,,,,,2018_may._14_1237,59.7095931,Experimento Piloto1,001,122,
2.5,Stim\\03_078.jpg,Tr78_20,Tristeza,20,Karen analiza la idea.,Afirmación,Tr78,78,,,,,0,36,36,36,,,,,,,,,1,2.35857445222,4,0.750194898762,,,,,,,,,2018_may._14_1237,59.7095931,Experimento Piloto1,001,122,
0.25,Stim\\03_078.jpg,Tr78_28,Tristeza,28,Antonio responde la pregunta.,Afirmación,Tr78,78,,,,,0,37,37,37,,,,,,,,,1,3.02078265631,4,0.650285799455,,,,,,,,,2018_may._14_1237,59.7095931,Experimento Piloto1,001,122,
2.5,Stim\\03_028.jpg,Tr28_17,Tristeza,17,Brenda sube el autobús en las mañanas.,Afirmación,Tr28,28,,,,,0,38,38,38,,,,,,,,,1,3.43181577816,4,0.599980722092,,,,,,,,,2018_may._14_1237,59.7095931,Experimento Piloto1,001,122,
0.25,Stim\\02_028.jpg,Al28_27,Alegría,27,Claudia informa los avances en el reporte.,Afirmación,Al28,28,,,,,0,39,39,39,,,,,,,,,1,2.89103742369,3,0.550352602763,,,,,,,,,2018_may._14_1237,59.7095931,Experimento Piloto1,001,122,
2.5,Stim\\02_019.jpg,Al19_28,Alegría,28,Antonio responde la pregunta.,Afirmación,Al19,19,,,,,0,40,40,40,,,,,,,,,1,2.62142918024,3,1.05020244035,,,,,,,,,2018_may._14_1237,59.7095931,Experimento Piloto1,001,122,
0.25,Stim\\02_019.jpg,Al19_17,Alegría,17,Brenda sube el autobús en las mañanas.,Afirmación,Al19,19,,,,,0,41,41,41,,,,,,,,,1,2.24823073871,3,0.550279864358,,,,,,,,,2018_may._14_1237,59.7095931,Experimento Piloto1,001,122,
2.5,Stim\\03_075.jpg,Tr75_21,Tristeza,21,Mauro anuncia la actividad.,Afirmación,Tr75,75,,,,,0,42,42,42,,,,,,,,,1,5.73586543306,4,0.850267771041,,,,,,,,,2018_may._14_1237,59.7095931,Experimento Piloto1,001,122,
0.25,Stim\\03_075.jpg,Tr75_26,Tristeza,26,Víctor trae el café a Marco.,Afirmación,Tr75,75,,,,,0,43,43,43,,,,,,,,,1,2.50560465026,4,0.600287740634,,,,,,,,,2018_may._14_1237,59.7095931,Experimento Piloto1,001,122,
0.25,Stim\\02_075.jpg,Al75_18,Alegría,18,Sofía escucha la música.,Afirmación,Al75,75,,,,,0,44,44,44,,,,,,,,,1,2.82393111361,3,0.60023999211,,,,,,,,,2018_may._14_1237,59.7095931,Experimento Piloto1,001,122,
2.5,Stim\\05_028.jpg,En28_27,Enojo,27,Claudia informa los avances en el reporte.,Afirmación,En28,28,,,,,0,45,45,45,,,,,,,,,1,3.11086983976,2,0.450233320704,,,,,,,,,2018_may._14_1237,59.7095931,Experimento Piloto1,001,122,
0.25,Stim\\02_019.jpg,Al19_23,Alegría,23,Óscar consigue un nuevo departamento.,Afirmación,Al19,19,,,,,0,46,46,46,,,,,,,,,1,2.91510044817,3,0.483693879309,,,,,,,,,2018_may._14_1237,59.7095931,Experimento Piloto1,001,122,
0.25,Stim\\03_075.jpg,Tr75_21,Tristeza,21,Mauro anuncia la actividad.,Afirmación,Tr75,75,,,,,0,47,47,47,,,,,,,,,1,2.72249584655,4,0.483827753673,,,,,,,,,2018_may._14_1237,59.7095931,Experimento Piloto1,001,122,
0.25,Stim\\02_078.jpg,Al78_28,Alegría,28,Antonio responde la pregunta.,Afirmación,Al78,78,,,,,0,48,48,48,,,,,,,,,1,3.6874542317,3,0.400266499234,,,,,,,,,2018_may._14_1237,59.7095931,Experimento Piloto1,001,122,
2.5,Stim\\03_075.jpg,Tr75_23,Tristeza,23,Óscar consigue un nuevo departamento.,Afirmación,Tr75,75,,,,,0,49,49,49,,,,,,,,,1,2.96328718684,4,0.650299186892,,,,,,,,,2018_may._14_1237,59.7095931,Experimento Piloto1,001,122,
0.25,Stim\\02_078.jpg,Al78_22,Alegría,22,Enrique corre todas las mañanas.,Afirmación,Al78,78,,,,,0,50,50,50,,,,,,,,,1,3.73611533187,3,0.400263821747,,,,,,,,,2018_may._14_1237,59.7095931,Experimento Piloto1,001,122,
2.5,Stim\\03_028.jpg,Tr28_23,Tristeza,23,Óscar consigue un nuevo departamento.,Afirmación,Tr28,28,,,,,0,51,51,51,,,,,,,,,1,3.681441934,3,1.78287184609,,,,,,,,,2018_may._14_1237,59.7095931,Experimento Piloto1,001,122,
0.25,Stim\\02_028.jpg,Al28_19,Alegría,19,Armando acompaña a Rodrígo a la tienda.,Afirmación,Al28,28,,,,,0,52,52,52,,,,,,,,,1,3.04781010546,3,0.40026114426,,,,,,,,,2018_may._14_1237,59.7095931,Experimento Piloto1,001,122,
0.25,Stim\\03_028.jpg,Tr28_28,Tristeza,28,Antonio responde la pregunta.,Afirmación,Tr28,28,,,,,0,53,53,53,,,,,,,,,1,1.63856152888,4,0.500352312702,,,,,,,,,2018_may._14_1237,59.7095931,Experimento Piloto1,001,122,
2.5,Stim\\05_075.jpg,En75_16,Enojo,16,Valeria modifica algunas imágenes.,Afirmación,En75,75,,,,,0,54,54,54,,,,,,,,,1,2.60179382723,2,0.600210985998,,,,,,,,,2018_may._14_1237,59.7095931,Experimento Piloto1,001,122,
0.25,Stim\\03_019.jpg,Tr19_28,Tristeza,28,Antonio responde la pregunta.,Afirmación,Tr19,19,,,,,0,55,55,55,,,,,,,,,1,2.60417589842,2,0.450290440433,,,,,,,,,2018_may._14_1237,59.7095931,Experimento Piloto1,001,122,
2.5,Stim\\03_019.jpg,Tr19_24,Tristeza,24,Guadalupe comenta los resultados con los compañeros.,Afirmación,Tr19,19,,,,,0,56,56,56,,,,,,,,,1,4.55663800417,2,0.333635443149,,,,,,,,,2018_may._14_1237,59.7095931,Experimento Piloto1,001,122,
0.25,Stim\\03_019.jpg,Tr19_30,Tristeza,30,Marisol toma 2 litros de agua cada día.,Afirmación,Tr19,19,,,,,0,57,57,57,,,,,,,,,1,3.01463202177,2,0.500382657558,,,,,,,,,2018_may._14_1237,59.7095931,Experimento Piloto1,001,122,
0.25,Stim\\02_075.jpg,Al75_23,Alegría,23,Óscar consigue un nuevo departamento.,Afirmación,Al75,75,,,,,0,58,58,58,,,,,,,,,1,2.84920659358,3,1.06672119816,,,,,,,,,2018_may._14_1237,59.7095931,Experimento Piloto1,001,122,
2.5,Stim\\02_078.jpg,Al78_22,Alegría,22,Enrique corre todas las mañanas.,Afirmación,Al78,78,,,,,0,59,59,59,,,,,,,,,1,2.35283391948,3,0.300294925224,,,,,,,,,2018_may._14_1237,59.7095931,Experimento Piloto1,001,122,
2.5,Stim\\05_075.jpg,En75_20,Enojo,20,Karen analiza la idea.,Afirmación,En75,75,,,,,0,60,60,60,,,,,,,,,1,1.43176133592,2,0.383551838608,,,,,,,,,2018_may._14_1237,59.7095931,Experimento Piloto1,001,122,
2.5,Stim\\03_028.jpg,Tr28_18,Tristeza,18,Sofía escucha la música.,Afirmación,Tr28,28,,,,,0,61,61,61,,,,,,,,,1,2.87303890791,4,1.46673913732,,,,,,,,,2018_may._14_1237,59.7095931,Experimento Piloto1,001,122,
0.25,Stim\\02_028.jpg,Al28_22,Alegría,22,Enrique corre todas las mañanas.,Afirmación,Al28,28,,,,,0,62,62,62,,,,,,,,,1,2.05239396369,3,0.333681852928,,,,,,,,,2018_may._14_1237,59.7095931,Experimento Piloto1,001,122,
2.5,Stim\\03_075.jpg,Tr75_29,Tristeza,29,Miriam mira la película.,Afirmación,Tr75,75,,,,,0,63,63,63,,,,,,,,,1,2.97444249137,4,0.916874283493,,,,,,,,,2018_may._14_1237,59.7095931,Experimento Piloto1,001,122,
2.5,Stim\\05_075.jpg,En75_19,Enojo,19,Armando acompaña a Rodrígo a la tienda.,Afirmación,En75,75,,,,,0,64,64,64,,,,,,,,,1,2.96374592966,2,0.600222142195,,,,,,,,,2018_may._14_1237,59.7095931,Experimento Piloto1,001,122,
0.25,Stim\\05_078.jpg,En78_27,Enojo,27,Claudia informa los avances en el reporte.,Afirmación,En78,78,,,,,0,65,65,65,,,,,,,,,1,3.8785991565,2,0.450239568175,,,,,,,,,2018_may._14_1237,59.7095931,Experimento Piloto1,001,122,
0.25,Stim\\02_075.jpg,Al75_29,Alegría,29,Miriam mira la película.,Afirmación,Al75,75,,,,,0,66,66,66,,,,,,,,,1,2.04005074731,3,0.45031632281,,,,,,,,,2018_may._14_1237,59.7095931,Experimento Piloto1,001,122,
2.5,Stim\\03_075.jpg,Tr75_19,Tristeza,19,Armando acompaña a Rodrígo a la tienda.,Afirmación,Tr75,75,,,,,0,67,67,67,,,,,,,,,1,1.1654115945,4,1.36663859768,,,,,,,,,2018_may._14_1237,59.7095931,Experimento Piloto1,001,122,
2.5,Stim\\03_028.jpg,Tr28_22,Tristeza,22,Enrique corre todas las mañanas.,Afirmación,Tr28,28,,,,,0,68,68,68,,,,,,,,,1,2.41846448782,3,1.00000981745,,,,,,,,,2018_may._14_1237,59.7095931,Experimento Piloto1,001,122,
0.25,Stim\\03_078.jpg,Tr78_25,Tristeza,25,Luis decide la comida siguiente.,Afirmación,Tr78,78,,,,,0,69,69,69,,,,,,,,,1,3.8835368893,3,0.600464901042,,,,,,,,,2018_may._14_1237,59.7095931,Experimento Piloto1,001,122,
2.5,Stim\\02_028.jpg,Al28_19,Alegría,19,Armando acompaña a Rodrígo a la tienda.,Afirmación,Al28,28,,,,,0,70,70,70,,,,,,,,,1,4.96459246189,3,0.400257574277,,,,,,,,,2018_may._14_1237,59.7095931,Experimento Piloto1,001,122,
0.25,Stim\\02_075.jpg,Al75_25,Alegría,25,Luis decide la comida siguiente.,Afirmación,Al75,75,,,,,0,71,71,71,,,,,,,,,1,3.63353008402,3,0.333725585221,,,,,,,,,2018_may._14_1237,59.7095931,Experimento Piloto1,001,122,
2.5,Stim\\02_019.jpg,Al19_24,Alegría,24,Guadalupe comenta los resultados con los compañeros.,Afirmación,Al19,19,,,,,0,72,72,72,,,,,,,,,1,4.08900726358,3,0.850274018511,,,,,,,,,2018_may._14_1237,59.7095931,Experimento Piloto1,001,122,
0.25,Stim\\03_028.jpg,Tr28_23,Tristeza,23,Óscar consigue un nuevo departamento.,Afirmación,Tr28,28,,,,,0,73,73,73,,,,,,,,,1,2.81587276937,4,1.73284701239,,,,,,,,,2018_may._14_1237,59.7095931,Experimento Piloto1,001,122,
0.25,Stim\\03_028.jpg,Tr28_25,Tristeza,25,Luis decide la comida siguiente.,Afirmación,Tr28,28,,,,,0,74,74,74,,,,,,,,,1,3.36678942946,4,0.600200722297,,,,,,,,,2018_may._14_1237,59.7095931,Experimento Piloto1,001,122,
0.25,Stim\\05_019.jpg,En19_23,Enojo,23,Óscar consigue un nuevo departamento.,Afirmación,En19,19,,,,,0,75,75,75,,,,,,,,,1,3.36549888059,2,0.450252509364,,,,,,,,,2018_may._14_1237,59.7095931,Experimento Piloto1,001,122,
2.5,Stim\\03_019.jpg,Tr19_26,Tristeza,26,Víctor trae el café a Marco.,Afirmación,Tr19,19,,,,,0,76,76,76,,,,,,,,,1,4.97097916156,4,0.550336537839,,,,,,,,,2018_may._14_1237,59.7095931,Experimento Piloto1,001,122,
0.25,Stim\\05_028.jpg,En28_30,Enojo,30,Marisol toma 2 litros de agua cada día.,Afirmación,En28,28,,,,,0,77,77,77,,,,,,,,,1,7.26260438296,3,0.450267681791,,,,,,,,,2018_may._14_1237,59.7095931,Experimento Piloto1,001,122,
2.5,Stim\\02_019.jpg,Al19_26,Alegría,26,Víctor trae el café a Marco.,Afirmación,Al19,19,,,,,0,78,78,78,,,,,,,,,1,1.93900639339,3,0.400378061205,,,,,,,,,2018_may._14_1237,59.7095931,Experimento Piloto1,001,122,
0.25,Stim\\03_075.jpg,Tr75_27,Tristeza,27,Claudia informa los avances en el reporte.,Afirmación,Tr75,75,,,,,0,79,79,79,,,,,,,,,1,1.82836771004,4,0.500250121937,,,,,,,,,2018_may._14_1237,59.7095931,Experimento Piloto1,001,122,
2.5,Stim\\02_078.jpg,Al78_27,Alegría,27,Claudia informa los avances en el reporte.,Afirmación,Al78,78,,,,,0,80,80,80,,,,,,,,,1,3.54931820018,3,1.11654075783,,,,,,,,,2018_may._14_1237,59.7095931,Experimento Piloto1,001,122,
0.25,Stim\\02_019.jpg,Al19_26,Alegría,26,Víctor trae el café a Marco.,Afirmación,Al19,19,,,,,0,81,81,81,,,,,,,,,1,3.78699205277,3,0.750173925112,,,,,,,,,2018_may._14_1237,59.7095931,Experimento Piloto1,001,122,
0.25,Stim\\03_019.jpg,Tr19_29,Tristeza,29,Miriam mira la película.,Afirmación,Tr19,19,,,,,0,82,82,82,,,,,,,,,1,2.70782812495,3,0.350386249853,,,,,,,,,2018_may._14_1237,59.7095931,Experimento Piloto1,001,122,
2.5,Stim\\05_075.jpg,En75_27,Enojo,27,Claudia informa los avances en el reporte.,Afirmación,En75,75,,,,,0,83,83,83,,,,,,,,,1,2.07832989053,2,0.350328237629,,,,,,,,,2018_may._14_1237,59.7095931,Experimento Piloto1,001,122,
0.25,Stim\\05_019.jpg,En19_25,Enojo,25,Luis decide la comida siguiente.,Afirmación,En19,19,,,,,0,84,84,84,,,,,,,,,1,2.30178807063,2,0.550285665581,,,,,,,,,2018_may._14_1237,59.7095931,Experimento Piloto1,001,122,
2.5,Stim\\03_028.jpg,Tr28_20,Tristeza,20,Karen analiza la idea.,Afirmación,Tr28,28,,,,,0,85,85,85,,,,,,,,,1,3.42487216114,4,0.300396223493,,,,,,,,,2018_may._14_1237,59.7095931,Experimento Piloto1,001,122,
2.5,Stim\\05_028.jpg,En28_26,Enojo,26,Víctor trae el café a Marco.,Afirmación,En28,28,,,,,0,86,86,86,,,,,,,,,1,1.12176096554,2,0.400302199065,,,,,,,,,2018_may._14_1237,59.7095931,Experimento Piloto1,001,122,
0.25,Stim\\05_028.jpg,En28_21,Enojo,21,Mauro anuncia la actividad.,Afirmación,En28,28,,,,,0,87,87,87,,,,,,,,,1,1.68884964883,2,0.434049248809,,,,,,,,,2018_may._14_1237,59.7095931,Experimento Piloto1,001,122,
0.25,Stim\\03_075.jpg,Tr75_22,Tristeza,22,Enrique corre todas las mañanas.,Afirmación,Tr75,75,,,,,0,88,88,88,,,,,,,,,1,2.91917603006,3,0.350359028733,,,,,,,,,2018_may._14_1237,59.7095931,Experimento Piloto1,001,122,
0.25,Stim\\05_028.jpg,En28_27,Enojo,27,Claudia informa los avances en el reporte.,Afirmación,En28,28,,,,,0,89,89,89,,,,,,,,,1,2.4951927947,2,0.483775096423,,,,,,,,,2018_may._14_1237,59.7095931,Experimento Piloto1,001,122,
2.5,Stim\\03_075.jpg,Tr75_22,Tristeza,22,Enrique corre todas las mañanas.,Afirmación,Tr75,75,,,,,0,90,90,90,,,,,,,,,1,3.80211003848,3,1.05015156809,,,,,,,,,2018_may._14_1237,59.7095931,Experimento Piloto1,001,122,
0.25,Stim\\05_019.jpg,En19_28,Enojo,28,Antonio responde la pregunta.,Afirmación,En19,19,,,,,0,91,91,91,,,,,,,,,1,5.5358473154,4,1.883179891,,,,,,,,,2018_may._14_1237,59.7095931,Experimento Piloto1,001,122,
2.5,Stim\\03_019.jpg,Tr19_17,Tristeza,17,Brenda sube el autobús en las mañanas.,Afirmación,Tr19,19,,,,,0,92,92,92,,,,,,,,,1,2.76500898966,4,0.433758741438,,,,,,,,,2018_may._14_1237,59.7095931,Experimento Piloto1,001,122,
0.25,Stim\\05_028.jpg,En28_29,Enojo,29,Miriam mira la película.,Afirmación,En28,28,,,,,0,93,93,93,,,,,,,,,1,2.57351599152,2,0.650211722307,,,,,,,,,2018_may._14_1237,59.7095931,Experimento Piloto1,001,122,
0.25,Stim\\05_028.jpg,En28_18,Enojo,18,Sofía escucha la música.,Afirmación,En28,28,,,,,0,94,94,94,,,,,,,,,1,2.23929239366,2,0.400386986162,,,,,,,,,2018_may._14_1237,59.7095931,Experimento Piloto1,001,122,
0.25,Stim\\05_028.jpg,En28_25,Enojo,25,Luis decide la comida siguiente.,Afirmación,En28,28,,,,,0,95,95,95,,,,,,,,,1,3.01720731829,2,0.499899371103,,,,,,,,,2018_may._14_1237,59.7095931,Experimento Piloto1,001,122,
2.5,Stim\\03_075.jpg,Tr75_16,Tristeza,16,Valeria modifica algunas imágenes.,Afirmación,Tr75,75,,,,,0,96,96,96,,,,,,,,,1,0.86757995758,4,0.483626049631,,,,,,,,,2018_may._14_1237,59.7095931,Experimento Piloto1,001,122,
2.5,Stim\\05_019.jpg,En19_18,Enojo,18,Sofía escucha la música.,Afirmación,En19,19,,,,,0,97,97,97,,,,,,,,,1,4.77281208011,4,0.700480653593,,,,,,,,,2018_may._14_1237,59.7095931,Experimento Piloto1,001,122,
0.25,Stim\\05_075.jpg,En75_28,Enojo,28,Antonio responde la pregunta.,Afirmación,En75,75,,,,,0,98,98,98,,,,,,,,,1,3.83710747479,2,0.750286379578,,,,,,,,,2018_may._14_1237,59.7095931,Experimento Piloto1,001,122,
0.25,Stim\\03_019.jpg,Tr19_24,Tristeza,24,Guadalupe comenta los resultados con los compañeros.,Afirmación,Tr19,19,,,,,0,99,99,99,,,,,,,,,1,2.70510422789,4,0.433666814375,,,,,,,,,2018_may._14_1237,59.7095931,Experimento Piloto1,001,122,
0.25,Stim\\02_075.jpg,Al75_21,Alegría,21,Mauro anuncia la actividad.,Afirmación,Al75,75,,,,,0,100,100,100,,,,,,,,,1,2.0054232505,3,0.550336091592,,,,,,,,,2018_may._14_1237,59.7095931,Experimento Piloto1,001,122,
0.25,Stim\\03_019.jpg,Tr19_23,Tristeza,23,Óscar consigue un nuevo departamento.,Afirmación,Tr19,19,,,,,0,101,101,101,,,,,,,,,1,5.93149514906,2,0.60028417065,,,,,,,,,2018_may._14_1237,59.7095931,Experimento Piloto1,001,122,
2.5,Stim\\05_028.jpg,En28_30,Enojo,30,Marisol toma 2 litros de agua cada día.,Afirmación,En28,28,,,,,0,102,102,102,,,,,,,,,1,4.64792604066,3,0.550536010642,,,,,,,,,2018_may._14_1237,59.7095931,Experimento Piloto1,001,122,
0.25,Stim\\02_078.jpg,Al78_19,Alegría,19,Armando acompaña a Rodrígo a la tienda.,Afirmación,Al78,78,,,,,0,103,103,103,,,,,,,,,1,6.61163225426,3,0.333535929871,,,,,,,,,2018_may._14_1237,59.7095931,Experimento Piloto1,001,122,
2.5,Stim\\03_075.jpg,Tr75_25,Tristeza,25,Luis decide la comida siguiente.,Afirmación,Tr75,75,,,,,0,104,104,104,,,,,,,,,1,2.05208873014,4,0.333749236358,,,,,,,,,2018_may._14_1237,59.7095931,Experimento Piloto1,001,122,
2.5,Stim\\03_028.jpg,Tr28_29,Tristeza,29,Miriam mira la película.,Afirmación,Tr28,28,,,,,0,105,105,105,,,,,,,,,1,2.8740407344,4,0.450016890482,,,,,,,,,2018_may._14_1237,59.7095931,Experimento Piloto1,001,122,
0.25,Stim\\03_028.jpg,Tr28_24,Tristeza,24,Guadalupe comenta los resultados con los compañeros.,Afirmación,Tr28,28,,,,,0,106,106,106,,,,,,,,,1,7.25551216539,4,0.350356351245,,,,,,,,,2018_may._14_1237,59.7095931,Experimento Piloto1,001,122,
0.25,Stim\\02_075.jpg,Al75_30,Alegría,30,Marisol toma 2 litros de agua cada día.,Afirmación,Al75,75,,,,,0,107,107,107,,,,,,,,,1,2.34806486838,3,0.283707891492,,,,,,,,,2018_may._14_1237,59.7095931,Experimento Piloto1,001,122,
2.5,Stim\\05_019.jpg,En19_27,Enojo,27,Claudia informa los avances en el reporte.,Afirmación,En19,19,,,,,0,108,108,108,,,,,,,,,1,0.761821887298,2,0.450203422097,,,,,,,,,2018_may._14_1237,59.7095931,Experimento Piloto1,001,122,
2.5,Stim\\05_075.jpg,En75_18,Enojo,18,Sofía escucha la música.,Afirmación,En75,75,,,,,0,109,109,109,,,,,,,,,1,1.69033565427,2,0.333723353981,,,,,,,,,2018_may._14_1237,59.7095931,Experimento Piloto1,001,122,
2.5,Stim\\02_028.jpg,Al28_23,Alegría,23,Óscar consigue un nuevo departamento.,Afirmación,Al28,28,,,,,0,110,110,110,,,,,,,,,1,3.69870369453,2,0.3837745163,,,,,,,,,2018_may._14_1237,59.7095931,Experimento Piloto1,001,122,
2.5,Stim\\05_078.jpg,En78_29,Enojo,29,Miriam mira la película.,Afirmación,En78,78,,,,,0,111,111,111,,,,,,,,,1,4.52394365317,2,0.533671410728,,,,,,,,,2018_may._14_1237,59.7095931,Experimento Piloto1,001,122,
0.25,Stim\\03_078.jpg,Tr78_20,Tristeza,20,Karen analiza la idea.,Afirmación,Tr78,78,,,,,0,112,112,112,,,,,,,,,1,3.02586854341,3,6.39853594995,,,,,,,,,2018_may._14_1237,59.7095931,Experimento Piloto1,001,122,
0.25,Stim\\02_019.jpg,Al19_25,Alegría,25,Luis decide la comida siguiente.,Afirmación,Al19,19,,,,,0,113,113,113,,,,,,,,,1,3.63448773198,2,0.650355860372,,,,,,,,,2018_may._14_1237,59.7095931,Experimento Piloto1,001,122,
2.5,Stim\\03_078.jpg,Tr78_16,Tristeza,16,Valeria modifica algunas imágenes.,Afirmación,Tr78,78,,,,,0,114,114,114,,,,,,,,,1,4.65022689474,4,0.350304140243,,,,,,,,,2018_may._14_1237,59.7095931,Experimento Piloto1,001,122,
0.25,Stim\\02_028.jpg,Al28_21,Alegría,21,Mauro anuncia la actividad.,Afirmación,Al28,28,,,,,0,115,115,115,,,,,,,,,1,1.78869448844,3,0.333680067937,,,,,,,,,2018_may._14_1237,59.7095931,Experimento Piloto1,001,122,
2.5,Stim\\05_019.jpg,En19_30,Enojo,30,Marisol toma 2 litros de agua cada día.,Afirmación,En19,19,,,,,0,116,116,116,,,,,,,,,1,1.99904993826,2,0.80029068587,,,,,,,,,2018_may._14_1237,59.7095931,Experimento Piloto1,001,122,
0.25,Stim\\05_078.jpg,En78_26,Enojo,26,Víctor trae el café a Marco.,Afirmación,En78,78,,,,,0,117,117,117,,,,,,,,,1,3.28780667828,2,0.433734197804,,,,,,,,,2018_may._14_1237,59.7095931,Experimento Piloto1,001,122,
0.25,Stim\\02_078.jpg,Al78_21,Alegría,21,Mauro anuncia la actividad.,Afirmación,Al78,78,,,,,0,118,118,118,,,,,,,,,1,5.73605464216,3,0.750330558118,,,,,,,,,2018_may._14_1237,59.7095931,Experimento Piloto1,001,122,
0.25,Stim\\03_075.jpg,Tr75_30,Tristeza,30,Marisol toma 2 litros de agua cada día.,Afirmación,Tr75,75,,,,,0,119,119,119,,,,,,,,,1,3.01489620051,4,0.550287004324,,,,,,,,,2018_may._14_1237,59.7095931,Experimento Piloto1,001,122,
2.5,Stim\\02_078.jpg,Al78_17,Alegría,17,Brenda sube el autobús en las mañanas.,Afirmación,Al78,78,,,,,,,,,0,0,0,0,,,,,,,,,1,4.43107009796,3,0.750147150239,,,,,2018_may._14_1237,59.7095931,Experimento Piloto1,001,122,
2.5,Stim\\05_019.jpg,En19_23,Enojo,23,Óscar consigue un nuevo departamento.,Afirmación,En19,19,,,,,,,,,0,1,1,1,,,,,,,,,1,2.76540615028,2,0.550287004325,,,,,2018_may._14_1237,59.7095931,Experimento Piloto1,001,122,
0.25,Stim\\02_075.jpg,Al75_17,Alegría,17,Brenda sube el autobús en las mañanas.,Afirmación,Al75,75,,,,,,,,,0,2,2,2,,,,,,,,,1,2.59886777988,3,0.500353651445,,,,,2018_may._14_1237,59.7095931,Experimento Piloto1,001,122,
2.5,Stim\\02_075.jpg,Al75_24,Alegría,24,Guadalupe comenta los resultados con los compañeros.,Afirmación,Al75,75,,,,,,,,,0,3,3,3,,,,,,,,,1,3.4724194266,3,0.433668599366,,,,,2018_may._14_1237,59.7095931,Experimento Piloto1,001,122,
0.25,Stim\\05_075.jpg,En75_19,Enojo,19,Armando acompaña a Rodrígo a la tienda.,Afirmación,En75,75,,,,,,,,,0,4,4,4,,,,,,,,,1,2.4975311336,2,0.450382813744,,,,,2018_may._14_1237,59.7095931,Experimento Piloto1,001,122,
2.5,Stim\\02_019.jpg,Al19_29,Alegría,29,Miriam mira la película.,Afirmación,Al19,19,,,,,,,,,0,5,5,5,,,,,,,,,1,1.69067078643,3,0.400289257876,,,,,2018_may._14_1237,59.7095931,Experimento Piloto1,001,122,
2.5,Stim\\02_078.jpg,Al78_24,Alegría,24,Guadalupe comenta los resultados con los compañeros.,Afirmación,Al78,78,,,,,,,,,0,6,6,6,,,,,,,,,1,1.93848160589,3,0.383749972667,,,,,2018_may._14_1237,59.7095931,Experimento Piloto1,001,122,
0.25,Stim\\05_028.jpg,En28_20,Enojo,20,Karen analiza la idea.,Afirmación,En28,28,,,,,,,,,0,7,7,7,,,,,,,,,1,2.10851766718,2,0.383673664279,,,,,2018_may._14_1237,59.7095931,Experimento Piloto1,001,122,
0.25,Stim\\03_078.jpg,Tr78_27,Tristeza,27,Claudia informa los avances en el reporte.,Afirmación,Tr78,78,,,,,,,,,0,8,8,8,,,,,,,,,1,3.21162814878,4,0.450258310586,,,,,2018_may._14_1237,59.7095931,Experimento Piloto1,001,122,
0.25,Stim\\02_019.jpg,Al19_30,Alegría,30,Marisol toma 2 litros de agua cada día.,Afirmación,Al19,19,,,,,,,,,0,9,9,9,,,,,,,,,1,2.71426257315,3,0.333737633914,,,,,2018_may._14_1237,59.7095931,Experimento Piloto1,001,122,
2.5,Stim\\02_019.jpg,Al19_19,Alegría,19,Armando acompaña a Rodrígo a la tienda.,Afirmación,Al19,19,,,,,,,,,0,10,10,10,,,,,,,,,1,3.73083175696,3,0.400309785279,,,,,2018_may._14_1237,59.7095931,Experimento Piloto1,001,122,
0.25,Stim\\02_028.jpg,Al28_30,Alegría,30,Marisol toma 2 litros de agua cada día.,Afirmación,Al28,28,,,,,,,,,0,11,11,11,,,,,,,,,1,2.14815965143,3,0.333817066036,,,,,2018_may._14_1237,59.7095931,Experimento Piloto1,001,122,
2.5,Stim\\02_019.jpg,Al19_16,Alegría,16,Valeria modifica algunas imágenes.,Afirmación,Al19,19,,,,,,,,,0,12,12,12,,,,,,,,,1,2.91710499365,3,0.500757952026,,,,,2018_may._14_1237,59.7095931,Experimento Piloto1,001,122,
2.5,Stim\\03_075.jpg,Tr75_30,Tristeza,30,Marisol toma 2 litros de agua cada día.,Afirmación,Tr75,75,,,,,,,,,0,13,13,13,,,,,,,,,1,5.42662279158,3,0.333688992895,,,,,2018_may._14_1237,59.7095931,Experimento Piloto1,001,122,
2.5,Stim\\02_078.jpg,Al78_19,Alegría,19,Armando acompaña a Rodrígo a la tienda.,Afirmación,Al78,78,,,,,,,,,0,14,14,14,,,,,,,,,1,2.91446186745,3,0.400277655431,,,,,2018_may._14_1237,59.7095931,Experimento Piloto1,001,122,
2.5,Stim\\05_075.jpg,En75_25,Enojo,25,Luis decide la comida siguiente.,Afirmación,En75,75,,,,,,,,,0,15,15,15,,,,,,,,,1,5.5332135604,3,0.400024632883,,,,,2018_may._14_1237,59.7095931,Experimento Piloto1,001,122,
0.25,Stim\\03_075.jpg,Tr75_24,Tristeza,24,Guadalupe comenta los resultados con los compañeros.,Afirmación,Tr75,75,,,,,,,,,0,16,16,16,,,,,,,,,1,4.02317588369,4,0.45028687045,,,,,2018_may._14_1237,59.7095931,Experimento Piloto1,001,122,
2.5,Stim\\05_078.jpg,En78_25,Enojo,25,Luis decide la comida siguiente.,Afirmación,En78,78,,,,,,,,,0,17,17,17,,,,,,,,,1,2.96725343801,2,0.38378299501,,,,,2018_may._14_1237,59.7095931,Experimento Piloto1,001,122,
2.5,Stim\\05_028.jpg,En28_17,Enojo,17,Brenda sube el autobús en las mañanas.,Afirmación,En28,28,,,,,,,,,0,18,18,18,,,,,,,,,1,2.1928727966,2,0.300385513544,,,,,2018_may._14_1237,59.7095931,Experimento Piloto1,001,122,
0.25,Stim\\02_078.jpg,Al78_26,Alegría,26,Víctor trae el café a Marco.,Afirmación,Al78,78,,,,,,,,,0,19,19,19,,,,,,,,,1,2.50516821983,2,0.50041166367,,,,,2018_may._14_1237,59.7095931,Experimento Piloto1,001,122,
2.5,Stim\\03_075.jpg,Tr75_20,Tristeza,20,Karen analiza la idea.,Afirmación,Tr75,75,,,,,,,,,0,20,20,20,,,,,,,,,1,2.25790271528,4,0.333713536528,,,,,2018_may._14_1237,59.7095931,Experimento Piloto1,001,122,
2.5,Stim\\05_028.jpg,En28_21,Enojo,21,Mauro anuncia la actividad.,Afirmación,En28,28,,,,,,,,,0,21,21,21,,,,,,,,,1,4.30453160261,2,1.43313354816,,,,,2018_may._14_1237,59.7095931,Experimento Piloto1,001,122,
0.25,Stim\\05_019.jpg,En19_21,Enojo,21,Mauro anuncia la actividad.,Afirmación,En19,19,,,,,,,,,0,22,22,22,,,,,,,,,1,1.89986599176,2,0.333581000908,,,,,2018_may._14_1237,59.7095931,Experimento Piloto1,001,122,
0.25,Stim\\03_028.jpg,Tr28_16,Tristeza,16,Valeria modifica algunas imágenes.,Afirmación,Tr28,28,,,,,,,,,0,23,23,23,,,,,,,,,1,0.968465001002,4,0.400331205177,,,,,2018_may._14_1237,59.7095931,Experimento Piloto1,001,122,
0.25,Stim\\05_075.jpg,En75_27,Enojo,27,Claudia informa los avances en el reporte.,Afirmación,En75,75,,,,,,,,,0,24,24,24,,,,,,,,,1,1.66147368008,2,2.09983457591,,,,,2018_may._14_1237,59.7095931,Experimento Piloto1,001,122,
2.5,Stim\\02_078.jpg,Al78_18,Alegría,18,Sofía escucha la música.,Afirmación,Al78,78,,,,,,,,,0,25,25,25,,,,,,,,,1,2.87362304638,3,0.33366891174,,,,,2018_may._14_1237,59.7095931,Experimento Piloto1,001,122,
2.5,Stim\\03_028.jpg,Tr28_25,Tristeza,25,Luis decide la comida siguiente.,Afirmación,Tr28,28,,,,,,,,,0,26,26,26,,,,,,,,,1,2.76791450962,2,1.51666490399,,,,,2018_may._14_1237,59.7095931,Experimento Piloto1,001,122,
0.25,Stim\\03_075.jpg,Tr75_18,Tristeza,18,Sofía escucha la música.,Afirmación,Tr75,75,,,,,,,,,0,27,27,27,,,,,,,,,1,7.12232234537,3,0.966829948766,,,,,2018_may._14_1237,59.7095931,Experimento Piloto1,001,122,
2.5,Stim\\02_028.jpg,Al28_27,Alegría,27,Claudia informa los avances en el reporte.,Afirmación,Al28,28,,,,,,,,,0,28,28,28,,,,,,,,,1,2.64388705109,3,0.400332990169,,,,,2018_may._14_1237,59.7095931,Experimento Piloto1,001,122,
2.5,Stim\\02_028.jpg,Al28_20,Alegría,20,Karen analiza la idea.,Afirmación,Al28,28,,,,,,,,,0,29,29,29,,,,,,,,,1,2.57539692633,3,0.383716504076,,,,,2018_may._14_1237,59.7095931,Experimento Piloto1,001,122,
0.25,Stim\\05_078.jpg,En78_29,Enojo,29,Miriam mira la película.,Afirmación,En78,78,,,,,,,,,0,30,30,30,,,,,,,,,1,2.55769828913,2,1.01674857547,,,,,2018_may._14_1237,59.7095931,Experimento Piloto1,001,122,
0.25,Stim\\05_019.jpg,En19_22,Enojo,22,Enrique corre todas las mañanas.,Afirmación,En19,19,,,,,,,,,0,31,31,31,,,,,,,,,1,7.58423352687,2,1.09995238535,,,,,2018_may._14_1237,59.7095931,Experimento Piloto1,001,122,
2.5,Stim\\03_019.jpg,Tr19_20,Tristeza,20,Karen analiza la idea.,Afirmación,Tr19,19,,,,,,,,,0,32,32,32,,,,,,,,,1,2.42482664385,4,0.383780317523,,,,,2018_may._14_1237,59.7095931,Experimento Piloto1,001,122,
2.5,Stim\\05_078.jpg,En78_22,Enojo,22,Enrique corre todas las mañanas.,Afirmación,En78,78,,,,,,,,,0,33,33,33,,,,,,,,,1,2.30185456157,2,0.550440513595,,,,,2018_may._14_1237,59.7095931,Experimento Piloto1,001,122,
2.5,Stim\\02_078.jpg,Al78_16,Alegría,16,Valeria modifica algunas imágenes.,Afirmación,Al78,78,,,,,,,,,0,34,34,34,,,,,,,,,1,0.718407323463,3,1.16681281285,,,,,2018_may._14_1237,59.7095931,Experimento Piloto1,001,122,
2.5,Stim\\05_028.jpg,En28_24,Enojo,24,Guadalupe comenta los resultados con los compañeros.,Afirmación,En28,28,,,,,,,,,0,35,35,35,,,,,,,,,1,3.30632150286,3,0.45035425388,,,,,2018_may._14_1237,59.7095931,Experimento Piloto1,001,122,
2.5,Stim\\02_075.jpg,Al75_16,Alegría,16,Valeria modifica algunas imágenes.,Afirmación,Al75,75,,,,,,,,,0,36,36,36,,,,,,,,,1,5.16666822853,3,0.30037792733,,,,,2018_may._14_1237,59.7095931,Experimento Piloto1,001,122,
0.25,Stim\\02_019.jpg,Al19_18,Alegría,18,Sofía escucha la música.,Afirmación,Al19,19,,,,,,,,,0,37,37,37,,,,,,,,,1,4.60731168228,3,0.400271407961,,,,,2018_may._14_1237,59.7095931,Experimento Piloto1,001,122,
2.5,Stim\\02_028.jpg,Al28_26,Alegría,26,Víctor trae el café a Marco.,Afirmación,Al28,28,,,,,,,,,0,38,38,38,,,,,,,,,1,2.82040307786,3,0.333849195883,,,,,2018_may._14_1237,59.7095931,Experimento Piloto1,001,122,
2.5,Stim\\02_078.jpg,Al78_29,Alegría,29,Miriam mira la película.,Afirmación,Al78,78,,,,,,,,,0,39,39,39,,,,,,,,,1,2.42405017254,3,0.533563418741,,,,,2018_may._14_1237,59.7095931,Experimento Piloto1,001,122,
0.25,Stim\\05_078.jpg,En78_24,Enojo,24,Guadalupe comenta los resultados con los compañeros.,Afirmación,En78,78,,,,,,,,,0,40,40,40,,,,,,,,,1,8.13850373978,3,1.2166778898,,,,,2018_may._14_1237,59.7095931,Experimento Piloto1,001,122,
0.25,Stim\\03_075.jpg,Tr75_19,Tristeza,19,Armando acompaña a Rodrígo a la tienda.,Afirmación,Tr75,75,,,,,,,,,0,41,41,41,,,,,,,,,1,2.54772241775,4,0.283811867248,,,,,2018_may._14_1237,59.7095931,Experimento Piloto1,001,122,
0.25,Stim\\02_028.jpg,Al28_17,Alegría,17,Brenda sube el autobús en las mañanas.,Afirmación,Al28,28,,,,,,,,,0,42,42,42,,,,,,,,,1,3.99811237146,3,0.650246529642,,,,,2018_may._14_1237,59.7095931,Experimento Piloto1,001,122,
2.5,Stim\\05_075.jpg,En75_21,Enojo,21,Mauro anuncia la actividad.,Afirmación,En75,75,,,,,,,,,0,43,43,43,,,,,,,,,1,4.92069728909,3,1.05027428626,,,,,2018_may._14_1237,59.7095931,Experimento Piloto1,001,122,
0.25,Stim\\03_019.jpg,Tr19_27,Tristeza,27,Claudia informa los avances en el reporte.,Afirmación,Tr19,19,,,,,,,,,0,44,44,44,,,,,,,,,1,6.24358172829,3,1.78329221159,,,,,2018_may._14_1237,59.7095931,Experimento Piloto1,001,122,
2.5,Stim\\02_075.jpg,Al75_19,Alegría,19,Armando acompaña a Rodrígo a la tienda.,Afirmación,Al75,75,,,,,,,,,0,45,45,45,,,,,,,,,1,6.29564145232,3,0.283782861136,,,,,2018_may._14_1237,59.7095931,Experimento Piloto1,001,122,
2.5,Stim\\03_019.jpg,Tr19_22,Tristeza,22,Enrique corre todas las mañanas.,Afirmación,Tr19,19,,,,,,,,,0,46,46,46,,,,,,,,,1,3.7496080828,3,0.333592157104,,,,,2018_may._14_1237,59.7095931,Experimento Piloto1,001,122,
2.5,Stim\\02_075.jpg,Al75_23,Alegría,23,Óscar consigue un nuevo departamento.,Afirmación,Al75,75,,,,,,,,,0,47,47,47,,,,,,,,,1,5.23171956712,3,0.38382092608,,,,,2018_may._14_1237,59.7095931,Experimento Piloto1,001,122,
2.5,Stim\\02_019.jpg,Al19_27,Alegría,27,Claudia informa los avances en el reporte.,Afirmación,Al19,19,,,,,,,,,0,48,48,48,,,,,,,,,1,6.41070557591,4,0.650332209235,,,,,2018_may._14_1237,59.7095931,Experimento Piloto1,001,122,
2.5,Stim\\03_028.jpg,Tr28_16,Tristeza,16,Valeria modifica algunas imágenes.,Afirmación,Tr28,28,,,,,,,,,0,49,49,49,,,,,,,,,1,3.36407267236,2,0.550445422322,,,,,2018_may._14_1237,59.7095931,Experimento Piloto1,001,122,
2.5,Stim\\02_078.jpg,Al78_20,Alegría,20,Karen analiza la idea.,Afirmación,Al78,78,,,,,,,,,0,50,50,50,,,,,,,,,1,2.57484536395,3,2.18538743464,,,,,2018_may._14_1237,59.7095931,Experimento Piloto1,001,122,
2.5,Stim\\05_075.jpg,En75_24,Enojo,24,Guadalupe comenta los resultados con los compañeros.,Afirmación,En75,75,,,,,,,,,0,51,51,51,,,,,,,,,1,4.03914352537,4,0.233856201975,,,,,2018_may._14_1237,59.7095931,Experimento Piloto1,001,122,
0.25,Stim\\03_028.jpg,Tr28_26,Tristeza,26,Víctor trae el café a Marco.,Afirmación,Tr28,28,,,,,,,,,0,52,52,52,,,,,,,,,1,4.40377534632,2,0.400285687893,,,,,2018_may._14_1237,59.7095931,Experimento Piloto1,001,122,
2.5,Stim\\03_028.jpg,Tr28_21,Tristeza,21,Mauro anuncia la actividad.,Afirmación,Tr28,28,,,,,,,,,0,53,53,53,,,,,,,,,1,5.02126594276,4,1.06638829724,,,,,2018_may._14_1237,59.7095931,Experimento Piloto1,001,122,
2.5,Stim\\02_075.jpg,Al75_29,Alegría,29,Miriam mira la película.,Afirmación,Al75,75,,,,,,,,,0,54,54,54,,,,,,,,,1,2.20631199778,3,0.283812313497,,,,,2018_may._14_1237,59.7095931,Experimento Piloto1,001,122,
0.25,Stim\\03_078.jpg,Tr78_26,Tristeza,26,Víctor trae el café a Marco.,Afirmación,Tr78,78,,,,,,,,,0,55,55,55,,,,,,,,,1,2.40403684758,4,0.550206679706,,,,,2018_may._14_1237,59.7095931,Experimento Piloto1,001,122,
0.25,Stim\\05_019.jpg,En19_19,Enojo,19,Armando acompaña a Rodrígo a la tienda.,Afirmación,En19,19,,,,,,,,,0,56,56,56,,,,,,,,,1,3.73080632083,2,0.483836232383,,,,,2018_may._14_1237,59.7095931,Experimento Piloto1,001,122,
0.25,Stim\\03_078.jpg,Tr78_19,Tristeza,19,Armando acompaña a Rodrígo a la tienda.,Afirmación,Tr78,78,,,,,,,,,0,57,57,57,,,,,,,,,1,3.64955663042,3,0.350286736576,,,,,2018_may._14_1237,59.7095931,Experimento Piloto1,001,122,
2.5,Stim\\03_078.jpg,Tr78_18,Tristeza,18,Sofía escucha la música.,Afirmación,Tr78,78,,,,,,,,,0,58,58,58,,,,,,,,,1,3.44086166896,3,2.13316795387,,,,,2018_may._14_1237,59.7095931,Experimento Piloto1,001,122,
2.5,Stim\\05_075.jpg,En75_26,Enojo,26,Víctor trae el café a Marco.,Afirmación,En75,75,,,,,,,,,0,59,59,59,,,,,,,,,1,2.60319192184,2,0.350433998377,,,,,2018_may._14_1237,59.7095931,Experimento Piloto1,001,122,
2.5,Stim\\02_075.jpg,Al75_30,Alegría,30,Marisol toma 2 litros de agua cada día.,Afirmación,Al75,75,,,,,,,,,0,60,60,60,,,,,,,,,1,5.63043981745,3,0.30007046254,,,,,2018_may._14_1237,59.7095931,Experimento Piloto1,001,122,
2.5,Stim\\03_019.jpg,Tr19_18,Tristeza,18,Sofía escucha la música.,Afirmación,Tr19,19,,,,,,,,,0,61,61,61,,,,,,,,,1,2.45727288103,4,0.55028789682,,,,,2018_may._14_1237,59.7095931,Experimento Piloto1,001,122,
0.25,Stim\\03_078.jpg,Tr78_23,Tristeza,23,Óscar consigue un nuevo departamento.,Afirmación,Tr78,78,,,,,,,,,0,62,62,62,,,,,,,,,1,4.79868374725,3,0.550324935394,,,,,2018_may._14_1237,59.7095931,Experimento Piloto1,001,122,
2.5,Stim\\03_019.jpg,Tr19_25,Tristeza,25,Luis decide la comida siguiente.,Afirmación,Tr19,19,,,,,,,,,0,63,63,63,,,,,,,,,1,3.1331617064,4,0.283711907723,,,,,2018_may._14_1237,59.7095931,Experimento Piloto1,001,122,
0.25,Stim\\02_028.jpg,Al28_29,Alegría,29,Miriam mira la película.,Afirmación,Al28,28,,,,,,,,,0,64,64,64,,,,,,,,,1,3.63953301052,3,0.550127247584,,,,,2018_may._14_1237,59.7095931,Experimento Piloto1,001,122,
2.5,Stim\\02_019.jpg,Al19_21,Alegría,21,Mauro anuncia la actividad.,Afirmación,Al19,19,,,,,,,,,0,65,65,65,,,,,,,,,1,0.0900305099676,3,1.6837160132,,,,,2018_may._14_1237,59.7095931,Experimento Piloto1,001,122,
2.5,Stim\\02_078.jpg,Al78_25,Alegría,25,Luis decide la comida siguiente.,Afirmación,Al78,78,,,,,,,,,0,66,66,66,,,,,,,,,1,4.0003047873,3,4.28239235274,,,,,2018_may._14_1237,59.7095931,Experimento Piloto1,001,122,
2.5,Stim\\05_075.jpg,En75_29,Enojo,29,Miriam mira la película.,Afirmación,En75,75,,,,,,,,,0,67,67,67,,,,,,,,,1,3.34046705196,2,0.333776457479,,,,,2018_may._14_1237,59.7095931,Experimento Piloto1,001,122,
0.25,Stim\\03_028.jpg,Tr28_20,Tristeza,20,Karen analiza la idea.,Afirmación,Tr28,28,,,,,,,,,0,68,68,68,,,,,,,,,1,4.30815245791,3,2.18321152997,,,,,2018_may._14_1237,59.7095931,Experimento Piloto1,001,122,
2.5,Stim\\02_075.jpg,Al75_26,Alegría,26,Víctor trae el café a Marco.,Afirmación,Al75,75,,,,,,,,,0,69,69,69,,,,,,,,,1,3.38740786655,3,1.21660872138,,,,,2018_may._14_1237,59.7095931,Experimento Piloto1,001,122,
0.25,Stim\\05_019.jpg,En19_20,Enojo,20,Karen analiza la idea.,Afirmación,En19,19,,,,,,,,,0,70,70,70,,,,,,,,,1,5.27485834977,3,0.700295014474,,,,,2018_may._14_1237,59.7095931,Experimento Piloto1,001,122,
0.25,Stim\\05_028.jpg,En28_22,Enojo,22,Enrique corre todas las mañanas.,Afirmación,En28,28,,,,,,,,,0,71,71,71,,,,,,,,,1,4.96809283027,2,0.600178856151,,,,,2018_may._14_1237,59.7095931,Experimento Piloto1,001,122,
2.5,Stim\\05_028.jpg,En28_22,Enojo,22,Enrique corre todas las mañanas.,Afirmación,En28,28,,,,,,,,,0,72,72,72,,,,,,,,,1,2.31656958544,2,0.400349947588,,,,,2018_may._14_1237,59.7095931,Experimento Piloto1,001,122,
0.25,Stim\\05_019.jpg,En19_17,Enojo,17,Brenda sube el autobús en las mañanas.,Afirmación,En19,19,,,,,,,,,0,73,73,73,,,,,,,,,1,2.96436933795,2,2.03330928057,,,,,2018_may._14_1237,59.7095931,Experimento Piloto1,001,122,
2.5,Stim\\05_078.jpg,En78_26,Enojo,26,Víctor trae el café a Marco.,Afirmación,En78,78,,,,,,,,,0,74,74,74,,,,,,,,,1,3.02113831587,2,0.850122294231,,,,,2018_may._14_1237,59.7095931,Experimento Piloto1,001,122,
2.5,Stim\\03_078.jpg,Tr78_29,Tristeza,29,Miriam mira la película.,Afirmación,Tr78,78,,,,,,,,,0,75,75,75,,,,,,,,,1,3.39069760592,4,0.333738080161,,,,,2018_may._14_1237,59.7095931,Experimento Piloto1,001,122,
0.25,Stim\\02_075.jpg,Al75_22,Alegría,22,Enrique corre todas las mañanas.,Afirmación,Al75,75,,,,,,,,,0,76,76,76,,,,,,,,,1,5.38468396948,3,2.28340712042,,,,,2018_may._14_1237,59.7095931,Experimento Piloto1,001,122,
2.5,Stim\\02_019.jpg,Al19_23,Alegría,23,Óscar consigue un nuevo departamento.,Afirmación,Al19,19,,,,,,,,,0,77,77,77,,,,,,,,,1,3.99827659068,3,0.550242825784,,,,,2018_may._14_1237,59.7095931,Experimento Piloto1,001,122,
0.25,Stim\\05_075.jpg,En75_21,Enojo,21,Mauro anuncia la actividad.,Afirmación,En75,75,,,,,,,,,0,78,78,78,,,,,,,,,1,3.46864907825,3,0.600371635235,,,,,2018_may._14_1237,59.7095931,Experimento Piloto1,001,122,
0.25,Stim\\02_078.jpg,Al78_25,Alegría,25,Luis decide la comida siguiente.,Afirmación,Al78,78,,,,,,,,,0,79,79,79,,,,,,,,,1,6.66538905898,3,0.283752962528,,,,,2018_may._14_1237,59.7095931,Experimento Piloto1,001,122,
0.25,Stim\\03_078.jpg,Tr78_22,Tristeza,22,Enrique corre todas las mañanas.,Afirmación,Tr78,78,,,,,,,,,0,80,80,80,,,,,,,,,1,3.88507019702,3,0.450361393846,,,,,2018_may._14_1237,59.7095931,Experimento Piloto1,001,122,
0.25,Stim\\05_028.jpg,En28_26,Enojo,26,Víctor trae el café a Marco.,Afirmación,En28,28,,,,,,,,,0,81,81,81,,,,,,,,,1,3.78812953862,2,0.650213953546,,,,,2018_may._14_1237,59.7095931,Experimento Piloto1,001,122,
2.5,Stim\\05_019.jpg,En19_29,Enojo,29,Miriam mira la película.,Afirmación,En19,19,,,,,,,,,0,82,82,82,,,,,,,,,1,1.17420267775,2,0.699969699769,,,,,2018_may._14_1237,59.7095931,Experimento Piloto1,001,122,
0.25,Stim\\02_019.jpg,Al19_21,Alegría,21,Mauro anuncia la actividad.,Afirmación,Al19,19,,,,,,,,,0,83,83,83,,,,,,,,,1,3.43860900966,2,0.550270493153,,,,,2018_may._14_1237,59.7095931,Experimento Piloto1,001,122,
2.5,Stim\\05_078.jpg,En78_30,Enojo,30,Marisol toma 2 litros de agua cada día.,Afirmación,En78,78,,,,,,,,,0,84,84,84,,,,,,,,,1,4.24811739175,3,0.434122433461,,,,,2018_may._14_1237,59.7095931,Experimento Piloto1,001,122,
0.25,Stim\\02_078.jpg,Al78_30,Alegría,30,Marisol toma 2 litros de agua cada día.,Afirmación,Al78,78,,,,,,,,,0,85,85,85,,,,,,,,,1,6.73164437435,3,0.900177472782,,,,,2018_may._14_1237,59.7095931,Experimento Piloto1,001,122,
0.25,Stim\\03_075.jpg,Tr75_16,Tristeza,16,Valeria modifica algunas imágenes.,Afirmación,Tr75,75,,,,,,,,,0,86,86,86,,,,,,,,,1,2.96745781953,4,0.400045606534,,,,,2018_may._14_1237,59.7095931,Experimento Piloto1,001,122,
0.25,Stim\\02_019.jpg,Al19_24,Alegría,24,Guadalupe comenta los resultados con los compañeros.,Afirmación,Al19,19,,,,,,,,,0,87,87,87,,,,,,,,,1,6.58770042666,4,0.500024766758,,,,,2018_may._14_1237,59.7095931,Experimento Piloto1,001,122,
2.5,Stim\\02_028.jpg,Al28_29,Alegría,29,Miriam mira la película.,Afirmación,Al28,28,,,,,,,,,0,88,88,88,,,,,,,,,1,2.80702501264,3,0.866766001445,,,,,2018_may._14_1237,59.7095931,Experimento Piloto1,001,122,
0.25,Stim\\03_019.jpg,Tr19_25,Tristeza,25,Luis decide la comida siguiente.,Afirmación,Tr19,19,,,,,,,,,0,89,89,89,,,,,,,,,1,4.35029521529,3,0.649903811269,,,,,2018_may._14_1237,59.7095931,Experimento Piloto1,001,122,
0.25,Stim\\03_075.jpg,Tr75_25,Tristeza,25,Luis decide la comida siguiente.,Afirmación,Tr75,75,,,,,,,,,0,90,90,90,,,,,,,,,1,4.29929131374,4,0.750402850274,,,,,2018_may._14_1237,59.7095931,Experimento Piloto1,001,122,
2.5,Stim\\03_078.jpg,Tr78_25,Tristeza,25,Luis decide la comida siguiente.,Afirmación,Tr78,78,,,,,,,,,0,91,91,91,,,,,,,,,1,2.4329867326,4,1.11646266445,,,,,2018_may._14_1237,59.7095931,Experimento Piloto1,001,122,
2.5,Stim\\02_019.jpg,Al19_18,Alegría,18,Sofía escucha la música.,Afirmación,Al19,19,,,,,,,,,0,92,92,92,,,,,,,,,1,3.79084808071,3,0.90006010959,,,,,2018_may._14_1237,59.7095931,Experimento Piloto1,001,122,
2.5,Stim\\03_028.jpg,Tr28_19,Tristeza,19,Armando acompaña a Rodrígo a la tienda.,Afirmación,Tr28,28,,,,,,,,,0,93,93,93,,,,,,,,,1,4.56175066614,4,0.383691067947,,,,,2018_may._14_1237,59.7095931,Experimento Piloto1,001,122,
0.25,Stim\\03_078.jpg,Tr78_18,Tristeza,18,Sofía escucha la música.,Afirmación,Tr78,78,,,,,,,,,0,94,94,94,,,,,,,,,1,4.62321238677,3,0.533649544582,,,,,2018_may._14_1237,59.7095931,Experimento Piloto1,001,122,
0.25,Stim\\05_019.jpg,En19_29,Enojo,29,Miriam mira la película.,Afirmación,En19,19,,,,,,,,,0,95,95,95,,,,,,,,,1,2.97453620342,2,0.700290551995,,,,,2018_may._14_1237,59.7095931,Experimento Piloto1,001,122,
2.5,Stim\\03_078.jpg,Tr78_24,Tristeza,24,Guadalupe comenta los resultados con los compañeros.,Afirmación,Tr78,78,,,,,,,,,0,96,96,96,,,,,,,,,1,4.85540229916,4,0.350236756814,,,,,2018_may._14_1237,59.7095931,Experimento Piloto1,001,122,
2.5,Stim\\05_019.jpg,En19_22,Enojo,22,Enrique corre todas las mañanas.,Afirmación,En19,19,,,,,,,,,0,97,97,97,,,,,,,,,1,2.10269234734,2,0.750178833838,,,,,2018_may._14_1237,59.7095931,Experimento Piloto1,001,122,
0.25,Stim\\02_028.jpg,Al28_20,Alegría,20,Karen analiza la idea.,Afirmación,Al28,28,,,,,,,,,0,98,98,98,,,,,,,,,1,6.90813050252,2,0.600343521618,,,,,2018_may._14_1237,59.7095931,Experimento Piloto1,001,122,
2.5,Stim\\03_078.jpg,Tr78_27,Tristeza,27,Claudia informa los avances en el reporte.,Afirmación,Tr78,78,,,,,,,,,0,99,99,99,,,,,,,,,1,3.64504194061,3,0.650224217248,,,,,2018_may._14_1237,59.7095931,Experimento Piloto1,001,122,
0.25,Stim\\03_075.jpg,Tr75_17,Tristeza,17,Brenda sube el autobús en las mañanas.,Afirmación,Tr75,75,,,,,,,,,0,100,100,100,,,,,,,,,1,6.18089550347,3,0.916591808585,,,,,2018_may._14_1237,59.7095931,Experimento Piloto1,001,122,
2.5,Stim\\05_028.jpg,En28_25,Enojo,25,Luis decide la comida siguiente.,Afirmación,En28,28,,,,,,,,,0,101,101,101,,,,,,,,,1,3.01734342389,3,0.750339929323,,,,,2018_may._14_1237,59.7095931,Experimento Piloto1,001,122,
2.5,Stim\\02_028.jpg,Tr28_30,Tristeza,30,Marisol toma 2 litros de agua cada día.,Afirmación,Tr28,28,,,,,,,,,0,102,102,102,,,,,,,,,1,5.53115501893,3,0.700235663506,,,,,2018_may._14_1237,59.7095931,Experimento Piloto1,001,122,
0.25,Stim\\02_078.jpg,Al78_18,Alegría,18,Sofía escucha la música.,Afirmación,Al78,78,,,,,,,,,0,103,103,103,,,,,,,,,1,3.78971104111,3,0.283680670371,,,,,2018_may._14_1237,59.7095931,Experimento Piloto1,001,122,
0.25,Stim\\02_078.jpg,Al78_24,Alegría,24,Guadalupe comenta los resultados con los compañeros.,Afirmación,Al78,78,,,,,,,,,0,104,104,104,,,,,,,,,1,4.80539710037,3,0.283774382427,,,,,2018_may._14_1237,59.7095931,Experimento Piloto1,001,122,
0.25,Stim\\05_075.jpg,En75_26,Enojo,26,Víctor trae el café a Marco.,Afirmación,En75,75,,,,,,,,,0,105,105,105,,,,,,,,,1,3.90528210229,2,0.383750865163,,,,,2018_may._14_1237,59.7095931,Experimento Piloto1,001,122,
0.25,Stim\\05_019.jpg,En19_16,Enojo,16,Valeria modifica algunas imágenes.,Afirmación,En19,19,,,,,,,,,0,106,106,106,,,,,,,,,1,2.10115546964,2,0.333932644237,,,,,2018_may._14_1237,59.7095931,Experimento Piloto1,001,122,
2.5,Stim\\05_019.jpg,En19_21,Enojo,21,Mauro anuncia la actividad.,Afirmación,En19,19,,,,,,,,,0,107,107,107,,,,,,,,,1,2.20245552359,2,0.350341178817,,,,,2018_may._14_1237,59.7095931,Experimento Piloto1,001,122,
0.25,Stim\\03_028.jpg,Tr28_22,Tristeza,22,Enrique corre todas las mañanas.,Afirmación,Tr28,28,,,,,,,,,0,108,108,108,,,,,,,,,1,7.46806270854,2,0.450342205188,,,,,2018_may._14_1237,59.7095931,Experimento Piloto1,001,122,
2.5,Stim\\05_075.jpg,En75_28,Enojo,28,Antonio responde la pregunta.,Afirmación,En75,75,,,,,,,,,0,109,109,109,,,,,,,,,1,2.86953050707,2,0.750198468745,,,,,2018_may._14_1237,59.7095931,Experimento Piloto1,001,122,
2.5,Stim\\05_078.jpg,En78_28,Enojo,28,Antonio responde la pregunta.,Afirmación,En78,78,,,,,,,,,0,110,110,110,,,,,,,,,1,2.21638872117,2,0.400443659643,,,,,2018_may._14_1237,59.7095931,Experimento Piloto1,001,122,
2.5,Stim\\03_028.jpg,Tr28_26,Tristeza,26,Víctor trae el café a Marco.,Afirmación,Tr28,28,,,,,,,,,0,111,111,111,,,,,,,,,1,2.10540464196,4,0.850191462653,,,,,2018_may._14_1237,59.7095931,Experimento Piloto1,001,122,
2.5,Stim\\05_028.jpg,En28_20,Enojo,20,Karen analiza la idea.,Afirmación,En28,28,,,,,,,,,0,112,112,112,,,,,,,,,1,1.79156430856,2,0.300409164682,,,,,2018_may._14_1237,59.7095931,Experimento Piloto1,001,122,
2.5,Stim\\02_019.jpg,Al19_30,Alegría,30,Marisol toma 2 litros de agua cada día.,Afirmación,Al19,19,,,,,,,,,0,113,113,113,,,,,,,,,1,2.03154347771,3,0.250348631157,,,,,2018_may._14_1237,59.7095931,Experimento Piloto1,001,122,
2.5,Stim\\05_078.jpg,En78_23,Enojo,23,Óscar consigue un nuevo departamento.,Afirmación,En78,78,,,,,,,,,0,114,114,114,,,,,,,,,1,3.53252455367,2,0.650293831917,,,,,2018_may._14_1237,59.7095931,Experimento Piloto1,001,122,
0.25,Stim\\05_078.jpg,En78_23,Enojo,23,Óscar consigue un nuevo departamento.,Afirmación,En78,78,,,,,,,,,0,115,115,115,,,,,,,,,1,3.79927100946,3,0.500403631208,,,,,2018_may._14_1237,59.7095931,Experimento Piloto1,001,122,
2.5,Stim\\05_019.jpg,En19_19,Enojo,19,Armando acompaña a Rodrígo a la tienda.,Afirmación,En19,19,,,,,,,,,0,116,116,116,,,,,,,,,1,3.41392659312,2,1.06672387565,,,,,2018_may._14_1237,59.7095931,Experimento Piloto1,001,122,
2.5,Stim\\03_078.jpg,Tr78_17,Tristeza,17,Brenda sube el autobús en las mañanas.,Afirmación,Tr78,78,,,,,,,,,0,117,117,117,,,,,,,,,1,5.48119801491,4,1.06695681704,,,,,2018_may._14_1237,59.7095931,Experimento Piloto1,001,122,
0.25,Stim\\05_075.jpg,En75_20,Enojo,20,Karen analiza la idea.,Afirmación,En75,75,,,,,,,,,0,118,118,118,,,,,,,,,1,2.85847293083,2,0.750223012379,,,,,2018_may._14_1237,59.7095931,Experimento Piloto1,001,122,
0.25,Stim\\05_078.jpg,En78_28,Enojo,28,Antonio responde la pregunta.,Afirmación,En78,78,,,,,,,,,0,119,119,119,,,,,,,,,1,2.62005473676,2,0.383621899526,,,,,2018_may._14_1237,59.7095931,Experimento Piloto1,001,122,
2.5,Stim\\03_019.jpg,Tr19_16,Tristeza,16,Valeria modifica algunas imágenes.,Afirmación,Tr19,19,,,,,,,,,,,,,0,0,0,0,,,,,,,,,1,7.41651572332,4,0.450018229226,2018_may._14_1237,59.7095931,Experimento Piloto1,001,122,
2.5,Stim\\05_078.jpg,En78_19,Enojo,19,Armando acompaña a Rodrígo a la tienda.,Afirmación,En78,78,,,,,,,,,,,,,0,1,1,1,,,,,,,,,1,2.0810100553,2,0.400240616857,2018_may._14_1237,59.7095931,Experimento Piloto1,001,122,
2.5,Stim\\02_075.jpg,Al75_21,Alegría,21,Mauro anuncia la actividad.,Afirmación,Al75,75,,,,,,,,,,,,,0,2,2,2,,,,,,,,,1,1.22317882893,3,0.40040215859,2018_may._14_1237,59.7095931,Experimento Piloto1,001,122,
0.25,Stim\\02_075.jpg,Al75_16,Alegría,16,Valeria modifica algunas imágenes.,Afirmación,Al75,75,,,,,,,,,,,,,0,3,3,3,,,,,,,,,1,1.7846595151,3,0.350352781262,2018_may._14_1237,59.7095931,Experimento Piloto1,001,122,
0.25,Stim\\05_078.jpg,En78_30,Enojo,30,Marisol toma 2 litros de agua cada día.,Afirmación,En78,78,,,,,,,,,,,,,0,4,4,4,,,,,,,,,1,1.78143269667,2,0.333816173541,2018_may._14_1237,59.7095931,Experimento Piloto1,001,122,
0.25,Stim\\02_019.jpg,Al19_22,Alegría,22,Enrique corre todas las mañanas.,Afirmación,Al19,19,,,,,,,,,,,,,0,5,5,5,,,,,,,,,1,2.25169496101,3,0.384370257222,2018_may._14_1237,59.7095931,Experimento Piloto1,001,122,
2.5,Stim\\05_028.jpg,En28_23,Enojo,23,Óscar consigue un nuevo departamento.,Afirmación,En28,28,,,,,,,,,,,,,0,6,6,6,,,,,,,,,1,2.09900455485,2,0.350260854199,2018_may._14_1237,59.7095931,Experimento Piloto1,001,122,
0.25,Stim\\03_019.jpg,Tr19_16,Tristeza,16,Valeria modifica algunas imágenes.,Afirmación,Tr19,19,,,,,,,,,,,,,0,7,7,7,,,,,,,,,1,2.35135862399,4,0.383766930087,2018_may._14_1237,59.7095931,Experimento Piloto1,001,122,
0.25,Stim\\02_078.jpg,Al78_17,Alegría,17,Brenda sube el autobús en las mañanas.,Afirmación,Al78,78,,,,,,,,,,,,,0,8,8,8,,,,,,,,,1,3.53076812201,3,0.333701487835,2018_may._14_1237,59.7095931,Experimento Piloto1,001,122,
0.25,Stim\\02_078.jpg,Al78_16,Alegría,16,Valeria modifica algunas imágenes.,Afirmación,Al78,78,,,,,,,,,,,,,0,9,9,9,,,,,,,,,1,2.35094896843,3,0.400314247758,2018_may._14_1237,59.7095931,Experimento Piloto1,001,122,
0.25,Stim\\05_075.jpg,En75_22,Enojo,22,Enrique corre todas las mañanas.,Afirmación,En75,75,,,,,,,,,,,,,0,10,10,10,,,,,,,,,1,2.20218822111,2,0.333597958327,2018_may._14_1237,59.7095931,Experimento Piloto1,001,122,
0.25,Stim\\02_028.jpg,Al28_26,Alegría,26,Víctor trae el café a Marco.,Afirmación,Al28,28,,,,,,,,,,,,,0,11,11,11,,,,,,,,,1,1.98854749438,3,0.450352468888,2018_may._14_1237,59.7095931,Experimento Piloto1,001,122,
2.5,Stim\\03_075.jpg,Tr75_28,Tristeza,28,Antonio responde la pregunta.,Afirmación,Tr75,75,,,,,,,,,,,,,0,12,12,12,,,,,,,,,1,2.72054038833,4,0.650273750763,2018_may._14_1237,59.7095931,Experimento Piloto1,001,122,
0.25,Stim\\05_075.jpg,En75_23,Enojo,23,Óscar consigue un nuevo departamento.,Afirmación,En75,75,,,,,,,,,,,,,0,13,13,13,,,,,,,,,1,3.63150545739,2,0.333681406681,2018_may._14_1237,59.7095931,Experimento Piloto1,001,122,
2.5,Stim\\02_078.jpg,Al78_28,Alegría,28,Antonio responde la pregunta.,Afirmación,Al78,78,,,,,,,,,,,,,0,14,14,14,,,,,,,,,1,2.10428946851,3,0.800359408043,2018_may._14_1237,59.7095931,Experimento Piloto1,001,122,
2.5,Stim\\02_028.jpg,Al28_18,Alegría,18,Sofía escucha la música.,Afirmación,Al28,28,,,,,,,,,,,,,0,15,15,15,,,,,,,,,1,3.24022951421,3,2.74965761631,2018_may._14_1237,59.7095931,Experimento Piloto1,001,122,
2.5,Stim\\02_019.jpg,Al19_22,Alegría,22,Enrique corre todas las mañanas.,Afirmación,Al19,19,,,,,,,,,,,,,0,16,16,16,,,,,,,,,1,2.86901509076,3,0.500272434331,2018_may._14_1237,59.7095931,Experimento Piloto1,001,122,
2.5,Stim\\05_028.jpg,En28_28,Enojo,28,Antonio responde la pregunta.,Afirmación,En28,28,,,,,,,,,,,,,0,17,17,17,,,,,,,,,1,4.30413131826,2,0.750272099645,2018_may._14_1237,59.7095931,Experimento Piloto1,001,122,
0.25,Stim\\03_078.jpg,Tr78_30,Tristeza,30,Marisol toma 2 litros de agua cada día.,Afirmación,Tr78,78,,,,,,,,,,,,,0,18,18,18,,,,,,,,,1,3.26255306445,4,0.400594045179,2018_may._14_1237,59.7095931,Experimento Piloto1,001,122,
0.25,Stim\\03_019.jpg,Tr19_20,Tristeza,20,Karen analiza la idea.,Afirmación,Tr19,19,,,,,,,,,,,,,0,19,19,19,,,,,,,,,1,1.74135651323,4,0.383628593244,2018_may._14_1237,59.7095931,Experimento Piloto1,001,122,
0.25,Stim\\05_028.jpg,En28_19,Enojo,19,Armando acompaña a Rodrígo a la tienda.,Afirmación,En28,28,,,,,,,,,,,,,0,20,20,20,,,,,,,,,1,4.04680426274,4,4.33234177054,2018_may._14_1237,59.7095931,Experimento Piloto1,001,122,
0.25,Stim\\05_019.jpg,En19_26,Enojo,26,Víctor trae el café a Marco.,Afirmación,En19,19,,,,,,,,,,,,,0,21,21,21,,,,,,,,,1,4.25410112959,2,0.333688100399,2018_may._14_1237,59.7095931,Experimento Piloto1,001,122,
0.25,Stim\\02_028.jpg,Al28_16,Alegría,16,Valeria modifica algunas imágenes.,Afirmación,Al28,28,,,,,,,,,,,,,0,22,22,22,,,,,,,,,1,2.91503663472,3,3.83259546246,2018_may._14_1237,59.7095931,Experimento Piloto1,001,122,
2.5,Stim\\02_075.jpg,Al75_17,Alegría,17,Brenda sube el autobús en las mañanas.,Afirmación,Al75,75,,,,,,,,,,,,,0,23,23,23,,,,,,,,,1,3.38187260783,3,0.65020904482,2018_may._14_1237,59.7095931,Experimento Piloto1,001,122,
2.5,Stim\\05_075.jpg,En75_30,Enojo,30,Marisol toma 2 litros de agua cada día.,Afirmación,En75,75,,,,,,,,,,,,,0,24,24,24,,,,,,,,,1,0.864292895689,2,0.383723197795,2018_may._14_1237,59.7095931,Experimento Piloto1,001,122,
2.5,Stim\\03_075.jpg,Tr75_27,Tristeza,27,Claudia informa los avances en el reporte.,Afirmación,Tr75,75,,,,,,,,,,,,,0,25,25,25,,,,,,,,,1,3.17833627188,4,0.483676921889,2018_may._14_1237,59.7095931,Experimento Piloto1,001,122,
2.5,Stim\\03_028.jpg,Tr28_24,Tristeza,24,Guadalupe comenta los resultados con los compañeros.,Afirmación,Tr28,28,,,,,,,,,,,,,0,26,26,26,,,,,,,,,1,5.36861949202,4,0.550311547958,2018_may._14_1237,59.7095931,Experimento Piloto1,001,122,
0.25,Stim\\05_028.jpg,En28_24,Enojo,24,Guadalupe comenta los resultados con los compañeros.,Afirmación,En28,28,,,,,,,,,,,,,0,27,27,27,,,,,,,,,1,3.08283476289,2,0.700236109754,2018_may._14_1237,59.7095931,Experimento Piloto1,001,122,
0.25,Stim\\03_028.jpg,Tr28_17,Tristeza,17,Brenda sube el autobús en las mañanas.,Afirmación,Tr28,28,,,,,,,,,,,,,0,28,28,28,,,,,,,,,1,3.31370690528,4,0.400378953701,2018_may._14_1237,59.7095931,Experimento Piloto1,001,122,
0.25,Stim\\02_028.jpg,Al28_28,Alegría,28,Antonio responde la pregunta.,Afirmación,Al28,28,,,,,,,,,,,,,0,29,29,29,,,,,,,,,1,3.27129461419,3,0.450232874457,2018_may._14_1237,59.7095931,Experimento Piloto1,001,122,
2.5,Stim\\02_028.jpg,Al28_24,Alegría,24,Guadalupe comenta los resultados con los compañeros.,Afirmación,Al28,28,,,,,,,,,,,,,0,30,30,30,,,,,,,,,1,7.62088475782,3,0.750310923211,2018_may._14_1237,59.7095931,Experimento Piloto1,001,122,
0.25,Stim\\02_078.jpg,Al78_29,Alegría,29,Miriam mira la película.,Afirmación,Al78,78,,,,,,,,,,,,,0,31,31,31,,,,,,,,,1,1.84128569369,3,0.350331361364,2018_may._14_1237,59.7095931,Experimento Piloto1,001,122,
0.25,Stim\\05_078.jpg,En78_19,Enojo,19,Armando acompaña a Rodrígo a la tienda.,Afirmación,En78,78,,,,,,,,,,,,,0,32,32,32,,,,,,,,,1,2.13115760717,2,0.50038221131,2018_may._14_1237,59.7095931,Experimento Piloto1,001,122,
0.25,Stim\\03_019.jpg,Tr19_21,Tristeza,21,Mauro anuncia la actividad.,Afirmación,Tr19,19,,,,,,,,,,,,,0,33,33,33,,,,,,,,,1,2.60568912498,4,0.400314694005,2018_may._14_1237,59.7095931,Experimento Piloto1,001,122,
0.25,Stim\\02_028.jpg,Al28_25,Alegría,25,Luis decide la comida siguiente.,Afirmación,Al28,28,,,,,,,,,,,,,0,34,34,34,,,,,,,,,1,10.748362605,3,0.350350550023,2018_may._14_1237,59.7095931,Experimento Piloto1,001,122,
2.5,Stim\\03_078.jpg,Tr78_26,Tristeza,26,Víctor trae el café a Marco.,Afirmación,Tr78,78,,,,,,,,,,,,,0,35,35,35,,,,,,,,,1,2.71835332747,4,0.650215738538,2018_may._14_1237,59.7095931,Experimento Piloto1,001,122,
2.5,Stim\\05_078.jpg,En78_20,Enojo,20,Karen analiza la idea.,Afirmación,En78,78,,,,,,,,,,,,,0,36,36,36,,,,,,,,,1,4.82420823354,4,0.383633501971,2018_may._14_1237,59.7095931,Experimento Piloto1,001,122,
2.5,Stim\\02_078.jpg,Al78_23,Alegría,23,Óscar consigue un nuevo departamento.,Afirmación,Al78,78,,,,,,,,,,,,,0,37,37,37,,,,,,,,,1,4.61564759269,3,0.383657153108,2018_may._14_1237,59.7095931,Experimento Piloto1,001,122,
0.25,Stim\\03_078.jpg,Tr78_21,Tristeza,21,Mauro anuncia la actividad.,Afirmación,Tr78,78,,,,,,,,,,,,,0,38,38,38,,,,,,,,,1,1.95561172329,4,0.383752203907,2018_may._14_1237,59.7095931,Experimento Piloto1,001,122,
2.5,Stim\\03_075.jpg,Tr75_18,Tristeza,18,Sofía escucha la música.,Afirmación,Tr75,75,,,,,,,,,,,,,0,39,39,39,,,,,,,,,1,5.53983454021,4,0.816564899837,2018_may._14_1237,59.7095931,Experimento Piloto1,001,122,
2.5,Stim\\03_019.jpg,Tr19_19,Tristeza,19,Armando acompaña a Rodrígo a la tienda.,Afirmación,Tr19,19,,,,,,,,,,,,,0,40,40,40,,,,,,,,,1,2.1811418323,4,0.300339103765,2018_may._14_1237,59.7095931,Experimento Piloto1,001,122,
0.25,Stim\\03_019.jpg,Tr19_17,Tristeza,17,Brenda sube el autobús en las mañanas.,Afirmación,Tr19,19,,,,,,,,,,,,,0,41,41,41,,,,,,,,,1,3.06274780703,4,0.650247868385,2018_may._14_1237,59.7095931,Experimento Piloto1,001,122,
2.5,Stim\\05_078.jpg,En78_18,Enojo,18,Sofía escucha la música.,Afirmación,En78,78,,,,,,,,,,,,,0,42,42,42,,,,,,,,,1,3.69011967029,2,0.450447965935,2018_may._14_1237,59.7095931,Experimento Piloto1,001,122,
0.25,Stim\\05_019.jpg,En19_24,Enojo,24,Guadalupe comenta los resultados con los compañeros.,Afirmación,En19,19,,,,,,,,,,,,,0,43,43,43,,,,,,,,,1,5.1563880161,3,1.46664319403,2018_may._14_1237,59.7095931,Experimento Piloto1,001,122,
0.25,Stim\\02_075.jpg,Al75_20,Alegría,20,Karen analiza la idea.,Afirmación,Al75,75,,,,,,,,,,,,,0,44,44,44,,,,,,,,,1,3.07486388324,2,2.13322685859,2018_may._14_1237,59.7095931,Experimento Piloto1,001,122,
0.25,Stim\\03_075.jpg,Tr75_23,Tristeza,23,Óscar consigue un nuevo departamento.,Afirmación,Tr75,75,,,,,,,,,,,,,0,45,45,45,,,,,,,,,1,5.63218732415,2,1.61662844554,2018_may._14_1237,59.7095931,Experimento Piloto1,001,122,
0.25,Stim\\05_078.jpg,En78_16,Enojo,16,Valeria modifica algunas imágenes.,Afirmación,En78,78,,,,,,,,,,,,,0,46,46,46,,,,,,,,,1,2.66764439577,2,0.383789242481,2018_may._14_1237,59.7095931,Experimento Piloto1,001,122,
2.5,Stim\\02_019.jpg,Al19_20,Alegría,20,Karen analiza la idea.,Afirmación,Al19,19,,,,,,,,,,,,,0,47,47,47,,,,,,,,,1,2.87502783471,3,0.866753952752,2018_may._14_1237,59.7095931,Experimento Piloto1,001,122,
0.25,Stim\\03_075.jpg,Tr75_28,Tristeza,28,Antonio responde la pregunta.,Afirmación,Tr75,75,,,,,,,,,,,,,0,48,48,48,,,,,,,,,1,2.80481028441,4,0.500331785299,2018_may._14_1237,59.7095931,Experimento Piloto1,001,122,
0.25,Stim\\05_078.jpg,En78_25,Enojo,25,Luis decide la comida siguiente.,Afirmación,En78,78,,,,,,,,,,,,,0,49,49,49,,,,,,,,,1,4.9168827622,4,0.850326675761,2018_may._14_1237,59.7095931,Experimento Piloto1,001,122,
2.5,Stim\\03_019.jpg,Tr19_23,Tristeza,23,Óscar consigue un nuevo departamento.,Afirmación,Tr19,19,,,,,,,,,,,,,0,50,50,50,,,,,,,,,1,2.49917198706,3,0.916720774222,2018_may._14_1237,59.7095931,Experimento Piloto1,001,122,
2.5,Stim\\03_075.jpg,Tr75_24,Tristeza,24,Guadalupe comenta los resultados con los compañeros.,Afirmación,Tr75,75,,,,,,,,,,,,,0,51,51,51,,,,,,,,,1,6.90550924246,3,0.80017064519,2018_may._14_1237,59.7095931,Experimento Piloto1,001,122,
0.25,Stim\\02_078.jpg,Al78_20,Alegría,20,Karen analiza la idea.,Afirmación,Al78,78,,,,,,,,,,,,,0,52,52,52,,,,,,,,,1,2.4087809088,3,0.550297268026,2018_may._14_1237,59.7095931,Experimento Piloto1,001,122,
2.5,Stim\\02_078.jpg,Al78_30,Alegría,30,Marisol toma 2 litros de agua cada día.,Afirmación,Al78,78,,,,,,,,,,,,,0,53,53,53,,,,,,,,,1,3.43086036145,3,0.333592603352,2018_may._14_1237,59.7095931,Experimento Piloto1,001,122,
2.5,Stim\\03_028.jpg,Tr28_27,Tristeza,27,Claudia informa los avances en el reporte.,Afirmación,Tr28,28,,,,,,,,,,,,,0,54,54,54,,,,,,,,,1,3.42902449767,3,1.06678010288,2018_may._14_1237,59.7095931,Experimento Piloto1,001,122,
2.5,Stim\\02_075.jpg,Al75_28,Alegría,28,Antonio responde la pregunta.,Afirmación,Al75,75,,,,,,,,,,,,,0,55,55,55,,,,,,,,,1,2.87100000134,2,0.900153821644,2018_may._14_1237,59.7095931,Experimento Piloto1,001,122,
2.5,Stim\\03_078.jpg,Tr78_28,Tristeza,28,Antonio responde la pregunta.,Afirmación,Tr78,78,,,,,,,,,,,,,0,56,56,56,,,,,,,,,1,3.39934990609,3,1.26659473151,2018_may._14_1237,59.7095931,Experimento Piloto1,001,122,
0.25,Stim\\03_028.jpg,Tr28_19,Tristeza,19,Armando acompaña a Rodrígo a la tienda.,Afirmación,Tr28,28,,,,,,,,,,,,,0,57,57,57,,,,,,,,,1,7.16310404671,2,0.650225109744,2018_may._14_1237,59.7095931,Experimento Piloto1,001,122,
2.5,Stim\\05_078.jpg,En78_21,Enojo,21,Mauro anuncia la actividad.,Afirmación,En78,78,,,,,,,,,,,,,0,58,58,58,,,,,,,,,1,3.88866427746,2,0.550548951831,2018_may._14_1237,59.7095931,Experimento Piloto1,001,122,
0.25,Stim\\05_028.jpg,En28_17,Enojo,17,Brenda sube el autobús en las mañanas.,Afirmación,En28,28,,,,,,,,,,,,,0,59,59,59,,,,,,,,,1,5.73012266908,2,1.21673456328,2018_may._14_1237,59.7095931,Experimento Piloto1,001,122,
0.25,Stim\\03_075.jpg,Tr75_20,Tristeza,20,Karen analiza la idea.,Afirmación,Tr75,75,,,,,,,,,,,,,0,60,60,60,,,,,,,,,1,2.50848875031,2,3.01579048126,2018_may._14_1237,59.7095931,Experimento Piloto1,001,122,
2.5,Stim\\03_078.jpg,Tr78_21,Tristeza,21,Mauro anuncia la actividad.,Afirmación,Tr78,78,,,,,,,,,,,,,0,61,61,61,,,,,,,,,1,4.97146289427,2,2.0832105036,2018_may._14_1237,59.7095931,Experimento Piloto1,001,122,
0.25,Stim\\05_075.jpg,En75_17,Enojo,17,Brenda sube el autobús en las mañanas.,Afirmación,En75,75,,,,,,,,,,,,,0,62,62,62,,,,,,,,,1,6.13050653151,2,0.450444395952,2018_may._14_1237,59.7095931,Experimento Piloto1,001,122,
0.25,Stim\\03_019.jpg,Tr19_26,Tristeza,26,Víctor trae el café a Marco.,Afirmación,Tr19,19,,,,,,,,,,,,,0,63,63,63,,,,,,,,,1,2.55556477801,4,0.4003053228,2018_may._14_1237,59.7095931,Experimento Piloto1,001,122,
0.25,Stim\\05_019.jpg,En19_30,Enojo,30,Marisol toma 2 litros de agua cada día.,Afirmación,En19,19,,,,,,,,,,,,,0,64,64,64,,,,,,,,,1,6.03021365902,3,0.600206077272,2018_may._14_1237,59.7095931,Experimento Piloto1,001,122,
0.25,Stim\\02_019.jpg,Al19_27,Alegría,27,Claudia informa los avances en el reporte.,Afirmación,Al19,19,,,,,,,,,,,,,0,65,65,65,,,,,,,,,1,4.29509524492,3,0.900191306467,2018_may._14_1237,59.7095931,Experimento Piloto1,001,122,
0.25,Stim\\05_028.jpg,En28_23,Enojo,23,Óscar consigue un nuevo departamento.,Afirmación,En28,28,,,,,,,,,,,,,0,66,66,66,,,,,,,,,1,5.88194913934,2,0.45024269191,2018_may._14_1237,59.7095931,Experimento Piloto1,001,122,
0.25,Stim\\05_019.jpg,En19_18,Enojo,18,Sofía escucha la música.,Afirmación,En19,19,,,,,,,,,,,,,0,67,67,67,,,,,,,,,1,6.35627136691,2,1.26668755107,2018_may._14_1237,59.7095931,Experimento Piloto1,001,122,
0.25,Stim\\05_075.jpg,En75_25,Enojo,25,Luis decide la comida siguiente.,Afirmación,En75,75,,,,,,,,,,,,,0,68,68,68,,,,,,,,,1,4.29892539048,2,0.383846808458,2018_may._14_1237,59.7095931,Experimento Piloto1,001,122,
0.25,Stim\\03_078.jpg,Tr78_16,Tristeza,16,Valeria modifica algunas imágenes.,Afirmación,Tr78,78,,,,,,,,,,,,,0,69,69,69,,,,,,,,,1,5.63343637197,3,0.500402738712,2018_may._14_1237,59.7095931,Experimento Piloto1,001,122,
0.25,Stim\\05_019.jpg,En19_27,Enojo,27,Claudia informa los avances en el reporte.,Afirmación,En19,19,,,,,,,,,,,,,0,70,70,70,,,,,,,,,1,3.06126983404,2,0.600231067153,2018_may._14_1237,59.7095931,Experimento Piloto1,001,122,
0.25,Stim\\05_075.jpg,En75_30,Enojo,30,Marisol toma 2 litros de agua cada día.,Afirmación,En75,75,,,,,,,,,,,,,0,71,71,71,,,,,,,,,1,4.94703082279,3,0.350294769038,2018_may._14_1237,59.7095931,Experimento Piloto1,001,122,
2.5,Stim\\02_028.jpg,Al28_16,Alegría,16,Valeria modifica algunas imágenes.,Afirmación,Al28,28,,,,,,,,,,,,,0,72,72,72,,,,,,,,,1,1.63440294488,3,0.500355436437,2018_may._14_1237,59.7095931,Experimento Piloto1,001,122,
0.25,Stim\\05_075.jpg,En75_29,Enojo,29,Miriam mira la película.,Afirmación,En75,75,,,,,,,,,,,,,0,73,73,73,,,,,,,,,1,3.58972862328,3,0.750193560018,2018_may._14_1237,59.7095931,Experimento Piloto1,001,122,
2.5,Stim\\02_028.jpg,Al28_28,Alegría,28,Antonio responde la pregunta.,Afirmación,Al28,28,,,,,,,,,,,,,0,74,74,74,,,,,,,,,1,5.11635511871,2,0.550093332744,2018_may._14_1237,59.7095931,Experimento Piloto1,001,122,
2.5,Stim\\03_019.jpg,Tr19_28,Tristeza,28,Antonio responde la pregunta.,Afirmación,Tr19,19,,,,,,,,,,,,,0,75,75,75,,,,,,,,,1,2.31599660316,4,0.450799609265,2018_may._14_1237,59.7095931,Experimento Piloto1,001,122,
0.25,Stim\\02_028.jpg,Tr28_30,Tristeza,30,Marisol toma 2 litros de agua cada día.,Afirmación,Tr28,28,,,,,,,,,,,,,0,76,76,76,,,,,,,,,1,8.39338669565,3,0.333618039481,2018_may._14_1237,59.7095931,Experimento Piloto1,001,122,
2.5,Stim\\02_075.jpg,Al75_27,Alegría,27,Claudia informa los avances en el reporte.,Afirmación,Al75,75,,,,,,,,,,,,,0,77,77,77,,,,,,,,,1,1.89612375703,2,0.333766193778,2018_may._14_1237,59.7095931,Experimento Piloto1,001,122,
2.5,Stim\\02_075.jpg,Al75_20,Alegría,20,Karen analiza la idea.,Afirmación,Al75,75,,,,,,,,,,,,,0,78,78,78,,,,,,,,,1,4.0582152673,3,0.333854550858,2018_may._14_1237,59.7095931,Experimento Piloto1,001,122,
2.5,Stim\\05_019.jpg,En19_28,Enojo,28,Antonio responde la pregunta.,Afirmación,En19,19,,,,,,,,,,,,,0,79,79,79,,,,,,,,,1,2.98796558715,2,2.89978031217,2018_may._14_1237,59.7095931,Experimento Piloto1,001,122,
2.5,Stim\\02_078.jpg,Al78_21,Alegría,21,Mauro anuncia la actividad.,Afirmación,Al78,78,,,,,,,,,,,,,0,80,80,80,,,,,,,,,1,1.95547918767,3,1.81655999111,2018_may._14_1237,59.7095931,Experimento Piloto1,001,122,
2.5,Stim\\03_078.jpg,Tr78_19,Tristeza,19,Armando acompaña a Rodrígo a la tienda.,Afirmación,Tr78,78,,,,,,,,,,,,,0,81,81,81,,,,,,,,,1,1.84817977721,4,0.38361252832,2018_may._14_1237,59.7095931,Experimento Piloto1,001,122,
2.5,Stim\\05_075.jpg,En75_22,Enojo,22,Enrique corre todas las mañanas.,Afirmación,En75,75,,,,,,,,,,,,,0,82,82,82,,,,,,,,,1,2.81982875684,2,0.600368065252,2018_may._14_1237,59.7095931,Experimento Piloto1,001,122,
0.25,Stim\\03_019.jpg,Tr19_19,Tristeza,19,Armando acompaña a Rodrígo a la tienda.,Afirmación,Tr19,19,,,,,,,,,,,,,0,83,83,83,,,,,,,,,1,2.19755527561,4,0.450384598736,2018_may._14_1237,59.7095931,Experimento Piloto1,001,122,
2.5,Stim\\03_019.jpg,Tr19_27,Tristeza,27,Claudia informa los avances en el reporte.,Afirmación,Tr19,19,,,,,,,,,,,,,0,84,84,84,,,,,,,,,1,4.1938197346,4,0.800229996158,2018_may._14_1237,59.7095931,Experimento Piloto1,001,122,
0.25,Stim\\05_078.jpg,En78_18,Enojo,18,Sofía escucha la música.,Afirmación,En78,78,,,,,,,,,,,,,0,85,85,85,,,,,,,,,1,2.70795218186,3,1.58327721766,2018_may._14_1237,59.7095931,Experimento Piloto1,001,122,
2.5,Stim\\05_019.jpg,En19_25,Enojo,25,Luis decide la comida siguiente.,Afirmación,En19,19,,,,,,,,,,,,,0,86,86,86,,,,,,,,,1,5.63445738712,2,1.61676365864,2018_may._14_1237,59.7095931,Experimento Piloto1,001,122,
0.25,Stim\\05_028.jpg,En28_16,Enojo,16,Valeria modifica algunas imágenes.,Afirmación,En28,28,,,,,,,,,,,,,0,87,87,87,,,,,,,,,1,4.25016656202,2,0.333927735511,2018_may._14_1237,59.7095931,Experimento Piloto1,001,122,
2.5,Stim\\02_028.jpg,Al28_22,Alegría,22,Enrique corre todas las mañanas.,Afirmación,Al28,28,,,,,,,,,,,,,0,88,88,88,,,,,,,,,1,3.75083615697,2,0.283880589422,2018_may._14_1237,59.7095931,Experimento Piloto1,001,122,
0.25,Stim\\03_078.jpg,Tr78_17,Tristeza,17,Brenda sube el autobús en las mañanas.,Afirmación,Tr78,78,,,,,,,,,,,,,0,89,89,89,,,,,,,,,1,7.47501168054,3,0.600336827901,2018_may._14_1237,59.7095931,Experimento Piloto1,001,122,
2.5,Stim\\02_028.jpg,Al28_25,Alegría,25,Luis decide la comida siguiente.,Afirmación,Al28,28,,,,,,,,,,,,,0,90,90,90,,,,,,,,,1,0.352770552281,3,5.88197636046,2018_may._14_1237,59.7095931,Experimento Piloto1,001,122,
0.25,Stim\\03_028.jpg,Tr28_18,Tristeza,18,Sofía escucha la música.,Afirmación,Tr28,28,,,,,,,,,,,,,0,91,91,91,,,,,,,,,1,4.60665971412,2,0.80037904295,2018_may._14_1237,59.7095931,Experimento Piloto1,001,122,
2.5,Stim\\03_075.jpg,Tr75_26,Tristeza,26,Víctor trae el café a Marco.,Afirmación,Tr75,75,,,,,,,,,,,,,0,92,92,92,,,,,,,,,1,5.23343851396,3,0.950006403657,2018_may._14_1237,59.7095931,Experimento Piloto1,001,122,
0.25,Stim\\02_019.jpg,Al19_19,Alegría,19,Armando acompaña a Rodrígo a la tienda.,Afirmación,Al19,19,,,,,,,,,,,,,0,93,93,93,,,,,,,,,1,3.16430222227,3,1.41672769106,2018_may._14_1237,59.7095931,Experimento Piloto1,001,122,
0.25,Stim\\02_028.jpg,Al28_24,Alegría,24,Guadalupe comenta los resultados con los compañeros.,Afirmación,Al28,28,,,,,,,,,,,,,0,94,94,94,,,,,,,,,1,3.93896980107,3,0.483817043724,2018_may._14_1237,59.7095931,Experimento Piloto1,001,122,
0.25,Stim\\05_078.jpg,En78_20,Enojo,20,Karen analiza la idea.,Afirmación,En78,78,,,,,,,,,,,,,0,95,95,95,,,,,,,,,1,3.02552582503,4,0.650263487061,2018_may._14_1237,59.7095931,Experimento Piloto1,001,122,
2.5,Stim\\02_019.jpg,Al19_17,Alegría,17,Brenda sube el autobús en las mañanas.,Afirmación,Al19,19,,,,,,,,,,,,,0,96,96,96,,,,,,,,,1,0.715049754408,3,0.850155762823,2018_may._14_1237,59.7095931,Experimento Piloto1,001,122,
0.25,Stim\\03_019.jpg,Tr19_18,Tristeza,18,Sofía escucha la música.,Afirmación,Tr19,19,,,,,,,,,,,,,0,97,97,97,,,,,,,,,1,5.07270939847,3,0.75039124783,2018_may._14_1237,59.7095931,Experimento Piloto1,001,122,
0.25,Stim\\02_075.jpg,Al75_26,Alegría,26,Víctor trae el café a Marco.,Afirmación,Al75,75,,,,,,,,,,,,,0,98,98,98,,,,,,,,,1,4.25423232646,3,0.450335511469,2018_may._14_1237,59.7095931,Experimento Piloto1,001,122,
2.5,Stim\\02_075.jpg,Al75_18,Alegría,18,Sofía escucha la música.,Afirmación,Al75,75,,,,,,,,,,,,,0,99,99,99,,,,,,,,,1,4.30626750686,3,0.550377592644,2018_may._14_1237,59.7095931,Experimento Piloto1,001,122,
2.5,Stim\\05_019.jpg,En19_24,Enojo,24,Guadalupe comenta los resultados con los compañeros.,Afirmación,En19,19,,,,,,,,,,,,,0,100,100,100,,,,,,,,,1,0.956737606692,2,0.500259493143,2018_may._14_1237,59.7095931,Experimento Piloto1,001,122,
2.5,Stim\\03_019.jpg,Tr19_30,Tristeza,30,Marisol toma 2 litros de agua cada día.,Afirmación,Tr19,19,,,,,,,,,,,,,0,101,101,101,,,,,,,,,1,3.36477908276,4,0.300178454527,2018_may._14_1237,59.7095931,Experimento Piloto1,001,122,
2.5,Stim\\05_075.jpg,En75_17,Enojo,17,Brenda sube el autobús en las mañanas.,Afirmación,En75,75,,,,,,,,,,,,,0,102,102,102,,,,,,,,,1,1.11527029011,2,1.58323259287,2018_may._14_1237,59.7095931,Experimento Piloto1,001,122,
0.25,Stim\\02_019.jpg,Al19_29,Alegría,29,Miriam mira la película.,Afirmación,Al19,19,,,,,,,,,,,,,0,103,103,103,,,,,,,,,1,2.3879647839,3,0.450496160706,2018_may._14_1237,59.7095931,Experimento Piloto1,001,122,
0.25,Stim\\05_078.jpg,En78_22,Enojo,22,Enrique corre todas las mañanas.,Afirmación,En78,78,,,,,,,,,,,,,0,104,104,104,,,,,,,,,1,7.11799552592,3,0.30037792733,2018_may._14_1237,59.7095931,Experimento Piloto1,001,122,
0.25,Stim\\03_028.jpg,Tr28_21,Tristeza,21,Mauro anuncia la actividad.,Afirmación,Tr28,28,,,,,,,,,,,,,0,105,105,105,,,,,,,,,1,5.17172689451,4,0.550090209009,2018_may._14_1237,59.7095931,Experimento Piloto1,001,122,
2.5,Stim\\05_028.jpg,En28_19,Enojo,19,Armando acompaña a Rodrígo a la tienda.,Afirmación,En28,28,,,,,,,,,,,,,0,106,106,106,,,,,,,,,1,2.95031386845,2,1.36669259367,2018_may._14_1237,59.7095931,Experimento Piloto1,001,122,
2.5,Stim\\03_019.jpg,Tr19_29,Tristeza,29,Miriam mira la película.,Afirmación,Tr19,19,,,,,,,,,,,,,0,107,107,107,,,,,,,,,1,0.823877117614,4,0.800142977821,2018_may._14_1237,59.7095931,Experimento Piloto1,001,122,
2.5,Stim\\05_078.jpg,En78_17,Enojo,17,Brenda sube el autobús en las mañanas.,Afirmación,En78,78,,,,,,,,,,,,,0,108,108,108,,,,,,,,,1,4.61323160667,4,0.649854724002,2018_may._14_1237,59.7095931,Experimento Piloto1,001,122,
2.5,Stim\\02_028.jpg,Al28_21,Alegría,21,Mauro anuncia la actividad.,Afirmación,Al28,28,,,,,,,,,,,,,0,109,109,109,,,,,,,,,1,3.42172477483,4,0.600359140295,2018_may._14_1237,59.7095931,Experimento Piloto1,001,122,
0.25,Stim\\02_075.jpg,Al75_27,Alegría,27,Claudia informa los avances en el reporte.,Afirmación,Al75,75,,,,,,,,,,,,,0,110,110,110,,,,,,,,,1,3.47809123716,2,0.900308223411,2018_may._14_1237,59.7095931,Experimento Piloto1,001,122,
0.25,Stim\\02_019.jpg,Al19_28,Alegría,28,Antonio responde la pregunta.,Afirmación,Al19,19,,,,,,,,,,,,,0,111,111,111,,,,,,,,,1,2.55415106472,3,1.41693965881,2018_may._14_1237,59.7095931,Experimento Piloto1,001,122,
2.5,Stim\\05_019.jpg,En19_20,Enojo,20,Karen analiza la idea.,Afirmación,En19,19,,,,,,,,,,,,,0,112,112,112,,,,,,,,,1,2.05858386805,2,0.550278971863,2018_may._14_1237,59.7095931,Experimento Piloto1,001,122,
2.5,Stim\\03_078.jpg,Tr78_22,Tristeza,22,Enrique corre todas las mañanas.,Afirmación,Tr78,78,,,,,,,,,,,,,0,113,113,113,,,,,,,,,1,1.63677653736,4,0.350294769038,2018_may._14_1237,59.7095931,Experimento Piloto1,001,122,
2.5,Stim\\05_028.jpg,En28_18,Enojo,18,Sofía escucha la música.,Afirmación,En28,28,,,,,,,,,,,,,0,114,114,114,,,,,,,,,1,4.05617814572,4,2.64928218797,2018_may._14_1237,59.7095931,Experimento Piloto1,001,122,
0.25,Stim\\03_075.jpg,Tr75_29,Tristeza,29,Miriam mira la película.,Afirmación,Tr75,75,,,,,,,,,,,,,0,115,115,115,,,,,,,,,1,3.1222741506,4,0.583695798175,2018_may._14_1237,59.7095931,Experimento Piloto1,001,122,
0.25,Stim\\03_078.jpg,Tr78_24,Tristeza,24,Guadalupe comenta los resultados con los compañeros.,Afirmación,Tr78,78,,,,,,,,,,,,,0,116,116,116,,,,,,,,,1,5.00595428547,4,1.16676908056,2018_may._14_1237,59.7095931,Experimento Piloto1,001,122,
2.5,Stim\\05_075.jpg,En75_23,Enojo,23,Óscar consigue un nuevo departamento.,Afirmación,En75,75,,,,,,,,,,,,,0,117,117,117,,,,,,,,,1,1.9990726969,4,0.433823001133,2018_may._14_1237,59.7095931,Experimento Piloto1,001,122,
2.5,Stim\\03_019.jpg,Tr19_21,Tristeza,21,Mauro anuncia la actividad.,Afirmación,Tr19,19,,,,,,,,,,,,,0,118,118,118,,,,,,,,,1,2.77293792201,2,0.450308736597,2018_may._14_1237,59.7095931,Experimento Piloto1,001,122,
0.25,Stim\\03_078.jpg,Tr78_29,Tristeza,29,Miriam mira la película.,Afirmación,Tr78,78,,,,,,,,,,,,,0,119,119,119,,,,,,,,,1,5.42315678428,4,1.06690505228,2018_may._14_1237,59.7095931,Experimento Piloto1,001,122,
