Tiempo,ImagenesE,ClaveEn,Emocion,NumEn,Enunciado,ActoHabla,Clave,Cara,trials.thisRepN,trials.thisTrialN,trials.thisN,trials.thisIndex,Bloque2.thisRepN,Bloque2.thisTrialN,Bloque2.thisN,Bloque2.thisIndex,Bloque3.thisRepN,Bloque3.thisTrialN,Bloque3.thisN,Bloque3.thisIndex,Bloque1.thisRepN,Bloque1.thisTrialN,Bloque1.thisN,Bloque1.thisIndex,Sig_B2.keys,Sig_B2.rt,Resp_Bloque2.keys,Resp_Bloque2.rt,Sig_B3.keys,Sig_B3.rt,Resp_Bloque3.keys,Resp_Bloque3.rt,Sig_B1.keys,Sig_B1.rt,Resp_Bloque1.keys,Resp_Bloque1.rt,date,frameRate,expName,session,participant,
2.5,Stim\\02_078.jpg,Al78_17,Alegría,17,Brenda sube el autobús en las mañanas.,Afirmación,Al78,78,,,,,0,0,0,0,,,,,,,,,1,2.02836618014,3,1.06676088443,,,,,,,,,2018_may._18_1050,60.0489844043,Experimento Piloto1,001,123,
2.5,Stim\\05_019.jpg,En19_23,Enojo,23,Óscar consigue un nuevo departamento.,Afirmación,En19,19,,,,,0,1,1,1,,,,,,,,,1,1.31517670516,2,1.6331955618,,,,,,,,,2018_may._18_1050,60.0489844043,Experimento Piloto1,001,123,
0.25,Stim\\02_075.jpg,Al75_17,Alegría,17,Brenda sube el autobús en las mañanas.,Afirmación,Al75,75,,,,,0,2,2,2,,,,,,,,,1,1.93195124476,3,1.16672572011,,,,,,,,,2018_may._18_1050,60.0489844043,Experimento Piloto1,001,123,
2.5,Stim\\02_075.jpg,Al75_24,Alegría,24,Guadalupe comenta los resultados con los compañeros.,Afirmación,Al75,75,,,,,0,3,3,3,,,,,,,,,1,1.47465536292,4,1.51660978496,,,,,,,,,2018_may._18_1050,60.0489844043,Experimento Piloto1,001,123,
0.25,Stim\\05_075.jpg,En75_19,Enojo,19,Armando acompaña a Rodrígo a la tienda.,Afirmación,En75,75,,,,,0,4,4,4,,,,,,,,,1,4.14774368247,2,1.66660478699,,,,,,,,,2018_may._18_1050,60.0489844043,Experimento Piloto1,001,123,
2.5,Stim\\02_019.jpg,Al19_29,Alegría,29,Miriam mira la película.,Afirmación,Al19,19,,,,,0,5,5,5,,,,,,,,,1,1.48705123102,3,1.56664486003,,,,,,,,,2018_may._18_1050,60.0489844043,Experimento Piloto1,001,123,
2.5,Stim\\02_078.jpg,Al78_24,Alegría,24,Guadalupe comenta los resultados con los compañeros.,Afirmación,Al78,78,,,,,0,6,6,6,,,,,,,,,1,2.55762485564,3,1.36662549288,,,,,,,,,2018_may._18_1050,60.0489844043,Experimento Piloto1,001,123,
0.25,Stim\\05_028.jpg,En28_20,Enojo,20,Karen analiza la idea.,Afirmación,En28,28,,,,,0,7,7,7,,,,,,,,,1,1.27356857131,2,1.93329534278,,,,,,,,,2018_may._18_1050,60.0489844043,Experimento Piloto1,001,123,
0.25,Stim\\03_078.jpg,Tr78_27,Tristeza,27,Claudia informa los avances en el reporte.,Afirmación,Tr78,78,,,,,0,8,8,8,,,,,,,,,1,3.06099982686,2,1.51678783779,,,,,,,,,2018_may._18_1050,60.0489844043,Experimento Piloto1,001,123,
0.25,Stim\\02_019.jpg,Al19_30,Alegría,30,Marisol toma 2 litros de agua cada día.,Afirmación,Al19,19,,,,,0,9,9,9,,,,,,,,,1,2.0491631071,3,1.31673767955,,,,,,,,,2018_may._18_1050,60.0489844043,Experimento Piloto1,001,123,
2.5,Stim\\02_019.jpg,Al19_19,Alegría,19,Armando acompaña a Rodrígo a la tienda.,Afirmación,Al19,19,,,,,0,10,10,10,,,,,,,,,1,1.26513359763,3,0.816855935183,,,,,,,,,2018_may._18_1050,60.0489844043,Experimento Piloto1,001,123,
0.25,Stim\\02_028.jpg,Al28_30,Alegría,30,Marisol toma 2 litros de agua cada día.,Afirmación,Al28,28,,,,,0,11,11,11,,,,,,,,,1,1.51514430758,3,1.01670528197,,,,,,,,,2018_may._18_1050,60.0489844043,Experimento Piloto1,001,123,
2.5,Stim\\02_019.jpg,Al19_16,Alegría,16,Valeria modifica algunas imágenes.,Afirmación,Al19,19,,,,,0,12,12,12,,,,,,,,,1,1.58031967399,3,0.800119862127,,,,,,,,,2018_may._18_1050,60.0489844043,Experimento Piloto1,001,123,
2.5,Stim\\03_075.jpg,Tr75_30,Tristeza,30,Marisol toma 2 litros de agua cada día.,Afirmación,Tr75,75,,,,,0,13,13,13,,,,,,,,,1,0.966161038294,4,0.866677703859,,,,,,,,,2018_may._18_1050,60.0489844043,Experimento Piloto1,001,123,
2.5,Stim\\02_078.jpg,Al78_19,Alegría,19,Armando acompaña a Rodrígo a la tienda.,Afirmación,Al78,78,,,,,0,14,14,14,,,,,,,,,1,2.86444423421,3,0.850193314496,,,,,,,,,2018_may._18_1050,60.0489844043,Experimento Piloto1,001,123,
2.5,Stim\\05_075.jpg,En75_25,Enojo,25,Luis decide la comida siguiente.,Afirmación,En75,75,,,,,0,15,15,15,,,,,,,,,1,2.76612962246,2,0.700251862192,,,,,,,,,2018_may._18_1050,60.0489844043,Experimento Piloto1,001,123,
0.25,Stim\\03_075.jpg,Tr75_24,Tristeza,24,Guadalupe comenta los resultados con los compañeros.,Afirmación,Tr75,75,,,,,0,16,16,16,,,,,,,,,1,1.30815946036,4,1.16686762687,,,,,,,,,2018_may._18_1050,60.0489844043,Experimento Piloto1,001,123,
2.5,Stim\\05_078.jpg,En78_25,Enojo,25,Luis decide la comida siguiente.,Afirmación,En78,78,,,,,0,17,17,17,,,,,,,,,1,2.10172126656,2,0.650239099508,,,,,,,,,2018_may._18_1050,60.0489844043,Experimento Piloto1,001,123,
2.5,Stim\\05_028.jpg,En28_17,Enojo,17,Brenda sube el autobús en las mañanas.,Afirmación,En28,28,,,,,0,18,18,18,,,,,,,,,1,1.68241891233,2,0.90020786217,,,,,,,,,2018_may._18_1050,60.0489844043,Experimento Piloto1,001,123,
0.25,Stim\\02_078.jpg,Al78_26,Alegría,26,Víctor trae el café a Marco.,Afirmación,Al78,78,,,,,0,19,19,19,,,,,,,,,1,2.71993986366,3,0.549992681538,,,,,,,,,2018_may._18_1050,60.0489844043,Experimento Piloto1,001,123,
2.5,Stim\\03_075.jpg,Tr75_20,Tristeza,20,Karen analiza la idea.,Afirmación,Tr75,75,,,,,0,20,20,20,,,,,,,,,1,1.22638055645,2,1.46650732649,,,,,,,,,2018_may._18_1050,60.0489844043,Experimento Piloto1,001,123,
2.5,Stim\\05_028.jpg,En28_21,Enojo,21,Mauro anuncia la actividad.,Afirmación,En28,28,,,,,0,21,21,21,,,,,,,,,1,2.87195815268,2,1.11679640574,,,,,,,,,2018_may._18_1050,60.0489844043,Experimento Piloto1,001,123,
0.25,Stim\\05_019.jpg,En19_21,Enojo,21,Mauro anuncia la actividad.,Afirmación,En19,19,,,,,0,22,22,22,,,,,,,,,1,2.36643717636,2,0.750237850014,,,,,,,,,2018_may._18_1050,60.0489844043,Experimento Piloto1,001,123,
0.25,Stim\\03_028.jpg,Tr28_16,Tristeza,16,Valeria modifica algunas imágenes.,Afirmación,Tr28,28,,,,,0,23,23,23,,,,,,,,,1,1.63454367605,4,0.483836016472,,,,,,,,,2018_may._18_1050,60.0489844043,Experimento Piloto1,001,123,
0.25,Stim\\05_075.jpg,En75_27,Enojo,27,Claudia informa los avances en el reporte.,Afirmación,En75,75,,,,,0,24,24,24,,,,,,,,,1,6.39508003006,4,1.43298743188,,,,,,,,,2018_may._18_1050,60.0489844043,Experimento Piloto1,001,123,
2.5,Stim\\02_078.jpg,Al78_18,Alegría,18,Sofía escucha la música.,Afirmación,Al78,78,,,,,0,25,25,25,,,,,,,,,1,1.070693219,3,0.550309071145,,,,,,,,,2018_may._18_1050,60.0489844043,Experimento Piloto1,001,123,
2.5,Stim\\03_028.jpg,Tr28_25,Tristeza,25,Luis decide la comida siguiente.,Afirmación,Tr28,28,,,,,0,26,26,26,,,,,,,,,1,3.73421889698,4,0.500455618883,,,,,,,,,2018_may._18_1050,60.0489844043,Experimento Piloto1,001,123,
0.25,Stim\\03_075.jpg,Tr75_18,Tristeza,18,Sofía escucha la música.,Afirmación,Tr75,75,,,,,0,27,27,27,,,,,,,,,1,1.37449194701,2,1.41673330632,,,,,,,,,2018_may._18_1050,60.0489844043,Experimento Piloto1,001,123,
2.5,Stim\\02_028.jpg,Al28_27,Alegría,27,Claudia informa los avances en el reporte.,Afirmación,Al28,28,,,,,0,28,28,28,,,,,,,,,1,3.02898601817,3,1.20020545243,,,,,,,,,2018_may._18_1050,60.0489844043,Experimento Piloto1,001,123,
2.5,Stim\\02_028.jpg,Al28_20,Alegría,20,Karen analiza la idea.,Afirmación,Al28,28,,,,,0,29,29,29,,,,,,,,,1,0.826662674237,3,0.550191261756,,,,,,,,,2018_may._18_1050,60.0489844043,Experimento Piloto1,001,123,
0.25,Stim\\05_078.jpg,En78_29,Enojo,29,Miriam mira la película.,Afirmación,En78,78,,,,,0,30,30,30,,,,,,,,,1,1.44082934239,2,0.750321298331,,,,,,,,,2018_may._18_1050,60.0489844043,Experimento Piloto1,001,123,
0.25,Stim\\05_019.jpg,En19_22,Enojo,22,Enrique corre todas las mañanas.,Afirmación,En19,19,,,,,0,31,31,31,,,,,,,,,1,1.51953940099,2,0.766678953353,,,,,,,,,2018_may._18_1050,60.0489844043,Experimento Piloto1,001,123,
2.5,Stim\\03_019.jpg,Tr19_20,Tristeza,20,Karen analiza la idea.,Afirmación,Tr19,19,,,,,0,32,32,32,,,,,,,,,1,1.42336186938,3,3.68262017004,,,,,,,,,2018_may._18_1050,60.0489844043,Experimento Piloto1,001,123,
2.5,Stim\\05_078.jpg,En78_22,Enojo,22,Enrique corre todas las mañanas.,Afirmación,En78,78,,,,,0,33,33,33,,,,,,,,,1,1.83641764856,2,0.550272032587,,,,,,,,,2018_may._18_1050,60.0489844043,Experimento Piloto1,001,123,
2.5,Stim\\02_078.jpg,Al78_16,Alegría,16,Valeria modifica algunas imágenes.,Afirmación,Al78,78,,,,,0,34,34,34,,,,,,,,,1,1.43338905479,3,0.650277476808,,,,,,,,,2018_may._18_1050,60.0489844043,Experimento Piloto1,001,123,
2.5,Stim\\05_028.jpg,En28_24,Enojo,24,Guadalupe comenta los resultados con los compañeros.,Afirmación,En28,28,,,,,0,35,35,35,,,,,,,,,1,2.3400960682,2,1.21676704265,,,,,,,,,2018_may._18_1050,60.0489844043,Experimento Piloto1,001,123,
2.5,Stim\\02_075.jpg,Al75_16,Alegría,16,Valeria modifica algunas imágenes.,Afirmación,Al75,75,,,,,0,36,36,36,,,,,,,,,1,2.51654418655,4,2.99953277868,,,,,,,,,2018_may._18_1050,60.0489844043,Experimento Piloto1,001,123,
0.25,Stim\\02_019.jpg,Al19_18,Alegría,18,Sofía escucha la música.,Afirmación,Al19,19,,,,,0,37,37,37,,,,,,,,,1,1.49113305856,3,0.433780860259,,,,,,,,,2018_may._18_1050,60.0489844043,Experimento Piloto1,001,123,
2.5,Stim\\02_028.jpg,Al28_26,Alegría,26,Víctor trae el café a Marco.,Afirmación,Al28,28,,,,,0,38,38,38,,,,,,,,,1,1.38294120062,3,1.26673785805,,,,,,,,,2018_may._18_1050,60.0489844043,Experimento Piloto1,001,123,
2.5,Stim\\02_078.jpg,Al78_29,Alegría,29,Miriam mira la película.,Afirmación,Al78,78,,,,,0,39,39,39,,,,,,,,,1,2.5077566772,3,0.76691814211,,,,,,,,,2018_may._18_1050,60.0489844043,Experimento Piloto1,001,123,
0.25,Stim\\05_078.jpg,En78_24,Enojo,24,Guadalupe comenta los resultados con los compañeros.,Afirmación,En78,78,,,,,0,40,40,40,,,,,,,,,1,0.990837196351,2,0.816847902725,,,,,,,,,2018_may._18_1050,60.0489844043,Experimento Piloto1,001,123,
0.25,Stim\\03_075.jpg,Tr75_19,Tristeza,19,Armando acompaña a Rodrígo a la tienda.,Afirmación,Tr75,75,,,,,0,41,41,41,,,,,,,,,1,1.36275117051,4,1.01682487634,,,,,,,,,2018_may._18_1050,60.0489844043,Experimento Piloto1,001,123,
0.25,Stim\\02_028.jpg,Al28_17,Alegría,17,Brenda sube el autobús en las mañanas.,Afirmación,Al28,28,,,,,0,42,42,42,,,,,,,,,1,1.73130043714,3,0.333626369311,,,,,,,,,2018_may._18_1050,60.0489844043,Experimento Piloto1,001,123,
2.5,Stim\\05_075.jpg,En75_21,Enojo,21,Mauro anuncia la actividad.,Afirmación,En75,75,,,,,0,43,43,43,,,,,,,,,1,1.78980083073,2,0.550215805379,,,,,,,,,2018_may._18_1050,60.0489844043,Experimento Piloto1,001,123,
0.25,Stim\\03_019.jpg,Tr19_27,Tristeza,27,Claudia informa los avances en el reporte.,Afirmación,Tr19,19,,,,,0,44,44,44,,,,,,,,,1,4.29563864291,2,2.18308471387,,,,,,,,,2018_may._18_1050,60.0489844043,Experimento Piloto1,001,123,
2.5,Stim\\02_075.jpg,Al75_19,Alegría,19,Armando acompaña a Rodrígo a la tienda.,Afirmación,Al75,75,,,,,0,45,45,45,,,,,,,,,1,1.17674487306,3,0.950183586296,,,,,,,,,2018_may._18_1050,60.0489844043,Experimento Piloto1,001,123,
2.5,Stim\\03_019.jpg,Tr19_22,Tristeza,22,Enrique corre todas las mañanas.,Afirmación,Tr19,19,,,,,0,46,46,46,,,,,,,,,1,1.08667513347,4,3.24944308289,,,,,,,,,2018_may._18_1050,60.0489844043,Experimento Piloto1,001,123,
2.5,Stim\\02_075.jpg,Al75_23,Alegría,23,Óscar consigue un nuevo departamento.,Afirmación,Al75,75,,,,,0,47,47,47,,,,,,,,,1,1.64946307479,3,0.599634612398,,,,,,,,,2018_may._18_1050,60.0489844043,Experimento Piloto1,001,123,
2.5,Stim\\02_019.jpg,Al19_27,Alegría,27,Claudia informa los avances en el reporte.,Afirmación,Al19,19,,,,,0,48,48,48,,,,,,,,,1,2.24670579961,3,1.31671670591,,,,,,,,,2018_may._18_1050,60.0489844043,Experimento Piloto1,001,123,
2.5,Stim\\03_028.jpg,Tr28_16,Tristeza,16,Valeria modifica algunas imágenes.,Afirmación,Tr28,28,,,,,0,49,49,49,,,,,,,,,1,0.867875432637,4,1.36672366737,,,,,,,,,2018_may._18_1050,60.0489844043,Experimento Piloto1,001,123,
2.5,Stim\\02_078.jpg,Al78_20,Alegría,20,Karen analiza la idea.,Afirmación,Al78,78,,,,,0,50,50,50,,,,,,,,,1,0.976311388062,3,0.950162612655,,,,,,,,,2018_may._18_1050,60.0489844043,Experimento Piloto1,001,123,
2.5,Stim\\05_075.jpg,En75_24,Enojo,24,Guadalupe comenta los resultados con los compañeros.,Afirmación,En75,75,,,,,0,51,51,51,,,,,,,,,1,3.62330671317,2,1.11664468153,,,,,,,,,2018_may._18_1050,60.0489844043,Experimento Piloto1,001,123,
0.25,Stim\\03_028.jpg,Tr28_26,Tristeza,26,Víctor trae el café a Marco.,Afirmación,Tr28,28,,,,,0,52,52,52,,,,,,,,,1,0.870194581839,4,0.900173501099,,,,,,,,,2018_may._18_1050,60.0489844043,Experimento Piloto1,001,123,
2.5,Stim\\03_028.jpg,Tr28_21,Tristeza,21,Mauro anuncia la actividad.,Afirmación,Tr28,28,,,,,0,53,53,53,,,,,,,,,1,0.823026201879,4,0.700218839863,,,,,,,,,2018_may._18_1050,60.0489844043,Experimento Piloto1,001,123,
2.5,Stim\\02_075.jpg,Al75_29,Alegría,29,Miriam mira la película.,Afirmación,Al75,75,,,,,0,54,54,54,,,,,,,,,1,1.02427007267,3,0.500645720395,,,,,,,,,2018_may._18_1050,60.0489844043,Experimento Piloto1,001,123,
0.25,Stim\\03_078.jpg,Tr78_26,Tristeza,26,Víctor trae el café a Marco.,Afirmación,Tr78,78,,,,,0,55,55,55,,,,,,,,,1,0.860113846709,4,0.600266052867,,,,,,,,,2018_may._18_1050,60.0489844043,Experimento Piloto1,001,123,
0.25,Stim\\05_019.jpg,En19_19,Enojo,19,Armando acompaña a Rodrígo a la tienda.,Afirmación,En19,19,,,,,0,56,56,56,,,,,,,,,1,0.948292834868,2,0.600333882516,,,,,,,,,2018_may._18_1050,60.0489844043,Experimento Piloto1,001,123,
0.25,Stim\\03_078.jpg,Tr78_19,Tristeza,19,Armando acompaña a Rodrígo a la tienda.,Afirmación,Tr78,78,,,,,0,57,57,57,,,,,,,,,1,2.26638710737,4,0.85024641797,,,,,,,,,2018_may._18_1050,60.0489844043,Experimento Piloto1,001,123,
2.5,Stim\\03_078.jpg,Tr78_18,Tristeza,18,Sofía escucha la música.,Afirmación,Tr78,78,,,,,0,58,58,58,,,,,,,,,1,0.975074389489,4,0.400624657505,,,,,,,,,2018_may._18_1050,60.0489844043,Experimento Piloto1,001,123,
2.5,Stim\\05_075.jpg,En75_26,Enojo,26,Víctor trae el café a Marco.,Afirmación,En75,75,,,,,0,59,59,59,,,,,,,,,1,0.913332452738,2,0.550327367299,,,,,,,,,2018_may._18_1050,60.0489844043,Experimento Piloto1,001,123,
2.5,Stim\\02_075.jpg,Al75_30,Alegría,30,Marisol toma 2 litros de agua cada día.,Afirmación,Al75,75,,,,,0,60,60,60,,,,,,,,,1,1.16554004002,3,0.400308714146,,,,,,,,,2018_may._18_1050,60.0489844043,Experimento Piloto1,001,123,
2.5,Stim\\03_019.jpg,Tr19_18,Tristeza,18,Sofía escucha la música.,Afirmación,Tr19,19,,,,,0,61,61,61,,,,,,,,,1,0.975088669414,2,1.58330640972,,,,,,,,,2018_may._18_1050,60.0489844043,Experimento Piloto1,001,123,
0.25,Stim\\03_078.jpg,Tr78_23,Tristeza,23,Óscar consigue un nuevo departamento.,Afirmación,Tr78,78,,,,,0,62,62,62,,,,,,,,,1,0.896637434469,4,0.916901095449,,,,,,,,,2018_may._18_1050,60.0489844043,Experimento Piloto1,001,123,
2.5,Stim\\03_019.jpg,Tr19_25,Tristeza,25,Luis decide la comida siguiente.,Afirmación,Tr19,19,,,,,0,63,63,63,,,,,,,,,1,1.83222916782,2,4.349037533,,,,,,,,,2018_may._18_1050,60.0489844043,Experimento Piloto1,001,123,
0.25,Stim\\02_028.jpg,Al28_29,Alegría,29,Miriam mira la película.,Afirmación,Al28,28,,,,,0,64,64,64,,,,,,,,,1,1.17518300617,3,0.433570677601,,,,,,,,,2018_may._18_1050,60.0489844043,Experimento Piloto1,001,123,
2.5,Stim\\02_019.jpg,Al19_21,Alegría,21,Mauro anuncia la actividad.,Afirmación,Al19,19,,,,,0,65,65,65,,,,,,,,,1,0.873539654461,3,0.450330401784,,,,,,,,,2018_may._18_1050,60.0489844043,Experimento Piloto1,001,123,
2.5,Stim\\02_078.jpg,Al78_25,Alegría,25,Luis decide la comida siguiente.,Afirmación,Al78,78,,,,,0,66,66,66,,,,,,,,,1,1.33464426027,3,0.55021937536,,,,,,,,,2018_may._18_1050,60.0489844043,Experimento Piloto1,001,123,
2.5,Stim\\05_075.jpg,En75_29,Enojo,29,Miriam mira la película.,Afirmación,En75,75,,,,,0,67,67,67,,,,,,,,,1,0.70750918824,2,0.650353785162,,,,,,,,,2018_may._18_1050,60.0489844043,Experimento Piloto1,001,123,
0.25,Stim\\03_028.jpg,Tr28_20,Tristeza,20,Karen analiza la idea.,Afirmación,Tr28,28,,,,,0,68,68,68,,,,,,,,,1,0.775608369465,4,0.550274263825,,,,,,,,,2018_may._18_1050,60.0489844043,Experimento Piloto1,001,123,
2.5,Stim\\02_075.jpg,Al75_26,Alegría,26,Víctor trae el café a Marco.,Afirmación,Al75,75,,,,,0,69,69,69,,,,,,,,,1,1.21743195169,3,0.750206612677,,,,,,,,,2018_may._18_1050,60.0489844043,Experimento Piloto1,001,123,
0.25,Stim\\05_019.jpg,En19_20,Enojo,20,Karen analiza la idea.,Afirmación,En19,19,,,,,0,70,70,70,,,,,,,,,1,0.675373553934,2,0.800133695805,,,,,,,,,2018_may._18_1050,60.0489844043,Experimento Piloto1,001,123,
0.25,Stim\\05_028.jpg,En28_22,Enojo,22,Enrique corre todas las mañanas.,Afirmación,En28,28,,,,,0,71,71,71,,,,,,,,,1,0.969581973021,2,0.549861038472,,,,,,,,,2018_may._18_1050,60.0489844043,Experimento Piloto1,001,123,
2.5,Stim\\05_028.jpg,En28_22,Enojo,22,Enrique corre todas las mañanas.,Afirmación,En28,28,,,,,0,72,72,72,,,,,,,,,1,0.766948040705,2,0.450294255721,,,,,,,,,2018_may._18_1050,60.0489844043,Experimento Piloto1,001,123,
0.25,Stim\\05_019.jpg,En19_17,Enojo,17,Brenda sube el autobús en las mañanas.,Afirmación,En19,19,,,,,0,73,73,73,,,,,,,,,1,1.83211180468,2,0.50034271822,,,,,,,,,2018_may._18_1050,60.0489844043,Experimento Piloto1,001,123,
2.5,Stim\\05_078.jpg,En78_26,Enojo,26,Víctor trae el café a Marco.,Afirmación,En78,78,,,,,0,74,74,74,,,,,,,,,1,0.666856470681,2,0.483779343016,,,,,,,,,2018_may._18_1050,60.0489844043,Experimento Piloto1,001,123,
2.5,Stim\\03_078.jpg,Tr78_29,Tristeza,29,Miriam mira la película.,Afirmación,Tr78,78,,,,,0,75,75,75,,,,,,,,,1,0.924174486413,4,0.400318531596,,,,,,,,,2018_may._18_1050,60.0489844043,Experimento Piloto1,001,123,
0.25,Stim\\02_075.jpg,Al75_22,Alegría,22,Enrique corre todas las mañanas.,Afirmación,Al75,75,,,,,0,76,76,76,,,,,,,,,1,0.917061744614,3,0.333704908903,,,,,,,,,2018_may._18_1050,60.0489844043,Experimento Piloto1,001,123,
2.5,Stim\\02_019.jpg,Al19_23,Alegría,23,Óscar consigue un nuevo departamento.,Afirmación,Al19,19,,,,,0,77,77,77,,,,,,,,,1,0.916151845591,3,0.600418223327,,,,,,,,,2018_may._18_1050,60.0489844043,Experimento Piloto1,001,123,
0.25,Stim\\05_075.jpg,En75_21,Enojo,21,Mauro anuncia la actividad.,Afirmación,En75,75,,,,,0,78,78,78,,,,,,,,,1,1.22236477357,2,1.1668435295,,,,,,,,,2018_may._18_1050,60.0489844043,Experimento Piloto1,001,123,
0.25,Stim\\02_078.jpg,Al78_25,Alegría,25,Luis decide la comida siguiente.,Afirmación,Al78,78,,,,,0,79,79,79,,,,,,,,,1,0.707908579915,3,1.0998180202,,,,,,,,,2018_may._18_1050,60.0489844043,Experimento Piloto1,001,123,
0.25,Stim\\03_078.jpg,Tr78_22,Tristeza,22,Enrique corre todas las mañanas.,Afirmación,Tr78,78,,,,,0,80,80,80,,,,,,,,,1,0.702746386732,4,0.899950377258,,,,,,,,,2018_may._18_1050,60.0489844043,Experimento Piloto1,001,123,
0.25,Stim\\05_028.jpg,En28_26,Enojo,26,Víctor trae el café a Marco.,Afirmación,En28,28,,,,,0,81,81,81,,,,,,,,,1,1.21762339195,2,0.550264892624,,,,,,,,,2018_may._18_1050,60.0489844043,Experimento Piloto1,001,123,
2.5,Stim\\05_019.jpg,En19_29,Enojo,29,Miriam mira la película.,Afirmación,En19,19,,,,,0,82,82,82,,,,,,,,,1,0.675167833753,2,0.433725525546,,,,,,,,,2018_may._18_1050,60.0489844043,Experimento Piloto1,001,123,
0.25,Stim\\02_019.jpg,Al19_21,Alegría,21,Mauro anuncia la actividad.,Afirmación,Al19,19,,,,,0,83,83,83,,,,,,,,,1,0.622797544567,3,0.383621728335,,,,,,,,,2018_may._18_1050,60.0489844043,Experimento Piloto1,001,123,
2.5,Stim\\05_078.jpg,En78_30,Enojo,30,Marisol toma 2 litros de agua cada día.,Afirmación,En78,78,,,,,0,84,84,84,,,,,,,,,1,0.964924485967,2,0.65040421115,,,,,,,,,2018_may._18_1050,60.0489844043,Experimento Piloto1,001,123,
0.25,Stim\\02_078.jpg,Al78_30,Alegría,30,Marisol toma 2 litros de agua cada día.,Afirmación,Al78,78,,,,,0,85,85,85,,,,,,,,,1,0.833565679627,3,0.400069525389,,,,,,,,,2018_may._18_1050,60.0489844043,Experimento Piloto1,001,123,
0.25,Stim\\03_075.jpg,Tr75_16,Tristeza,16,Valeria modifica algunas imágenes.,Afirmación,Tr75,75,,,,,0,86,86,86,,,,,,,,,1,1.00111472671,4,0.400318085347,,,,,,,,,2018_may._18_1050,60.0489844043,Experimento Piloto1,001,123,
0.25,Stim\\02_019.jpg,Al19_24,Alegría,24,Guadalupe comenta los resultados con los compañeros.,Afirmación,Al19,19,,,,,0,87,87,87,,,,,,,,,1,1.35786118841,3,0.450464276088,,,,,,,,,2018_may._18_1050,60.0489844043,Experimento Piloto1,001,123,
2.5,Stim\\02_028.jpg,Al28_29,Alegría,29,Miriam mira la película.,Afirmación,Al28,28,,,,,0,88,88,88,,,,,,,,,1,0.624888661203,3,0.333700000178,,,,,,,,,2018_may._18_1050,60.0489844043,Experimento Piloto1,001,123,
0.25,Stim\\03_019.jpg,Tr19_25,Tristeza,25,Luis decide la comida siguiente.,Afirmación,Tr19,19,,,,,0,89,89,89,,,,,,,,,1,1.68427798018,4,1.73332907911,,,,,,,,,2018_may._18_1050,60.0489844043,Experimento Piloto1,001,123,
0.25,Stim\\03_075.jpg,Tr75_25,Tristeza,25,Luis decide la comida siguiente.,Afirmación,Tr75,75,,,,,0,90,90,90,,,,,,,,,1,0.766891813497,4,0.650389931224,,,,,,,,,2018_may._18_1050,60.0489844043,Experimento Piloto1,001,123,
2.5,Stim\\03_078.jpg,Tr78_25,Tristeza,25,Luis decide la comida siguiente.,Afirmación,Tr78,78,,,,,0,91,91,91,,,,,,,,,1,0.633666353103,4,0.650250701947,,,,,,,,,2018_may._18_1050,60.0489844043,Experimento Piloto1,001,123,
2.5,Stim\\02_019.jpg,Al19_18,Alegría,18,Sofía escucha la música.,Afirmación,Al19,19,,,,,0,92,92,92,,,,,,,,,1,0.658101537413,3,0.400253379434,,,,,,,,,2018_may._18_1050,60.0489844043,Experimento Piloto1,001,123,
2.5,Stim\\03_028.jpg,Tr28_19,Tristeza,19,Armando acompaña a Rodrígo a la tienda.,Afirmación,Tr28,28,,,,,0,93,93,93,,,,,,,,,1,0.765140737594,4,0.500305679662,,,,,,,,,2018_may._18_1050,60.0489844043,Experimento Piloto1,001,123,
0.25,Stim\\03_078.jpg,Tr78_18,Tristeza,18,Sofía escucha la música.,Afirmación,Tr78,78,,,,,0,94,94,94,,,,,,,,,1,0.808102340658,4,0.500305679662,,,,,,,,,2018_may._18_1050,60.0489844043,Experimento Piloto1,001,123,
0.25,Stim\\05_019.jpg,En19_29,Enojo,29,Miriam mira la película.,Afirmación,En19,19,,,,,0,95,95,95,,,,,,,,,1,0.607583622353,2,0.450292024483,,,,,,,,,2018_may._18_1050,60.0489844043,Experimento Piloto1,001,123,
2.5,Stim\\03_078.jpg,Tr78_24,Tristeza,24,Guadalupe comenta los resultados con los compañeros.,Afirmación,Tr78,78,,,,,0,96,96,96,,,,,,,,,1,1.1578159389,3,0.500298539699,,,,,,,,,2018_may._18_1050,60.0489844043,Experimento Piloto1,001,123,
2.5,Stim\\05_019.jpg,En19_22,Enojo,22,Enrique corre todas las mañanas.,Afirmación,En19,19,,,,,0,97,97,97,,,,,,,,,1,0.969695319933,2,0.450261233393,,,,,,,,,2018_may._18_1050,60.0489844043,Experimento Piloto1,001,123,
0.25,Stim\\02_028.jpg,Al28_20,Alegría,20,Karen analiza la idea.,Afirmación,Al28,28,,,,,0,98,98,98,,,,,,,,,1,1.22532562693,3,0.400310052889,,,,,,,,,2018_may._18_1050,60.0489844043,Experimento Piloto1,001,123,
2.5,Stim\\03_078.jpg,Tr78_27,Tristeza,27,Claudia informa los avances en el reporte.,Afirmación,Tr78,78,,,,,0,99,99,99,,,,,,,,,1,1.2142162909,4,0.400302912927,,,,,,,,,2018_may._18_1050,60.0489844043,Experimento Piloto1,001,123,
0.25,Stim\\03_075.jpg,Tr75_17,Tristeza,17,Brenda sube el autobús en las mañanas.,Afirmación,Tr75,75,,,,,0,100,100,100,,,,,,,,,1,0.800092194771,4,0.5503367385,,,,,,,,,2018_may._18_1050,60.0489844043,Experimento Piloto1,001,123,
2.5,Stim\\05_028.jpg,En28_25,Enojo,25,Luis decide la comida siguiente.,Afirmación,En28,28,,,,,0,101,101,101,,,,,,,,,1,1.63558655688,2,1.11679774449,,,,,,,,,2018_may._18_1050,60.0489844043,Experimento Piloto1,001,123,
2.5,Stim\\02_028.jpg,Tr28_30,Tristeza,30,Marisol toma 2 litros de agua cada día.,Afirmación,Tr28,28,,,,,0,102,102,102,,,,,,,,,1,0.714803106598,3,0.38382477103,,,,,,,,,2018_may._18_1050,60.0489844043,Experimento Piloto1,001,123,
0.25,Stim\\02_078.jpg,Al78_18,Alegría,18,Sofía escucha la música.,Afirmación,Al78,78,,,,,0,103,103,103,,,,,,,,,1,0.773977334188,3,0.450299164446,,,,,,,,,2018_may._18_1050,60.0489844043,Experimento Piloto1,001,123,
0.25,Stim\\02_078.jpg,Al78_24,Alegría,24,Guadalupe comenta los resultados con los compañeros.,Afirmación,Al78,78,,,,,0,104,104,104,,,,,,,,,1,1.2073730827,3,0.433678669539,,,,,,,,,2018_may._18_1050,60.0489844043,Experimento Piloto1,001,123,
0.25,Stim\\05_075.jpg,En75_26,Enojo,26,Víctor trae el café a Marco.,Afirmación,En75,75,,,,,0,105,105,105,,,,,,,,,1,1.43711968541,2,0.650316300357,,,,,,,,,2018_may._18_1050,60.0489844043,Experimento Piloto1,001,123,
0.25,Stim\\05_019.jpg,En19_16,Enojo,16,Valeria modifica algunas imágenes.,Afirmación,En19,19,,,,,0,106,106,106,,,,,,,,,1,1.1168811928,2,0.450371902818,,,,,,,,,2018_may._18_1050,60.0489844043,Experimento Piloto1,001,123,
2.5,Stim\\05_019.jpg,En19_21,Enojo,21,Mauro anuncia la actividad.,Afirmación,En19,19,,,,,0,107,107,107,,,,,,,,,1,0.706648822709,2,0.35033879124,,,,,,,,,2018_may._18_1050,60.0489844043,Experimento Piloto1,001,123,
0.25,Stim\\03_028.jpg,Tr28_22,Tristeza,22,Enrique corre todas las mañanas.,Afirmación,Tr28,28,,,,,0,108,108,108,,,,,,,,,1,0.748322108717,4,0.350189744514,,,,,,,,,2018_may._18_1050,60.0489844043,Experimento Piloto1,001,123,
2.5,Stim\\05_075.jpg,En75_28,Enojo,28,Antonio responde la pregunta.,Afirmación,En75,75,,,,,0,109,109,109,,,,,,,,,1,1.07147549118,2,0.600261590391,,,,,,,,,2018_may._18_1050,60.0489844043,Experimento Piloto1,001,123,
2.5,Stim\\05_078.jpg,En78_28,Enojo,28,Antonio responde la pregunta.,Afirmación,En78,78,,,,,0,110,110,110,,,,,,,,,1,0.783585939271,2,0.40028684801,,,,,,,,,2018_may._18_1050,60.0489844043,Experimento Piloto1,001,123,
2.5,Stim\\03_028.jpg,Tr28_26,Tristeza,26,Víctor trae el café a Marco.,Afirmación,Tr28,28,,,,,0,111,111,111,,,,,,,,,1,0.654769852221,4,0.500310588387,,,,,,,,,2018_may._18_1050,60.0489844043,Experimento Piloto1,001,123,
2.5,Stim\\05_028.jpg,En28_20,Enojo,20,Karen analiza la idea.,Afirmación,En28,28,,,,,0,112,112,112,,,,,,,,,1,0.575858982163,2,1.4166993915,,,,,,,,,2018_may._18_1050,60.0489844043,Experimento Piloto1,001,123,
2.5,Stim\\02_019.jpg,Al19_30,Alegría,30,Marisol toma 2 litros de agua cada día.,Afirmación,Al19,19,,,,,0,113,113,113,,,,,,,,,1,1.11617433647,3,0.40026944435,,,,,,,,,2018_may._18_1050,60.0489844043,Experimento Piloto1,001,123,
2.5,Stim\\05_078.jpg,En78_23,Enojo,23,Óscar consigue un nuevo departamento.,Afirmación,En78,78,,,,,0,114,114,114,,,,,,,,,1,0.866967764852,2,0.433782645249,,,,,,,,,2018_may._18_1050,60.0489844043,Experimento Piloto1,001,123,
0.25,Stim\\05_078.jpg,En78_23,Enojo,23,Óscar consigue un nuevo departamento.,Afirmación,En78,78,,,,,0,115,115,115,,,,,,,,,1,1.18366483586,2,0.550429558019,,,,,,,,,2018_may._18_1050,60.0489844043,Experimento Piloto1,001,123,
2.5,Stim\\05_019.jpg,En19_19,Enojo,19,Armando acompaña a Rodrígo a la tienda.,Afirmación,En19,19,,,,,0,116,116,116,,,,,,,,,1,1.33249825517,2,0.400218125867,,,,,,,,,2018_may._18_1050,60.0489844043,Experimento Piloto1,001,123,
2.5,Stim\\03_078.jpg,Tr78_17,Tristeza,17,Brenda sube el autobús en las mañanas.,Afirmación,Tr78,78,,,,,0,117,117,117,,,,,,,,,1,1.01520856724,4,0.550470612805,,,,,,,,,2018_may._18_1050,60.0489844043,Experimento Piloto1,001,123,
0.25,Stim\\05_075.jpg,En75_20,Enojo,20,Karen analiza la idea.,Afirmación,En75,75,,,,,0,118,118,118,,,,,,,,,1,0.759192255996,2,0.600882320916,,,,,,,,,2018_may._18_1050,60.0489844043,Experimento Piloto1,001,123,
0.25,Stim\\05_078.jpg,En78_28,Enojo,28,Antonio responde la pregunta.,Afirmación,En78,78,,,,,0,119,119,119,,,,,,,,,1,1.12012139722,2,0.400153419953,,,,,,,,,2018_may._18_1050,60.0489844043,Experimento Piloto1,001,123,
2.5,Stim\\03_019.jpg,Tr19_16,Tristeza,16,Valeria modifica algunas imágenes.,Afirmación,Tr19,19,,,,,,,,,0,0,0,0,,,,,,,,,1,1.15119228456,2,1.11682362685,,,,,2018_may._18_1050,60.0489844043,Experimento Piloto1,001,123,
2.5,Stim\\05_078.jpg,En78_19,Enojo,19,Armando acompaña a Rodrígo a la tienda.,Afirmación,En78,78,,,,,,,,,0,1,1,1,,,,,,,,,1,1.0154178574,2,0.65045419089,,,,,2018_may._18_1050,60.0489844043,Experimento Piloto1,001,123,
2.5,Stim\\02_075.jpg,Al75_21,Alegría,21,Mauro anuncia la actividad.,Afirmación,Al75,75,,,,,,,,,0,2,2,2,,,,,,,,,1,1.08971274144,3,0.433639399743,,,,,2018_may._18_1050,60.0489844043,Experimento Piloto1,001,123,
0.25,Stim\\02_075.jpg,Al75_16,Alegría,16,Valeria modifica algunas imágenes.,Afirmación,Al75,75,,,,,,,,,0,3,3,3,,,,,,,,,1,1.27598098628,3,0.283612714132,,,,,2018_may._18_1050,60.0489844043,Experimento Piloto1,001,123,
0.25,Stim\\05_078.jpg,En78_30,Enojo,30,Marisol toma 2 litros de agua cada día.,Afirmación,En78,78,,,,,,,,,0,4,4,4,,,,,,,,,1,0.80689122445,2,0.70027729831,,,,,2018_may._18_1050,60.0489844043,Experimento Piloto1,001,123,
0.25,Stim\\02_019.jpg,Al19_22,Alegría,22,Enrique corre todas las mañanas.,Afirmación,Al19,19,,,,,,,,,0,5,5,5,,,,,,,,,1,0.653950987724,3,0.3337151726,,,,,2018_may._18_1050,60.0489844043,Experimento Piloto1,001,123,
2.5,Stim\\05_028.jpg,En28_23,Enojo,23,Óscar consigue un nuevo departamento.,Afirmación,En28,28,,,,,,,,,0,6,6,6,,,,,,,,,1,1.18326767542,2,0.450380827771,,,,,2018_may._18_1050,60.0489844043,Experimento Piloto1,001,123,
0.25,Stim\\03_019.jpg,Tr19_16,Tristeza,16,Valeria modifica algunas imágenes.,Afirmación,Tr19,19,,,,,,,,,0,7,7,7,,,,,,,,,1,1.11686735912,2,1.26645939949,,,,,2018_may._18_1050,60.0489844043,Experimento Piloto1,001,123,
0.25,Stim\\02_078.jpg,Al78_17,Alegría,17,Brenda sube el autobús en las mañanas.,Afirmación,Al78,78,,,,,,,,,0,8,8,8,,,,,,,,,1,1.11570042144,3,0.433804511385,,,,,2018_may._18_1050,60.0489844043,Experimento Piloto1,001,123,
0.25,Stim\\02_078.jpg,Al78_16,Alegría,16,Valeria modifica algunas imágenes.,Afirmación,Al78,78,,,,,,,,,0,9,9,9,,,,,,,,,1,0.814346238221,3,0.383753371401,,,,,2018_may._18_1050,60.0489844043,Experimento Piloto1,001,123,
0.25,Stim\\05_075.jpg,En75_22,Enojo,22,Enrique corre todas las mañanas.,Afirmación,En75,75,,,,,,,,,0,10,10,10,,,,,,,,,1,0.919578135292,2,0.650196705978,,,,,2018_may._18_1050,60.0489844043,Experimento Piloto1,001,123,
0.25,Stim\\02_028.jpg,Al28_26,Alegría,26,Víctor trae el café a Marco.,Afirmación,Al28,28,,,,,,,,,0,11,11,11,,,,,,,,,1,0.553816577923,3,0.400119505129,,,,,2018_may._18_1050,60.0489844043,Experimento Piloto1,001,123,
2.5,Stim\\03_075.jpg,Tr75_28,Tristeza,28,Antonio responde la pregunta.,Afirmación,Tr75,75,,,,,,,,,0,12,12,12,,,,,,,,,1,0.65560344289,4,0.40026185814,,,,,2018_may._18_1050,60.0489844043,Experimento Piloto1,001,123,
0.25,Stim\\05_075.jpg,En75_23,Enojo,23,Óscar consigue un nuevo departamento.,Afirmación,En75,75,,,,,,,,,0,13,13,13,,,,,,,,,1,0.649978044614,2,0.500426166536,,,,,2018_may._18_1050,60.0489844043,Experimento Piloto1,001,123,
2.5,Stim\\02_078.jpg,Al78_28,Alegría,28,Antonio responde la pregunta.,Afirmación,Al78,78,,,,,,,,,0,14,14,14,,,,,,,,,1,0.471658809733,3,0.383761850107,,,,,2018_may._18_1050,60.0489844043,Experimento Piloto1,001,123,
2.5,Stim\\02_028.jpg,Al28_18,Alegría,18,Sofía escucha la música.,Afirmación,Al28,28,,,,,,,,,0,15,15,15,,,,,,,,,1,0.724655809163,3,0.900269890598,,,,,2018_may._18_1050,60.0489844043,Experimento Piloto1,001,123,
2.5,Stim\\02_019.jpg,Al19_22,Alegría,22,Enrique corre todas las mañanas.,Afirmación,Al19,19,,,,,,,,,0,16,16,16,,,,,,,,,1,0.770666622637,3,0.350310231388,,,,,2018_may._18_1050,60.0489844043,Experimento Piloto1,001,123,
2.5,Stim\\05_028.jpg,En28_28,Enojo,28,Antonio responde la pregunta.,Afirmación,En28,28,,,,,,,,,0,17,17,17,,,,,,,,,1,0.872179937775,2,0.383649395691,,,,,2018_may._18_1050,60.0489844043,Experimento Piloto1,001,123,
0.25,Stim\\03_078.jpg,Tr78_30,Tristeza,30,Marisol toma 2 litros de agua cada día.,Afirmación,Tr78,78,,,,,,,,,0,18,18,18,,,,,,,,,1,0.615433565323,4,0.433755424141,,,,,2018_may._18_1050,60.0489844043,Experimento Piloto1,001,123,
0.25,Stim\\03_019.jpg,Tr19_20,Tristeza,20,Karen analiza la idea.,Afirmación,Tr19,19,,,,,,,,,0,19,19,19,,,,,,,,,1,1.02532366344,2,0.900511310594,,,,,2018_may._18_1050,60.0489844043,Experimento Piloto1,001,123,
0.25,Stim\\05_028.jpg,En28_19,Enojo,19,Armando acompaña a Rodrígo a la tienda.,Afirmación,En28,28,,,,,,,,,0,20,20,20,,,,,,,,,1,2.81306550737,2,1.06671179718,,,,,2018_may._18_1050,60.0489844043,Experimento Piloto1,001,123,
0.25,Stim\\05_019.jpg,En19_26,Enojo,26,Víctor trae el café a Marco.,Afirmación,En19,19,,,,,,,,,0,21,21,21,,,,,,,,,1,0.553979904575,2,0.499868803181,,,,,2018_may._18_1050,60.0489844043,Experimento Piloto1,001,123,
0.25,Stim\\02_028.jpg,Al28_16,Alegría,16,Valeria modifica algunas imágenes.,Afirmación,Al28,28,,,,,,,,,0,22,22,22,,,,,,,,,1,0.833642434227,3,0.500327099551,,,,,2018_may._18_1050,60.0489844043,Experimento Piloto1,001,123,
2.5,Stim\\02_075.jpg,Al75_17,Alegría,17,Brenda sube el autobús en las mañanas.,Afirmación,Al75,75,,,,,,,,,0,23,23,23,,,,,,,,,1,0.765427228606,3,0.383679740534,,,,,2018_may._18_1050,60.0489844043,Experimento Piloto1,001,123,
2.5,Stim\\05_075.jpg,En75_30,Enojo,30,Marisol toma 2 litros de agua cada día.,Afirmación,En75,75,,,,,,,,,0,24,24,24,,,,,,,,,1,0.764612826586,2,0.500206612677,,,,,2018_may._18_1050,60.0489844043,Experimento Piloto1,001,123,
2.5,Stim\\03_075.jpg,Tr75_27,Tristeza,27,Claudia informa los avances en el reporte.,Afirmación,Tr75,75,,,,,,,,,0,25,25,25,,,,,,,,,1,1.37899190864,4,0.38379799617,,,,,2018_may._18_1050,60.0489844043,Experimento Piloto1,001,123,
2.5,Stim\\03_028.jpg,Tr28_24,Tristeza,24,Guadalupe comenta los resultados con los compañeros.,Afirmación,Tr28,28,,,,,,,,,0,26,26,26,,,,,,,,,1,0.557581569614,4,0.500399391675,,,,,2018_may._18_1050,60.0489844043,Experimento Piloto1,001,123,
0.25,Stim\\05_028.jpg,En28_24,Enojo,24,Guadalupe comenta los resultados con los compañeros.,Afirmación,En28,28,,,,,,,,,0,27,27,27,,,,,,,,,1,2.0498940608,2,0.450269712099,,,,,2018_may._18_1050,60.0489844043,Experimento Piloto1,001,123,
0.25,Stim\\03_028.jpg,Tr28_17,Tristeza,17,Brenda sube el autobús en las mañanas.,Afirmación,Tr28,28,,,,,,,,,0,28,28,28,,,,,,,,,1,1.01631749273,4,0.383772113804,,,,,2018_may._18_1050,60.0489844043,Experimento Piloto1,001,123,
0.25,Stim\\02_028.jpg,Al28_28,Alegría,28,Antonio responde la pregunta.,Afirmación,Al28,28,,,,,,,,,0,29,29,29,,,,,,,,,1,0.604493803405,3,0.400344413961,,,,,2018_may._18_1050,60.0489844043,Experimento Piloto1,001,123,
2.5,Stim\\02_028.jpg,Al28_24,Alegría,24,Guadalupe comenta los resultados con los compañeros.,Afirmación,Al28,28,,,,,,,,,0,30,30,30,,,,,,,,,1,0.807057674836,3,0.333895902911,,,,,2018_may._18_1050,60.0489844043,Experimento Piloto1,001,123,
0.25,Stim\\02_078.jpg,Al78_29,Alegría,29,Miriam mira la película.,Afirmación,Al78,78,,,,,,,,,0,31,31,31,,,,,,,,,1,0.524121025941,3,0.333737038736,,,,,2018_may._18_1050,60.0489844043,Experimento Piloto1,001,123,
0.25,Stim\\05_078.jpg,En78_19,Enojo,19,Armando acompaña a Rodrígo a la tienda.,Afirmación,En78,78,,,,,,,,,0,32,32,32,,,,,,,,,1,0.861332549127,2,0.433778182773,,,,,2018_may._18_1050,60.0489844043,Experimento Piloto1,001,123,
0.25,Stim\\03_019.jpg,Tr19_21,Tristeza,21,Mauro anuncia la actividad.,Afirmación,Tr19,19,,,,,,,,,0,33,33,33,,,,,,,,,1,0.72351877007,2,0.383623067078,,,,,2018_may._18_1050,60.0489844043,Experimento Piloto1,001,123,
0.25,Stim\\02_028.jpg,Al28_25,Alegría,25,Luis decide la comida siguiente.,Afirmación,Al28,28,,,,,,,,,0,34,34,34,,,,,,,,,1,0.718839416879,3,0.433758547875,,,,,2018_may._18_1050,60.0489844043,Experimento Piloto1,001,123,
2.5,Stim\\03_078.jpg,Tr78_26,Tristeza,26,Víctor trae el café a Marco.,Afirmación,Tr78,78,,,,,,,,,0,35,35,35,,,,,,,,,1,0.520654573949,4,0.400041411785,,,,,2018_may._18_1050,60.0489844043,Experimento Piloto1,001,123,
2.5,Stim\\05_078.jpg,En78_20,Enojo,20,Karen analiza la idea.,Afirmación,En78,78,,,,,,,,,0,36,36,36,,,,,,,,,1,0.409233667781,2,0.383824771031,,,,,2018_may._18_1050,60.0489844043,Experimento Piloto1,001,123,
2.5,Stim\\02_078.jpg,Al78_23,Alegría,23,Óscar consigue un nuevo departamento.,Afirmación,Al78,78,,,,,,,,,0,37,37,37,,,,,,,,,1,0.713438481187,3,0.350255342923,,,,,2018_may._18_1050,60.0489844043,Experimento Piloto1,001,123,
0.25,Stim\\03_078.jpg,Tr78_21,Tristeza,21,Mauro anuncia la actividad.,Afirmación,Tr78,78,,,,,,,,,0,38,38,38,,,,,,,,,1,0.605788814177,4,0.450226426074,,,,,2018_may._18_1050,60.0489844043,Experimento Piloto1,001,123,
2.5,Stim\\03_075.jpg,Tr75_18,Tristeza,18,Sofía escucha la música.,Afirmación,Tr75,75,,,,,,,,,0,39,39,39,,,,,,,,,1,0.657903403441,4,0.400448835918,,,,,2018_may._18_1050,60.0489844043,Experimento Piloto1,001,123,
2.5,Stim\\03_019.jpg,Tr19_19,Tristeza,19,Armando acompaña a Rodrígo a la tienda.,Afirmación,Tr19,19,,,,,,,,,0,40,40,40,,,,,,,,,1,1.11455044116,2,0.450325939307,,,,,2018_may._18_1050,60.0489844043,Experimento Piloto1,001,123,
0.25,Stim\\03_019.jpg,Tr19_17,Tristeza,17,Brenda sube el autobús en las mañanas.,Afirmación,Tr19,19,,,,,,,,,0,41,41,41,,,,,,,,,1,0.599064754108,2,0.350219196861,,,,,2018_may._18_1050,60.0489844043,Experimento Piloto1,001,123,
2.5,Stim\\05_078.jpg,En78_18,Enojo,18,Sofía escucha la música.,Afirmación,En78,78,,,,,,,,,0,42,42,42,,,,,,,,,1,0.558453091336,2,0.400333257769,,,,,2018_may._18_1050,60.0489844043,Experimento Piloto1,001,123,
0.25,Stim\\05_019.jpg,En19_24,Enojo,24,Guadalupe comenta los resultados con los compañeros.,Afirmación,En19,19,,,,,,,,,0,43,43,43,,,,,,,,,1,0.957186997413,2,0.499965638928,,,,,2018_may._18_1050,60.0489844043,Experimento Piloto1,001,123,
0.25,Stim\\02_075.jpg,Al75_20,Alegría,20,Karen analiza la idea.,Afirmación,Al75,75,,,,,,,,,0,44,44,44,,,,,,,,,1,2.70831868153,3,0.550418848074,,,,,2018_may._18_1050,60.0489844043,Experimento Piloto1,001,123,
0.25,Stim\\03_075.jpg,Tr75_23,Tristeza,23,Óscar consigue un nuevo departamento.,Afirmación,Tr75,75,,,,,,,,,0,45,45,45,,,,,,,,,1,0.700058636945,4,0.350213841889,,,,,2018_may._18_1050,60.0489844043,Experimento Piloto1,001,123,
0.25,Stim\\05_078.jpg,En78_16,Enojo,16,Valeria modifica algunas imágenes.,Afirmación,En78,78,,,,,,,,,0,46,46,46,,,,,,,,,1,1.36642200394,2,0.650289525495,,,,,2018_may._18_1050,60.0489844043,Experimento Piloto1,001,123,
2.5,Stim\\02_019.jpg,Al19_20,Alegría,20,Karen analiza la idea.,Afirmación,Al19,19,,,,,,,,,0,47,47,47,,,,,,,,,1,0.576197684153,3,0.483820397803,,,,,2018_may._18_1050,60.0489844043,Experimento Piloto1,001,123,
0.25,Stim\\03_075.jpg,Tr75_28,Tristeza,28,Antonio responde la pregunta.,Afirmación,Tr75,75,,,,,,,,,0,48,48,48,,,,,,,,,1,0.554884002378,4,0.500249006207,,,,,2018_may._18_1050,60.0489844043,Experimento Piloto1,001,123,
0.25,Stim\\05_078.jpg,En78_25,Enojo,25,Luis decide la comida siguiente.,Afirmación,En78,78,,,,,,,,,0,49,49,49,,,,,,,,,1,0.45124342454,2,0.450319245591,,,,,2018_may._18_1050,60.0489844043,Experimento Piloto1,001,123,
2.5,Stim\\03_019.jpg,Tr19_23,Tristeza,23,Óscar consigue un nuevo departamento.,Afirmación,Tr19,19,,,,,,,,,0,50,50,50,,,,,,,,,1,0.816774271858,4,0.600252665437,,,,,2018_may._18_1050,60.0489844043,Experimento Piloto1,001,123,
2.5,Stim\\03_075.jpg,Tr75_24,Tristeza,24,Guadalupe comenta los resultados con los compañeros.,Afirmación,Tr75,75,,,,,,,,,0,51,51,51,,,,,,,,,1,0.807639581813,4,0.333759797368,,,,,2018_may._18_1050,60.0489844043,Experimento Piloto1,001,123,
0.25,Stim\\02_078.jpg,Al78_20,Alegría,20,Karen analiza la idea.,Afirmación,Al78,78,,,,,,,,,0,52,52,52,,,,,,,,,1,0.459053651466,3,0.350377614788,,,,,2018_may._18_1050,60.0489844043,Experimento Piloto1,001,123,
2.5,Stim\\02_078.jpg,Al78_30,Alegría,30,Marisol toma 2 litros de agua cada día.,Afirmación,Al78,78,,,,,,,,,0,53,53,53,,,,,,,,,1,0.914824704986,3,0.333796835926,,,,,2018_may._18_1050,60.0489844043,Experimento Piloto1,001,123,
2.5,Stim\\03_028.jpg,Tr28_27,Tristeza,27,Claudia informa los avances en el reporte.,Afirmación,Tr28,28,,,,,,,,,0,54,54,54,,,,,,,,,1,0.56386919945,4,0.399994555779,,,,,2018_may._18_1050,60.0489844043,Experimento Piloto1,001,123,
2.5,Stim\\02_075.jpg,Al75_28,Alegría,28,Antonio responde la pregunta.,Afirmación,Al75,75,,,,,,,,,0,55,55,55,,,,,,,,,1,0.402060236297,3,0.383858685854,,,,,2018_may._18_1050,60.0489844043,Experimento Piloto1,001,123,
2.5,Stim\\03_078.jpg,Tr78_28,Tristeza,28,Antonio responde la pregunta.,Afirmación,Tr78,78,,,,,,,,,0,56,56,56,,,,,,,,,1,0.633641363233,4,0.299848989785,,,,,2018_may._18_1050,60.0489844043,Experimento Piloto1,001,123,
0.25,Stim\\03_028.jpg,Tr28_19,Tristeza,19,Armando acompaña a Rodrígo a la tienda.,Afirmación,Tr28,28,,,,,,,,,0,57,57,57,,,,,,,,,1,0.598915707383,4,0.433624227322,,,,,2018_may._18_1050,60.0489844043,Experimento Piloto1,001,123,
2.5,Stim\\05_078.jpg,En78_21,Enojo,21,Mauro anuncia la actividad.,Afirmación,En78,78,,,,,,,,,0,58,58,58,,,,,,,,,1,0.473336254768,2,0.333898134149,,,,,2018_may._18_1050,60.0489844043,Experimento Piloto1,001,123,
0.25,Stim\\05_028.jpg,En28_17,Enojo,17,Brenda sube el autobús en las mañanas.,Afirmación,En28,28,,,,,,,,,0,59,59,59,,,,,,,,,1,0.56579788193,2,0.333533549793,,,,,2018_may._18_1050,60.0489844043,Experimento Piloto1,001,123,
0.25,Stim\\03_075.jpg,Tr75_20,Tristeza,20,Karen analiza la idea.,Afirmación,Tr75,75,,,,,,,,,0,60,60,60,,,,,,,,,1,0.760247631763,4,0.400308714146,,,,,2018_may._18_1050,60.0489844043,Experimento Piloto1,001,123,
2.5,Stim\\03_078.jpg,Tr78_21,Tristeza,21,Mauro anuncia la actividad.,Afirmación,Tr78,78,,,,,,,,,0,61,61,61,,,,,,,,,1,0.523503865397,4,0.333695983949,,,,,2018_may._18_1050,60.0489844043,Experimento Piloto1,001,123,
0.25,Stim\\05_075.jpg,En75_17,Enojo,17,Brenda sube el autobús en las mañanas.,Afirmación,En75,75,,,,,,,,,0,62,62,62,,,,,,,,,1,0.816004494607,2,0.433835748723,,,,,2018_may._18_1050,60.0489844043,Experimento Piloto1,001,123,
0.25,Stim\\03_019.jpg,Tr19_26,Tristeza,26,Víctor trae el café a Marco.,Afirmación,Tr19,19,,,,,,,,,0,63,63,63,,,,,,,,,1,1.02072731232,4,0.86671608116,,,,,2018_may._18_1050,60.0489844043,Experimento Piloto1,001,123,
0.25,Stim\\05_019.jpg,En19_30,Enojo,30,Marisol toma 2 litros de agua cada día.,Afirmación,En19,19,,,,,,,,,0,64,64,64,,,,,,,,,1,0.598745687016,2,0.333652697924,,,,,2018_may._18_1050,60.0489844043,Experimento Piloto1,001,123,
0.25,Stim\\02_019.jpg,Al19_27,Alegría,27,Claudia informa los avances en el reporte.,Afirmación,Al19,19,,,,,,,,,0,65,65,65,,,,,,,,,1,0.663097726458,3,0.333646450456,,,,,2018_may._18_1050,60.0489844043,Experimento Piloto1,001,123,
0.25,Stim\\05_028.jpg,En28_23,Enojo,23,Óscar consigue un nuevo departamento.,Afirmación,En28,28,,,,,,,,,0,66,66,66,,,,,,,,,1,1.16622235272,2,0.350341468726,,,,,2018_may._18_1050,60.0489844043,Experimento Piloto1,001,123,
0.25,Stim\\05_019.jpg,En19_18,Enojo,18,Sofía escucha la música.,Afirmación,En19,19,,,,,,,,,0,67,67,67,,,,,,,,,1,0.558153659142,2,0.333729006278,,,,,2018_may._18_1050,60.0489844043,Experimento Piloto1,001,123,
0.25,Stim\\05_075.jpg,En75_25,Enojo,25,Luis decide la comida siguiente.,Afirmación,En75,75,,,,,,,,,0,68,68,68,,,,,,,,,1,0.868343992704,2,0.400360925125,,,,,2018_may._18_1050,60.0489844043,Experimento Piloto1,001,123,
0.25,Stim\\03_078.jpg,Tr78_16,Tristeza,16,Valeria modifica algunas imágenes.,Afirmación,Tr78,78,,,,,,,,,0,69,69,69,,,,,,,,,1,0.598996478214,4,0.500282474783,,,,,2018_may._18_1050,60.0489844043,Experimento Piloto1,001,123,
0.25,Stim\\05_019.jpg,En19_27,Enojo,27,Claudia informa los avances en el reporte.,Afirmación,En19,19,,,,,,,,,0,70,70,70,,,,,,,,,1,1.06354656238,2,0.433737574233,,,,,2018_may._18_1050,60.0489844043,Experimento Piloto1,001,123,
0.25,Stim\\05_075.jpg,En75_30,Enojo,30,Marisol toma 2 litros de agua cada día.,Afirmación,En75,75,,,,,,,,,0,71,71,71,,,,,,,,,1,0.715144486074,2,0.600071935126,,,,,2018_may._18_1050,60.0489844043,Experimento Piloto1,001,123,
2.5,Stim\\02_028.jpg,Al28_16,Alegría,16,Valeria modifica algunas imágenes.,Afirmación,Al28,28,,,,,,,,,0,72,72,72,,,,,,,,,1,0.696705531865,3,0.450287115758,,,,,2018_may._18_1050,60.0489844043,Experimento Piloto1,001,123,
0.25,Stim\\05_075.jpg,En75_29,Enojo,29,Miriam mira la película.,Afirmación,En75,75,,,,,,,,,0,73,73,73,,,,,,,,,1,0.707679654854,2,0.650324779062,,,,,2018_may._18_1050,60.0489844043,Experimento Piloto1,001,123,
2.5,Stim\\02_028.jpg,Al28_28,Alegría,28,Antonio responde la pregunta.,Afirmación,Al28,28,,,,,,,,,0,74,74,74,,,,,,,,,1,1.23790981156,3,0.400364495106,,,,,2018_may._18_1050,60.0489844043,Experimento Piloto1,001,123,
2.5,Stim\\03_019.jpg,Tr19_28,Tristeza,28,Antonio responde la pregunta.,Afirmación,Tr19,19,,,,,,,,,0,75,75,75,,,,,,,,,1,1.4834843733,4,0.450365209103,,,,,2018_may._18_1050,60.0489844043,Experimento Piloto1,001,123,
0.25,Stim\\02_028.jpg,Tr28_30,Tristeza,30,Marisol toma 2 litros de agua cada día.,Afirmación,Tr28,28,,,,,,,,,0,76,76,76,,,,,,,,,1,1.58240141942,3,0.333797282173,,,,,2018_may._18_1050,60.0489844043,Experimento Piloto1,001,123,
2.5,Stim\\02_075.jpg,Al75_27,Alegría,27,Claudia informa los avances en el reporte.,Afirmación,Al75,75,,,,,,,,,0,77,77,77,,,,,,,,,1,0.463552720594,3,0.433737574233,,,,,2018_may._18_1050,60.0489844043,Experimento Piloto1,001,123,
2.5,Stim\\02_075.jpg,Al75_20,Alegría,20,Karen analiza la idea.,Afirmación,Al75,75,,,,,,,,,0,78,78,78,,,,,,,,,1,0.525652547985,3,0.400160113669,,,,,2018_may._18_1050,60.0489844043,Experimento Piloto1,001,123,
2.5,Stim\\05_019.jpg,En19_28,Enojo,28,Antonio responde la pregunta.,Afirmación,En19,19,,,,,,,,,0,79,79,79,,,,,,,,,1,0.601922078015,2,0.350359764881,,,,,2018_may._18_1050,60.0489844043,Experimento Piloto1,001,123,
2.5,Stim\\02_078.jpg,Al78_21,Alegría,21,Mauro anuncia la actividad.,Afirmación,Al78,78,,,,,,,,,0,80,80,80,,,,,,,,,1,0.604656237561,3,0.550199294215,,,,,2018_may._18_1050,60.0489844043,Experimento Piloto1,001,123,
2.5,Stim\\03_078.jpg,Tr78_19,Tristeza,19,Armando acompaña a Rodrígo a la tienda.,Afirmación,Tr78,78,,,,,,,,,0,81,81,81,,,,,,,,,1,0.715521119118,4,0.333875375517,,,,,2018_may._18_1050,60.0489844043,Experimento Piloto1,001,123,
2.5,Stim\\05_075.jpg,En75_22,Enojo,22,Enrique corre todas las mañanas.,Afirmación,En75,75,,,,,,,,,0,82,82,82,,,,,,,,,1,0.519812504574,4,1.21684647473,,,,,2018_may._18_1050,60.0489844043,Experimento Piloto1,001,123,
0.25,Stim\\03_019.jpg,Tr19_19,Tristeza,19,Armando acompaña a Rodrígo a la tienda.,Afirmación,Tr19,19,,,,,,,,,0,83,83,83,,,,,,,,,1,2.49776206788,4,1.66669359028,,,,,2018_may._18_1050,60.0489844043,Experimento Piloto1,001,123,
2.5,Stim\\03_019.jpg,Tr19_27,Tristeza,27,Claudia informa los avances en el reporte.,Afirmación,Tr19,19,,,,,,,,,0,84,84,84,,,,,,,,,1,3.33024604312,4,1.83319038533,,,,,2018_may._18_1050,60.0489844043,Experimento Piloto1,001,123,
0.25,Stim\\05_078.jpg,En78_18,Enojo,18,Sofía escucha la música.,Afirmación,En78,78,,,,,,,,,0,85,85,85,,,,,,,,,1,0.657870381114,2,0.500298985947,,,,,2018_may._18_1050,60.0489844043,Experimento Piloto1,001,123,
2.5,Stim\\05_019.jpg,En19_25,Enojo,25,Luis decide la comida siguiente.,Afirmación,En19,19,,,,,,,,,0,86,86,86,,,,,,,,,1,0.668206369918,2,0.383611910886,,,,,2018_may._18_1050,60.0489844043,Experimento Piloto1,001,123,
0.25,Stim\\05_028.jpg,En28_16,Enojo,16,Valeria modifica algunas imágenes.,Afirmación,En28,28,,,,,,,,,0,87,87,87,,,,,,,,,1,0.550010085198,2,0.35034057623,,,,,2018_may._18_1050,60.0489844043,Experimento Piloto1,001,123,
2.5,Stim\\02_028.jpg,Al28_22,Alegría,22,Enrique corre todas las mañanas.,Afirmación,Al28,28,,,,,,,,,0,88,88,88,,,,,,,,,1,0.669659798617,3,0.383882336982,,,,,2018_may._18_1050,60.0489844043,Experimento Piloto1,001,123,
0.25,Stim\\03_078.jpg,Tr78_17,Tristeza,17,Brenda sube el autobús en las mañanas.,Afirmación,Tr78,78,,,,,,,,,0,89,89,89,,,,,,,,,1,0.81604822688,4,0.383835927222,,,,,2018_may._18_1050,60.0489844043,Experimento Piloto1,001,123,
2.5,Stim\\02_028.jpg,Al28_25,Alegría,25,Luis decide la comida siguiente.,Afirmación,Al28,28,,,,,,,,,0,90,90,90,,,,,,,,,1,0.667857850478,3,0.650137801284,,,,,2018_may._18_1050,60.0489844043,Experimento Piloto1,001,123,
0.25,Stim\\03_028.jpg,Tr28_18,Tristeza,18,Sofía escucha la música.,Afirmación,Tr28,28,,,,,,,,,0,91,91,91,,,,,,,,,1,0.707170040001,4,0.450296933207,,,,,2018_may._18_1050,60.0489844043,Experimento Piloto1,001,123,
2.5,Stim\\03_075.jpg,Tr75_26,Tristeza,26,Víctor trae el café a Marco.,Afirmación,Tr75,75,,,,,,,,,0,92,92,92,,,,,,,,,1,0.670367547441,4,0.333711156371,,,,,2018_may._18_1050,60.0489844043,Experimento Piloto1,001,123,
0.25,Stim\\02_019.jpg,Al19_19,Alegría,19,Armando acompaña a Rodrígo a la tienda.,Afirmación,Al19,19,,,,,,,,,0,93,93,93,,,,,,,,,1,0.765885524975,3,0.383795318683,,,,,2018_may._18_1050,60.0489844043,Experimento Piloto1,001,123,
0.25,Stim\\02_028.jpg,Al28_24,Alegría,24,Guadalupe comenta los resultados con los compañeros.,Afirmación,Al28,28,,,,,,,,,0,94,94,94,,,,,,,,,1,0.70407308109,3,0.3837730063,,,,,2018_may._18_1050,60.0489844043,Experimento Piloto1,001,123,
0.25,Stim\\05_078.jpg,En78_20,Enojo,20,Karen analiza la idea.,Afirmación,En78,78,,,,,,,,,0,95,95,95,,,,,,,,,1,0.722978810375,2,0.433620657341,,,,,2018_may._18_1050,60.0489844043,Experimento Piloto1,001,123,
2.5,Stim\\02_019.jpg,Al19_17,Alegría,17,Brenda sube el autobús en las mañanas.,Afirmación,Al19,19,,,,,,,,,0,96,96,96,,,,,,,,,1,0.666752048724,3,0.35037359856,,,,,2018_may._18_1050,60.0489844043,Experimento Piloto1,001,123,
0.25,Stim\\03_019.jpg,Tr19_18,Tristeza,18,Sofía escucha la música.,Afirmación,Tr19,19,,,,,,,,,0,97,97,97,,,,,,,,,1,1.27494569166,4,0.333750426167,,,,,2018_may._18_1050,60.0489844043,Experimento Piloto1,001,123,
0.25,Stim\\02_075.jpg,Al75_26,Alegría,26,Víctor trae el café a Marco.,Afirmación,Al75,75,,,,,,,,,0,98,98,98,,,,,,,,,1,1.95346930798,3,0.549951626752,,,,,2018_may._18_1050,60.0489844043,Experimento Piloto1,001,123,
2.5,Stim\\02_075.jpg,Al75_18,Alegría,18,Sofía escucha la música.,Afirmación,Al75,75,,,,,,,,,0,99,99,99,,,,,,,,,1,0.558256742356,3,0.283375756612,,,,,2018_may._18_1050,60.0489844043,Experimento Piloto1,001,123,
2.5,Stim\\05_019.jpg,En19_24,Enojo,24,Guadalupe comenta los resultados con los compañeros.,Afirmación,En19,19,,,,,,,,,0,100,100,100,,,,,,,,,1,0.802062378287,2,0.350378061035,,,,,2018_may._18_1050,60.0489844043,Experimento Piloto1,001,123,
2.5,Stim\\03_019.jpg,Tr19_30,Tristeza,30,Marisol toma 2 litros de agua cada día.,Afirmación,Tr19,19,,,,,,,,,0,101,101,101,,,,,,,,,1,0.564608631857,4,0.383764973842,,,,,2018_may._18_1050,60.0489844043,Experimento Piloto1,001,123,
2.5,Stim\\05_075.jpg,En75_17,Enojo,17,Brenda sube el autobús en las mañanas.,Afirmación,En75,75,,,,,,,,,0,102,102,102,,,,,,,,,1,0.8128682659,2,0.449985898574,,,,,2018_may._18_1050,60.0489844043,Experimento Piloto1,001,123,
0.25,Stim\\02_019.jpg,Al19_29,Alegría,29,Miriam mira la película.,Afirmación,Al19,19,,,,,,,,,0,103,103,103,,,,,,,,,1,0.607958916654,3,0.283746142189,,,,,2018_may._18_1050,60.0489844043,Experimento Piloto1,001,123,
0.25,Stim\\05_078.jpg,En78_22,Enojo,22,Enrique corre todas las mañanas.,Afirmación,En78,78,,,,,,,,,0,104,104,104,,,,,,,,,1,0.56628696939,2,1.05020911166,,,,,2018_may._18_1050,60.0489844043,Experimento Piloto1,001,123,
0.25,Stim\\03_028.jpg,Tr28_21,Tristeza,21,Mauro anuncia la actividad.,Afirmación,Tr28,28,,,,,,,,,0,105,105,105,,,,,,,,,1,1.22363836445,4,0.816519464432,,,,,2018_may._18_1050,60.0489844043,Experimento Piloto1,001,123,
2.5,Stim\\05_028.jpg,En28_19,Enojo,19,Armando acompaña a Rodrígo a la tienda.,Afirmación,En28,28,,,,,,,,,0,106,106,106,,,,,,,,,1,0.597112420501,2,0.400484089485,,,,,2018_may._18_1050,60.0489844043,Experimento Piloto1,001,123,
2.5,Stim\\03_019.jpg,Tr19_29,Tristeza,29,Miriam mira la película.,Afirmación,Tr19,19,,,,,,,,,0,107,107,107,,,,,,,,,1,0.607696076769,4,0.650288186754,,,,,2018_may._18_1050,60.0489844043,Experimento Piloto1,001,123,
2.5,Stim\\05_078.jpg,En78_17,Enojo,17,Brenda sube el autobús en las mañanas.,Afirmación,En78,78,,,,,,,,,0,108,108,108,,,,,,,,,1,0.715859821108,2,0.350263375381,,,,,2018_may._18_1050,60.0489844043,Experimento Piloto1,001,123,
2.5,Stim\\02_028.jpg,Al28_21,Alegría,21,Mauro anuncia la actividad.,Afirmación,Al28,28,,,,,,,,,0,109,109,109,,,,,,,,,1,0.873775273237,3,0.333839229455,,,,,2018_may._18_1050,60.0489844043,Experimento Piloto1,001,123,
0.25,Stim\\02_075.jpg,Al75_27,Alegría,27,Claudia informa los avances en el reporte.,Afirmación,Al75,75,,,,,,,,,0,110,110,110,,,,,,,,,1,0.659416629331,3,0.283688576238,,,,,2018_may._18_1050,60.0489844043,Experimento Piloto1,001,123,
0.25,Stim\\02_019.jpg,Al19_28,Alegría,28,Antonio responde la pregunta.,Afirmación,Al19,19,,,,,,,,,0,111,111,111,,,,,,,,,1,0.655471799823,3,0.300327813547,,,,,2018_may._18_1050,60.0489844043,Experimento Piloto1,001,123,
2.5,Stim\\05_019.jpg,En19_20,Enojo,20,Karen analiza la idea.,Afirmación,En19,19,,,,,,,,,0,112,112,112,,,,,,,,,1,0.659694195389,2,0.350306215159,,,,,2018_may._18_1050,60.0489844043,Experimento Piloto1,001,123,
2.5,Stim\\03_078.jpg,Tr78_22,Tristeza,22,Enrique corre todas las mañanas.,Afirmación,Tr78,78,,,,,,,,,0,113,113,113,,,,,,,,,1,0.403285186183,4,0.450341111728,,,,,2018_may._18_1050,60.0489844043,Experimento Piloto1,001,123,
2.5,Stim\\05_028.jpg,En28_18,Enojo,18,Sofía escucha la música.,Afirmación,En28,28,,,,,,,,,0,114,114,114,,,,,,,,,1,0.624609310154,2,0.333691075225,,,,,2018_may._18_1050,60.0489844043,Experimento Piloto1,001,123,
0.25,Stim\\03_075.jpg,Tr75_29,Tristeza,29,Miriam mira la película.,Afirmación,Tr75,75,,,,,,,,,0,115,115,115,,,,,,,,,1,0.875076531477,4,0.600237939264,,,,,2018_may._18_1050,60.0489844043,Experimento Piloto1,001,123,
0.25,Stim\\03_078.jpg,Tr78_24,Tristeza,24,Guadalupe comenta los resultados con los compañeros.,Afirmación,Tr78,78,,,,,,,,,0,116,116,116,,,,,,,,,1,1.3563617962,4,0.550223391589,,,,,2018_may._18_1050,60.0489844043,Experimento Piloto1,001,123,
2.5,Stim\\05_075.jpg,En75_23,Enojo,23,Óscar consigue un nuevo departamento.,Afirmación,En75,75,,,,,,,,,0,117,117,117,,,,,,,,,1,0.599514125524,2,0.400366726345,,,,,2018_may._18_1050,60.0489844043,Experimento Piloto1,001,123,
2.5,Stim\\03_019.jpg,Tr19_21,Tristeza,21,Mauro anuncia la actividad.,Afirmación,Tr19,19,,,,,,,,,0,118,118,118,,,,,,,,,1,0.57328591803,4,0.333934280212,,,,,2018_may._18_1050,60.0489844043,Experimento Piloto1,001,123,
0.25,Stim\\03_078.jpg,Tr78_29,Tristeza,29,Miriam mira la película.,Afirmación,Tr78,78,,,,,,,,,0,119,119,119,,,,,,,,,1,0.657783362815,4,0.600308892645,,,,,2018_may._18_1050,60.0489844043,Experimento Piloto1,001,123,
2.5,Stim\\05_028.jpg,En28_16,Enojo,16,Valeria modifica algunas imágenes.,Afirmación,En28,28,,,,,,,,,,,,,0,0,0,0,,,,,,,,,1,0.916578012128,2,0.433776844029,2018_may._18_1050,60.0489844043,Experimento Piloto1,001,123,
2.5,Stim\\05_028.jpg,En28_29,Enojo,29,Miriam mira la película.,Afirmación,En28,28,,,,,,,,,,,,,0,1,1,1,,,,,,,,,1,0.35622122818,2,0.350343253716,2018_may._18_1050,60.0489844043,Experimento Piloto1,001,123,
0.25,Stim\\03_028.jpg,Tr28_29,Tristeza,29,Miriam mira la película.,Afirmación,Tr28,28,,,,,,,,,,,,,0,2,2,2,,,,,,,,,1,0.617028900785,4,0.400328795292,2018_may._18_1050,60.0489844043,Experimento Piloto1,001,123,
2.5,Stim\\02_075.jpg,Al75_22,Alegría,22,Enrique corre todas las mañanas.,Afirmación,Al75,75,,,,,,,,,,,,,0,3,3,3,,,,,,,,,1,0.453504115296,3,1.26680970392,2018_may._18_1050,60.0489844043,Experimento Piloto1,001,123,
2.5,Stim\\05_019.jpg,En19_17,Enojo,17,Brenda sube el autobús en las mañanas.,Afirmación,En19,19,,,,,,,,,,,,,0,4,4,4,,,,,,,,,1,0.616363545491,2,0.383852438386,2018_may._18_1050,60.0489844043,Experimento Piloto1,001,123,
2.5,Stim\\02_028.jpg,Al28_17,Alegría,17,Brenda sube el autobús en las mañanas.,Afirmación,Al28,28,,,,,,,,,,,,,0,5,5,5,,,,,,,,,1,0.583753103652,3,1.00031371212,2018_may._18_1050,60.0489844043,Experimento Piloto1,001,123,
0.25,Stim\\05_075.jpg,En75_24,Enojo,24,Guadalupe comenta los resultados con los compañeros.,Afirmación,En75,75,,,,,,,,,,,,,0,6,6,6,,,,,,,,,1,0.807834145802,2,0.750237850014,2018_may._18_1050,60.0489844043,Experimento Piloto1,001,123,
2.5,Stim\\03_078.jpg,Tr78_23,Tristeza,23,Óscar consigue un nuevo departamento.,Afirmación,Tr78,78,,,,,,,,,,,,,0,7,7,7,,,,,,,,,1,0.716892884491,4,0.750415010344,2018_may._18_1050,60.0489844043,Experimento Piloto1,001,123,
0.25,Stim\\05_075.jpg,En75_16,Enojo,16,Valeria modifica algunas imágenes.,Afirmación,En75,75,,,,,,,,,,,,,0,8,8,8,,,,,,,,,1,0.599508324304,2,0.350320941333,2018_may._18_1050,60.0489844043,Experimento Piloto1,001,123,
0.25,Stim\\02_078.jpg,Al78_23,Alegría,23,Óscar consigue un nuevo departamento.,Afirmación,Al78,78,,,,,,,,,,,,,0,9,9,9,,,,,,,,,1,0.499714847731,3,0.450312998124,2018_may._18_1050,60.0489844043,Experimento Piloto1,001,123,
2.5,Stim\\05_078.jpg,En78_24,Enojo,24,Guadalupe comenta los resultados con los compañeros.,Afirmación,En78,78,,,,,,,,,,,,,0,10,10,10,,,,,,,,,1,0.857586299839,2,0.483736056992,2018_may._18_1050,60.0489844043,Experimento Piloto1,001,123,
2.5,Stim\\03_028.jpg,Tr28_28,Tristeza,28,Antonio responde la pregunta.,Afirmación,Tr28,28,,,,,,,,,,,,,0,11,11,11,,,,,,,,,1,0.521686744837,4,1.31666360243,2018_may._18_1050,60.0489844043,Experimento Piloto1,001,123,
0.25,Stim\\02_019.jpg,Al19_20,Alegría,20,Karen analiza la idea.,Afirmación,Al19,19,,,,,,,,,,,,,0,12,12,12,,,,,,,,,1,0.609146381734,3,0.283833606735,2018_may._18_1050,60.0489844043,Experimento Piloto1,001,123,
2.5,Stim\\05_078.jpg,En78_27,Enojo,27,Claudia informa los avances en el reporte.,Afirmación,En78,78,,,,,,,,,,,,,0,13,13,13,,,,,,,,,1,0.41315484616,2,0.333770507312,2018_may._18_1050,60.0489844043,Experimento Piloto1,001,123,
0.25,Stim\\05_028.jpg,En28_28,Enojo,28,Antonio responde la pregunta.,Afirmación,En28,28,,,,,,,,,,,,,0,14,14,14,,,,,,,,,1,0.554680513435,2,0.400327010301,2018_may._18_1050,60.0489844043,Experimento Piloto1,001,123,
2.5,Stim\\03_078.jpg,Tr78_30,Tristeza,30,Marisol toma 2 litros de agua cada día.,Afirmación,Tr78,78,,,,,,,,,,,,,0,15,15,15,,,,,,,,,1,0.665905070623,4,0.333745071194,2018_may._18_1050,60.0489844043,Experimento Piloto1,001,123,
0.25,Stim\\03_028.jpg,Tr28_27,Tristeza,27,Claudia informa los avances en el reporte.,Afirmación,Tr28,28,,,,,,,,,,,,,0,16,16,16,,,,,,,,,1,0.714086879068,4,0.333768276074,2018_may._18_1050,60.0489844043,Experimento Piloto1,001,123,
0.25,Stim\\02_075.jpg,Al75_24,Alegría,24,Guadalupe comenta los resultados con los compañeros.,Afirmación,Al75,75,,,,,,,,,,,,,0,17,17,17,,,,,,,,,1,0.541267200617,3,0.350299075196,2018_may._18_1050,60.0489844043,Experimento Piloto1,001,123,
0.25,Stim\\02_019.jpg,Al19_16,Alegría,16,Valeria modifica algunas imágenes.,Afirmación,Al19,19,,,,,,,,,,,,,0,18,18,18,,,,,,,,,1,1.36680220696,3,0.450335310508,2018_may._18_1050,60.0489844043,Experimento Piloto1,001,123,
2.5,Stim\\02_028.jpg,Al28_30,Alegría,30,Marisol toma 2 litros de agua cada día.,Afirmación,Al28,28,,,,,,,,,,,,,0,19,19,19,,,,,,,,,1,0.298471423192,3,0.400244008232,2018_may._18_1050,60.0489844043,Experimento Piloto1,001,123,
2.5,Stim\\05_078.jpg,En78_16,Enojo,16,Valeria modifica algunas imágenes.,Afirmación,En78,78,,,,,,,,,,,,,0,20,20,20,,,,,,,,,1,0.450273728328,2,0.350409744621,2018_may._18_1050,60.0489844043,Experimento Piloto1,001,123,
0.25,Stim\\02_075.jpg,Al75_28,Alegría,28,Antonio responde la pregunta.,Afirmación,Al75,75,,,,,,,,,,,,,0,21,21,21,,,,,,,,,1,4.23746177889,3,1.01679765524,2018_may._18_1050,60.0489844043,Experimento Piloto1,001,123,
2.5,Stim\\03_075.jpg,Tr75_17,Tristeza,17,Brenda sube el autobús en las mañanas.,Afirmación,Tr75,75,,,,,,,,,,,,,0,22,22,22,,,,,,,,,1,0.349652462305,4,0.450296040713,2018_may._18_1050,60.0489844043,Experimento Piloto1,001,123,
0.25,Stim\\05_075.jpg,En75_18,Enojo,18,Sofía escucha la música.,Afirmación,En75,75,,,,,,,,,,,,,0,23,23,23,,,,,,,,,1,0.708504766818,2,0.700295148217,2018_may._18_1050,60.0489844043,Experimento Piloto1,001,123,
2.5,Stim\\02_075.jpg,Al75_25,Alegría,25,Luis decide la comida siguiente.,Afirmación,Al75,75,,,,,,,,,,,,,0,24,24,24,,,,,,,,,1,1.08428458464,3,0.283748373427,2018_may._18_1050,60.0489844043,Experimento Piloto1,001,123,
0.25,Stim\\02_028.jpg,Al28_18,Alegría,18,Sofía escucha la música.,Afirmación,Al28,28,,,,,,,,,,,,,0,25,25,25,,,,,,,,,1,0.658063160112,3,0.300322012327,2018_may._18_1050,60.0489844043,Experimento Piloto1,001,123,
0.25,Stim\\02_028.jpg,Al28_23,Alegría,23,Óscar consigue un nuevo departamento.,Afirmación,Al28,28,,,,,,,,,,,,,0,26,26,26,,,,,,,,,1,0.700380827771,3,0.350301306435,2018_may._18_1050,60.0489844043,Experimento Piloto1,001,123,
0.25,Stim\\02_075.jpg,Al75_19,Alegría,19,Armando acompaña a Rodrígo a la tienda.,Afirmación,Al75,75,,,,,,,,,,,,,0,27,27,27,,,,,,,,,1,0.598309703031,3,0.283820665552,2018_may._18_1050,60.0489844043,Experimento Piloto1,001,123,
2.5,Stim\\05_019.jpg,En19_16,Enojo,16,Valeria modifica algunas imágenes.,Afirmación,En19,19,,,,,,,,,,,,,0,28,28,28,,,,,,,,,1,0.617046304445,2,0.500182515302,2018_may._18_1050,60.0489844043,Experimento Piloto1,001,123,
2.5,Stim\\02_019.jpg,Al19_25,Alegría,25,Luis decide la comida siguiente.,Afirmación,Al19,19,,,,,,,,,,,,,0,29,29,29,,,,,,,,,1,0.452392512321,3,0.35045035316,2018_may._18_1050,60.0489844043,Experimento Piloto1,001,123,
0.25,Stim\\02_078.jpg,Al78_27,Alegría,27,Claudia informa los avances en el reporte.,Afirmación,Al78,78,,,,,,,,,,,,,0,30,30,30,,,,,,,,,1,0.746906164823,3,0.250363691861,2018_may._18_1050,60.0489844043,Experimento Piloto1,001,123,
0.25,Stim\\03_019.jpg,Tr19_22,Tristeza,22,Enrique corre todas las mañanas.,Afirmación,Tr19,19,,,,,,,,,,,,,0,31,31,31,,,,,,,,,1,0.802819660602,4,0.650229282059,2018_may._18_1050,60.0489844043,Experimento Piloto1,001,123,
2.5,Stim\\05_019.jpg,En19_26,Enojo,26,Víctor trae el café a Marco.,Afirmación,En19,19,,,,,,,,,,,,,0,32,32,32,,,,,,,,,1,0.671820083644,2,0.600230353053,2018_may._18_1050,60.0489844043,Experimento Piloto1,001,123,
2.5,Stim\\02_078.jpg,Al78_26,Alegría,26,Víctor trae el café a Marco.,Afirmación,Al78,78,,,,,,,,,,,,,0,33,33,33,,,,,,,,,1,0.466980349037,3,0.300152438208,2018_may._18_1050,60.0489844043,Experimento Piloto1,001,123,
0.25,Stim\\05_078.jpg,En78_17,Enojo,17,Brenda sube el autobús en las mañanas.,Afirmación,En78,78,,,,,,,,,,,,,0,34,34,34,,,,,,,,,1,1.31567025509,2,0.550216697875,2018_may._18_1050,60.0489844043,Experimento Piloto1,001,123,
0.25,Stim\\05_078.jpg,En78_21,Enojo,21,Mauro anuncia la actividad.,Afirmación,En78,78,,,,,,,,,,,,,0,35,35,35,,,,,,,,,1,0.406316992933,2,0.333654036667,2018_may._18_1050,60.0489844043,Experimento Piloto1,001,123,
2.5,Stim\\03_078.jpg,Tr78_20,Tristeza,20,Karen analiza la idea.,Afirmación,Tr78,78,,,,,,,,,,,,,0,36,36,36,,,,,,,,,1,0.625746795496,4,0.283753728399,2018_may._18_1050,60.0489844043,Experimento Piloto1,001,123,
0.25,Stim\\03_078.jpg,Tr78_28,Tristeza,28,Antonio responde la pregunta.,Afirmación,Tr78,78,,,,,,,,,,,,,0,37,37,37,,,,,,,,,1,0.455468943839,4,0.300466596576,2018_may._18_1050,60.0489844043,Experimento Piloto1,001,123,
2.5,Stim\\03_028.jpg,Tr28_17,Tristeza,17,Brenda sube el autobús en las mañanas.,Afirmación,Tr28,28,,,,,,,,,,,,,0,38,38,38,,,,,,,,,1,0.54801535806,4,0.300367083343,2018_may._18_1050,60.0489844043,Experimento Piloto1,001,123,
0.25,Stim\\02_028.jpg,Al28_27,Alegría,27,Claudia informa los avances en el reporte.,Afirmación,Al28,28,,,,,,,,,,,,,0,39,39,39,,,,,,,,,1,1.16019042281,3,0.333744624947,2018_may._18_1050,60.0489844043,Experimento Piloto1,001,123,
2.5,Stim\\02_019.jpg,Al19_28,Alegría,28,Antonio responde la pregunta.,Afirmación,Al19,19,,,,,,,,,,,,,0,40,40,40,,,,,,,,,1,0.671548765054,3,0.283782734498,2018_may._18_1050,60.0489844043,Experimento Piloto1,001,123,
0.25,Stim\\02_019.jpg,Al19_17,Alegría,17,Brenda sube el autobús en las mañanas.,Afirmación,Al19,19,,,,,,,,,,,,,0,41,41,41,,,,,,,,,1,0.565870174055,3,0.283737663482,2018_may._18_1050,60.0489844043,Experimento Piloto1,001,123,
2.5,Stim\\03_075.jpg,Tr75_21,Tristeza,21,Mauro anuncia la actividad.,Afirmación,Tr75,75,,,,,,,,,,,,,0,42,42,42,,,,,,,,,1,1.23984474151,4,0.384218807733,2018_may._18_1050,60.0489844043,Experimento Piloto1,001,123,
0.25,Stim\\03_075.jpg,Tr75_26,Tristeza,26,Víctor trae el café a Marco.,Afirmación,Tr75,75,,,,,,,,,,,,,0,43,43,43,,,,,,,,,1,0.55505670023,4,0.500326207055,2018_may._18_1050,60.0489844043,Experimento Piloto1,001,123,
0.25,Stim\\02_075.jpg,Al75_18,Alegría,18,Sofía escucha la música.,Afirmación,Al75,75,,,,,,,,,,,,,0,44,44,44,,,,,,,,,1,0.408320198777,3,0.283801923149,2018_may._18_1050,60.0489844043,Experimento Piloto1,001,123,
2.5,Stim\\05_028.jpg,En28_27,Enojo,27,Claudia informa los avances en el reporte.,Afirmación,En28,28,,,,,,,,,,,,,0,45,45,45,,,,,,,,,1,0.51411927665,2,0.283730969768,2018_may._18_1050,60.0489844043,Experimento Piloto1,001,123,
0.25,Stim\\02_019.jpg,Al19_23,Alegría,23,Óscar consigue un nuevo departamento.,Afirmación,Al19,19,,,,,,,,,,,,,0,46,46,46,,,,,,,,,1,0.766453152026,3,0.333800852154,2018_may._18_1050,60.0489844043,Experimento Piloto1,001,123,
0.25,Stim\\03_075.jpg,Tr75_21,Tristeza,21,Mauro anuncia la actividad.,Afirmación,Tr75,75,,,,,,,,,,,,,0,47,47,47,,,,,,,,,1,0.972724002949,4,0.300434466743,2018_may._18_1050,60.0489844043,Experimento Piloto1,001,123,
0.25,Stim\\02_078.jpg,Al78_28,Alegría,28,Antonio responde la pregunta.,Afirmación,Al78,78,,,,,,,,,,,,,0,48,48,48,,,,,,,,,1,0.454784399894,3,0.283775594536,2018_may._18_1050,60.0489844043,Experimento Piloto1,001,123,
2.5,Stim\\03_075.jpg,Tr75_23,Tristeza,23,Óscar consigue un nuevo departamento.,Afirmación,Tr75,75,,,,,,,,,,,,,0,49,49,49,,,,,,,,,1,0.616245289855,4,0.383652073177,2018_may._18_1050,60.0489844043,Experimento Piloto1,001,123,
0.25,Stim\\02_078.jpg,Al78_22,Alegría,22,Enrique corre todas las mañanas.,Afirmación,Al78,78,,,,,,,,,,,,,0,50,50,50,,,,,,,,,1,0.453527766423,3,0.300314426117,2018_may._18_1050,60.0489844043,Experimento Piloto1,001,123,
2.5,Stim\\03_028.jpg,Tr28_23,Tristeza,23,Óscar consigue un nuevo departamento.,Afirmación,Tr28,28,,,,,,,,,,,,,0,51,51,51,,,,,,,,,1,0.550532641233,4,0.650362263868,2018_may._18_1050,60.0489844043,Experimento Piloto1,001,123,
0.25,Stim\\02_028.jpg,Al28_19,Alegría,19,Armando acompaña a Rodrígo a la tienda.,Afirmación,Al28,28,,,,,,,,,,,,,0,52,52,52,,,,,,,,,1,0.348601549015,3,0.300405014396,2018_may._18_1050,60.0489844043,Experimento Piloto1,001,123,
0.25,Stim\\03_028.jpg,Tr28_28,Tristeza,28,Antonio responde la pregunta.,Afirmación,Tr28,28,,,,,,,,,,,,,0,53,53,53,,,,,,,,,1,0.654554760838,4,0.333789695963,2018_may._18_1050,60.0489844043,Experimento Piloto1,001,123,
2.5,Stim\\05_075.jpg,En75_16,Enojo,16,Valeria modifica algunas imágenes.,Afirmación,En75,75,,,,,,,,,,,,,0,54,54,54,,,,,,,,,1,0.467043716209,2,0.333711156371,2018_may._18_1050,60.0489844043,Experimento Piloto1,001,123,
0.25,Stim\\03_019.jpg,Tr19_28,Tristeza,28,Antonio responde la pregunta.,Afirmación,Tr19,19,,,,,,,,,,,,,0,55,55,55,,,,,,,,,1,0.721761446699,4,0.283751497161,2018_may._18_1050,60.0489844043,Experimento Piloto1,001,123,
2.5,Stim\\03_019.jpg,Tr19_24,Tristeza,24,Guadalupe comenta los resultados con los compañeros.,Afirmación,Tr19,19,,,,,,,,,,,,,0,56,56,56,,,,,,,,,1,0.540668336228,4,0.283585493024,2018_may._18_1050,60.0489844043,Experimento Piloto1,001,123,
0.25,Stim\\03_019.jpg,Tr19_30,Tristeza,30,Marisol toma 2 litros de agua cada día.,Afirmación,Tr19,19,,,,,,,,,,,,,0,57,57,57,,,,,,,,,1,0.548663755942,4,0.300491140199,2018_may._18_1050,60.0489844043,Experimento Piloto1,001,123,
0.25,Stim\\02_075.jpg,Al75_23,Alegría,23,Óscar consigue un nuevo departamento.,Afirmación,Al75,75,,,,,,,,,,,,,0,58,58,58,,,,,,,,,1,0.845073068595,3,0.30034834094,2018_may._18_1050,60.0489844043,Experimento Piloto1,001,123,
2.5,Stim\\02_078.jpg,Al78_22,Alegría,22,Enrique corre todas las mañanas.,Afirmación,Al78,78,,,,,,,,,,,,,0,59,59,59,,,,,,,,,1,0.453861113441,3,0.300347894692,2018_may._18_1050,60.0489844043,Experimento Piloto1,001,123,
2.5,Stim\\05_075.jpg,En75_20,Enojo,20,Karen analiza la idea.,Afirmación,En75,75,,,,,,,,,,,,,0,60,60,60,,,,,,,,,1,0.358947801516,2,0.283797014425,2018_may._18_1050,60.0489844043,Experimento Piloto1,001,123,
2.5,Stim\\03_028.jpg,Tr28_18,Tristeza,18,Sofía escucha la música.,Afirmación,Tr28,28,,,,,,,,,,,,,0,61,61,61,,,,,,,,,1,0.424574324336,4,0.283779164518,2018_may._18_1050,60.0489844043,Experimento Piloto1,001,123,
0.25,Stim\\02_028.jpg,Al28_22,Alegría,22,Enrique corre todas las mañanas.,Afirmación,Al28,28,,,,,,,,,,,,,0,62,62,62,,,,,,,,,1,0.603252788602,3,0.300455886631,2018_may._18_1050,60.0489844043,Experimento Piloto1,001,123,
2.5,Stim\\03_075.jpg,Tr75_29,Tristeza,29,Miriam mira la película.,Afirmación,Tr75,75,,,,,,,,,,,,,0,63,63,63,,,,,,,,,1,0.454428294245,4,0.300308178649,2018_may._18_1050,60.0489844043,Experimento Piloto1,001,123,
2.5,Stim\\05_075.jpg,En75_19,Enojo,19,Armando acompaña a Rodrígo a la tienda.,Afirmación,En75,75,,,,,,,,,,,,,0,64,64,64,,,,,,,,,1,0.398515244713,2,0.28392107128,2018_may._18_1050,60.0489844043,Experimento Piloto1,001,123,
0.25,Stim\\05_078.jpg,En78_27,Enojo,27,Claudia informa los avances en el reporte.,Afirmación,En78,78,,,,,,,,,,,,,0,65,65,65,,,,,,,,,1,0.663215535846,2,0.800019010152,2018_may._18_1050,60.0489844043,Experimento Piloto1,001,123,
0.25,Stim\\02_075.jpg,Al75_29,Alegría,29,Miriam mira la película.,Afirmación,Al75,75,,,,,,,,,,,,,0,66,66,66,,,,,,,,,1,0.357995062715,3,0.283689022486,2018_may._18_1050,60.0489844043,Experimento Piloto1,001,123,
2.5,Stim\\03_075.jpg,Tr75_19,Tristeza,19,Armando acompaña a Rodrígo a la tienda.,Afirmación,Tr75,75,,,,,,,,,,,,,0,67,67,67,,,,,,,,,1,0.364976161449,4,0.283698839934,2018_may._18_1050,60.0489844043,Experimento Piloto1,001,123,
2.5,Stim\\03_028.jpg,Tr28_22,Tristeza,22,Enrique corre todas las mañanas.,Afirmación,Tr28,28,,,,,,,,,,,,,0,68,68,68,,,,,,,,,1,0.768643335648,4,0.333670994079,2018_may._18_1050,60.0489844043,Experimento Piloto1,001,123,
0.25,Stim\\03_078.jpg,Tr78_25,Tristeza,25,Luis decide la comida siguiente.,Afirmación,Tr78,78,,,,,,,,,,,,,0,69,69,69,,,,,,,,,1,0.353083214482,4,0.30027917255,2018_may._18_1050,60.0489844043,Experimento Piloto1,001,123,
2.5,Stim\\02_028.jpg,Al28_19,Alegría,19,Armando acompaña a Rodrígo a la tienda.,Afirmación,Al28,28,,,,,,,,,,,,,0,70,70,70,,,,,,,,,1,0.3483927051,3,0.283719813576,2018_may._18_1050,60.0489844043,Experimento Piloto1,001,123,
0.25,Stim\\02_075.jpg,Al75_25,Alegría,25,Luis decide la comida siguiente.,Afirmación,Al75,75,,,,,,,,,,,,,0,71,71,71,,,,,,,,,1,0.517894532039,3,0.233735610744,2018_may._18_1050,60.0489844043,Experimento Piloto1,001,123,
2.5,Stim\\02_019.jpg,Al19_24,Alegría,24,Guadalupe comenta los resultados con los compañeros.,Afirmación,Al19,19,,,,,,,,,,,,,0,72,72,72,,,,,,,,,1,0.290671459961,3,0.234093055136,2018_may._18_1050,60.0489844043,Experimento Piloto1,001,123,
0.25,Stim\\03_028.jpg,Tr28_23,Tristeza,23,Óscar consigue un nuevo departamento.,Afirmación,Tr28,28,,,,,,,,,,,,,0,73,73,73,,,,,,,,,1,0.866204235069,4,0.233714190855,2018_may._18_1050,60.0489844043,Experimento Piloto1,001,123,
0.25,Stim\\03_028.jpg,Tr28_25,Tristeza,25,Luis decide la comida siguiente.,Afirmación,Tr28,28,,,,,,,,,,,,,0,74,74,74,,,,,,,,,1,0.669365275147,4,0.233665103609,2018_may._18_1050,60.0489844043,Experimento Piloto1,001,123,
0.25,Stim\\05_019.jpg,En19_23,Enojo,23,Óscar consigue un nuevo departamento.,Afirmación,En19,19,,,,,,,,,,,,,0,75,75,75,,,,,,,,,1,0.866579529369,2,0.283713566108,2018_may._18_1050,60.0489844043,Experimento Piloto1,001,123,
2.5,Stim\\03_019.jpg,Tr19_26,Tristeza,26,Víctor trae el café a Marco.,Afirmación,Tr19,19,,,,,,,,,,,,,0,76,76,76,,,,,,,,,1,0.670490265553,4,0.333727667535,2018_may._18_1050,60.0489844043,Experimento Piloto1,001,123,
0.25,Stim\\05_028.jpg,En28_30,Enojo,30,Marisol toma 2 litros de agua cada día.,Afirmación,En28,28,,,,,,,,,,,,,0,77,77,77,,,,,,,,,1,0.398850376722,2,0.300376900792,2018_may._18_1050,60.0489844043,Experimento Piloto1,001,123,
2.5,Stim\\02_019.jpg,Al19_26,Alegría,26,Víctor trae el café a Marco.,Afirmación,Al19,19,,,,,,,,,,,,,0,78,78,78,,,,,,,,,1,0.720205381033,3,0.23381905906,2018_may._18_1050,60.0489844043,Experimento Piloto1,001,123,
0.25,Stim\\03_075.jpg,Tr75_27,Tristeza,27,Claudia informa los avances en el reporte.,Afirmación,Tr75,75,,,,,,,,,,,,,0,79,79,79,,,,,,,,,1,1.36342857449,4,0.300388503232,2018_may._18_1050,60.0489844043,Experimento Piloto1,001,123,
2.5,Stim\\02_078.jpg,Al78_27,Alegría,27,Claudia informa los avances en el reporte.,Afirmación,Al78,78,,,,,,,,,,,,,0,80,80,80,,,,,,,,,1,0.567003196918,3,0.250437768976,2018_may._18_1050,60.0489844043,Experimento Piloto1,001,123,
0.25,Stim\\02_019.jpg,Al19_26,Alegría,26,Víctor trae el café a Marco.,Afirmación,Al19,19,,,,,,,,,,,,,0,81,81,81,,,,,,,,,1,1.02036629795,3,0.333639310494,2018_may._18_1050,60.0489844043,Experimento Piloto1,001,123,
0.25,Stim\\03_019.jpg,Tr19_29,Tristeza,29,Miriam mira la película.,Afirmación,Tr19,19,,,,,,,,,,,,,0,82,82,82,,,,,,,,,1,1.07416904219,4,0.233870377543,2018_may._18_1050,60.0489844043,Experimento Piloto1,001,123,
2.5,Stim\\05_075.jpg,En75_27,Enojo,27,Claudia informa los avances en el reporte.,Afirmación,En75,75,,,,,,,,,,,,,0,83,83,83,,,,,,,,,1,1.58042186471,2,1.06671581341,2018_may._18_1050,60.0489844043,Experimento Piloto1,001,123,
0.25,Stim\\05_019.jpg,En19_25,Enojo,25,Luis decide la comida siguiente.,Afirmación,En19,19,,,,,,,,,,,,,0,84,84,84,,,,,,,,,1,0.601075099915,2,0.300370653325,2018_may._18_1050,60.0489844043,Experimento Piloto1,001,123,
2.5,Stim\\03_028.jpg,Tr28_20,Tristeza,20,Karen analiza la idea.,Afirmación,Tr28,28,,,,,,,,,,,,,0,85,85,85,,,,,,,,,1,0.35857161472,4,0.233556665423,2018_may._18_1050,60.0489844043,Experimento Piloto1,001,123,
2.5,Stim\\05_028.jpg,En28_26,Enojo,26,Víctor trae el café a Marco.,Afirmación,En28,28,,,,,,,,,,,,,0,86,86,86,,,,,,,,,1,1.53605770518,2,0.300374669554,2018_may._18_1050,60.0489844043,Experimento Piloto1,001,123,
0.25,Stim\\05_028.jpg,En28_21,Enojo,21,Mauro anuncia la actividad.,Afirmación,En28,28,,,,,,,,,,,,,0,87,87,87,,,,,,,,,1,0.406852490151,2,0.283654661414,2018_may._18_1050,60.0489844043,Experimento Piloto1,001,123,
0.25,Stim\\03_075.jpg,Tr75_22,Tristeza,22,Enrique corre todas las mañanas.,Afirmación,Tr75,75,,,,,,,,,,,,,0,88,88,88,,,,,,,,,1,1.3860818918,4,0.283779164517,2018_may._18_1050,60.0489844043,Experimento Piloto1,001,123,
0.25,Stim\\05_028.jpg,En28_27,Enojo,27,Claudia informa los avances en el reporte.,Afirmación,En28,28,,,,,,,,,,,,,0,89,89,89,,,,,,,,,1,0.74712794992,2,0.0501216471175,2018_may._18_1050,60.0489844043,Experimento Piloto1,001,123,
2.5,Stim\\03_075.jpg,Tr75_22,Tristeza,22,Enrique corre todas las mañanas.,Afirmación,Tr75,75,,,,,,,,,,,,,0,90,90,90,,,,,,,,,1,1.31996449653,4,0.350391894714,2018_may._18_1050,60.0489844043,Experimento Piloto1,001,123,
0.25,Stim\\05_019.jpg,En19_28,Enojo,28,Antonio responde la pregunta.,Afirmación,En19,19,,,,,,,,,,,,,0,91,91,91,,,,,,,,,1,0.504808765018,2,0.33362458432,2018_may._18_1050,60.0489844043,Experimento Piloto1,001,123,
2.5,Stim\\03_019.jpg,Tr19_17,Tristeza,17,Brenda sube el autobús en las mañanas.,Afirmación,Tr19,19,,,,,,,,,,,,,0,92,92,92,,,,,,,,,1,0.365843220695,4,0.38350525769,2018_may._18_1050,60.0489844043,Experimento Piloto1,001,123,
0.25,Stim\\05_028.jpg,En28_29,Enojo,29,Miriam mira la película.,Afirmación,En28,28,,,,,,,,,,,,,0,93,93,93,,,,,,,,,1,0.974534429793,2,0.349989825552,2018_may._18_1050,60.0489844043,Experimento Piloto1,001,123,
0.25,Stim\\05_028.jpg,En28_18,Enojo,18,Sofía escucha la música.,Afirmación,En28,28,,,,,,,,,,,,,0,94,94,94,,,,,,,,,1,0.458715841972,2,0.283694823705,2018_may._18_1050,60.0489844043,Experimento Piloto1,001,123,
0.25,Stim\\05_028.jpg,En28_25,Enojo,25,Luis decide la comida siguiente.,Afirmación,En28,28,,,,,,,,,,,,,0,95,95,95,,,,,,,,,1,0.55177097855,2,0.350295951463,2018_may._18_1050,60.0489844043,Experimento Piloto1,001,123,
2.5,Stim\\03_075.jpg,Tr75_16,Tristeza,16,Valeria modifica algunas imágenes.,Afirmación,Tr75,75,,,,,,,,,,,,,0,96,96,96,,,,,,,,,1,0.300133695805,4,0.283752389657,2018_may._18_1050,60.0489844043,Experimento Piloto1,001,123,
2.5,Stim\\05_019.jpg,En19_18,Enojo,18,Sofía escucha la música.,Afirmación,En19,19,,,,,,,,,,,,,0,97,97,97,,,,,,,,,1,0.524162526975,2,0.283717136089,2018_may._18_1050,60.0489844043,Experimento Piloto1,001,123,
0.25,Stim\\05_075.jpg,En75_28,Enojo,28,Antonio responde la pregunta.,Afirmación,En75,75,,,,,,,,,,,,,0,98,98,98,,,,,,,,,1,0.504740042876,2,0.350436073235,2018_may._18_1050,60.0489844043,Experimento Piloto1,001,123,
0.25,Stim\\03_019.jpg,Tr19_24,Tristeza,24,Guadalupe comenta los resultados con los compañeros.,Afirmación,Tr19,19,,,,,,,,,,,,,0,99,99,99,,,,,,,,,1,1.00498815659,4,0.383696251698,2018_may._18_1050,60.0489844043,Experimento Piloto1,001,123,
0.25,Stim\\02_075.jpg,Al75_21,Alegría,21,Mauro anuncia la actividad.,Afirmación,Al75,75,,,,,,,,,,,,,0,100,100,100,,,,,,,,,1,4.15361674821,3,1.66678640979,2018_may._18_1050,60.0489844043,Experimento Piloto1,001,123,
0.25,Stim\\03_019.jpg,Tr19_23,Tristeza,23,Óscar consigue un nuevo departamento.,Afirmación,Tr19,19,,,,,,,,,,,,,0,101,101,101,,,,,,,,,1,1.22991617684,4,0.283664032615,2018_may._18_1050,60.0489844043,Experimento Piloto1,001,123,
2.5,Stim\\05_028.jpg,En28_30,Enojo,30,Marisol toma 2 litros de agua cada día.,Afirmación,En28,28,,,,,,,,,,,,,0,102,102,102,,,,,,,,,1,0.765982360721,2,0.28357478308,2018_may._18_1050,60.0489844043,Experimento Piloto1,001,123,
0.25,Stim\\02_078.jpg,Al78_19,Alegría,19,Armando acompaña a Rodrígo a la tienda.,Afirmación,Al78,78,,,,,,,,,,,,,0,103,103,103,,,,,,,,,1,1.6825608191,3,0.300335846006,2018_may._18_1050,60.0489844043,Experimento Piloto1,001,123,
2.5,Stim\\03_075.jpg,Tr75_25,Tristeza,25,Luis decide la comida siguiente.,Afirmación,Tr75,75,,,,,,,,,,,,,0,104,104,104,,,,,,,,,1,1.21859174942,4,0.35039278721,2018_may._18_1050,60.0489844043,Experimento Piloto1,001,123,
2.5,Stim\\03_028.jpg,Tr28_29,Tristeza,29,Miriam mira la película.,Afirmación,Tr28,28,,,,,,,,,,,,,0,105,105,105,,,,,,,,,1,0.656183564876,4,0.350230353053,2018_may._18_1050,60.0489844043,Experimento Piloto1,001,123,
0.25,Stim\\03_028.jpg,Tr28_24,Tristeza,24,Guadalupe comenta los resultados con los compañeros.,Afirmación,Tr28,28,,,,,,,,,,,,,0,106,106,106,,,,,,,,,1,0.790865131456,4,0.450279529548,2018_may._18_1050,60.0489844043,Experimento Piloto1,001,123,
0.25,Stim\\02_075.jpg,Al75_30,Alegría,30,Marisol toma 2 litros de agua cada día.,Afirmación,Al75,75,,,,,,,,,,,,,0,107,107,107,,,,,,,,,1,1.16512458343,3,0.30027515632,2018_may._18_1050,60.0489844043,Experimento Piloto1,001,123,
2.5,Stim\\05_019.jpg,En19_27,Enojo,27,Claudia informa los avances en el reporte.,Afirmación,En19,19,,,,,,,,,,,,,0,108,108,108,,,,,,,,,1,1.26304292724,2,0.500253914931,2018_may._18_1050,60.0489844043,Experimento Piloto1,001,123,
2.5,Stim\\05_075.jpg,En75_18,Enojo,18,Sofía escucha la música.,Afirmación,En75,75,,,,,,,,,,,,,0,109,109,109,,,,,,,,,1,0.724462583917,2,0.333802637146,2018_may._18_1050,60.0489844043,Experimento Piloto1,001,123,
2.5,Stim\\02_028.jpg,Al28_23,Alegría,23,Óscar consigue un nuevo departamento.,Afirmación,Al28,28,,,,,,,,,,,,,0,110,110,110,,,,,,,,,1,0.6663428396,3,0.450318799344,2018_may._18_1050,60.0489844043,Experimento Piloto1,001,123,
2.5,Stim\\05_078.jpg,En78_29,Enojo,29,Miriam mira la película.,Afirmación,En78,78,,,,,,,,,,,,,0,111,111,111,,,,,,,,,1,0.408441578146,2,0.233789160466,2018_may._18_1050,60.0489844043,Experimento Piloto1,001,123,
0.25,Stim\\03_078.jpg,Tr78_20,Tristeza,20,Karen analiza la idea.,Afirmación,Tr78,78,,,,,,,,,,,,,0,112,112,112,,,,,,,,,1,0.575136953413,4,0.383695805451,2018_may._18_1050,60.0489844043,Experimento Piloto1,001,123,
0.25,Stim\\02_019.jpg,Al19_25,Alegría,25,Luis decide la comida siguiente.,Afirmación,Al19,19,,,,,,,,,,,,,0,113,113,113,,,,,,,,,1,0.401722426802,3,0.299957427971,2018_may._18_1050,60.0489844043,Experimento Piloto1,001,123,
2.5,Stim\\03_078.jpg,Tr78_16,Tristeza,16,Valeria modifica algunas imágenes.,Afirmación,Tr78,78,,,,,,,,,,,,,0,114,114,114,,,,,,,,,1,0.850164754644,4,0.450466953575,2018_may._18_1050,60.0489844043,Experimento Piloto1,001,123,
0.25,Stim\\02_028.jpg,Al28_21,Alegría,21,Mauro anuncia la actividad.,Afirmación,Al28,28,,,,,,,,,,,,,0,115,115,115,,,,,,,,,1,0.606326988881,3,0.350308000149,2018_may._18_1050,60.0489844043,Experimento Piloto1,001,123,
2.5,Stim\\05_019.jpg,En19_30,Enojo,30,Marisol toma 2 litros de agua cada día.,Afirmación,En19,19,,,,,,,,,,,,,0,116,116,116,,,,,,,,,1,1.28287283548,2,1.00031371212,2018_may._18_1050,60.0489844043,Experimento Piloto1,001,123,
0.25,Stim\\05_078.jpg,En78_26,Enojo,26,Víctor trae el café a Marco.,Afirmación,En78,78,,,,,,,,,,,,,0,117,117,117,,,,,,,,,1,0.554521203013,2,0.300334061015,2018_may._18_1050,60.0489844043,Experimento Piloto1,001,123,
0.25,Stim\\02_078.jpg,Al78_21,Alegría,21,Mauro anuncia la actividad.,Afirmación,Al78,78,,,,,,,,,,,,,0,118,118,118,,,,,,,,,1,0.405964011017,3,0.283646182707,2018_may._18_1050,60.0489844043,Experimento Piloto1,001,123,
0.25,Stim\\03_075.jpg,Tr75_30,Tristeza,30,Marisol toma 2 litros de agua cada día.,Afirmación,Tr75,75,,,,,,,,,,,,,0,119,119,119,,,,,,,,,1,0.865817338329,4,0.383801119903,2018_may._18_1050,60.0489844043,Experimento Piloto1,001,123,
