Tiempo,ImagenesE,ClaveEn,Emocion,NumEn,Enunciado,ActoHabla,Clave,Cara,trials.thisRepN,trials.thisTrialN,trials.thisN,trials.thisIndex,Bloque3.thisRepN,Bloque3.thisTrialN,Bloque3.thisN,Bloque3.thisIndex,Bloque2.thisRepN,Bloque2.thisTrialN,Bloque2.thisN,Bloque2.thisIndex,Bloque1.thisRepN,Bloque1.thisTrialN,Bloque1.thisN,Bloque1.thisIndex,Sig_B3.keys,Sig_B3.rt,Resp_Bloque3.keys,Resp_Bloque3.rt,Sig_B2.keys,Sig_B2.rt,Resp_Bloque2.keys,Resp_Bloque2.rt,Sig_B1.keys,Sig_B1.rt,Resp_Bloque1.keys,Resp_Bloque1.rt,date,frameRate,expName,session,participant,
2.5,Stim\\03_019.jpg,Tr19_16,Tristeza,16,Valeria modifica algunas imágenes.,Afirmación,Tr19,19,,,,,0,0,0,0,,,,,,,,,1,3.91459533367,3,0.5503554809,,,,,,,,,2018_may._18_1500,60.0288771907,Experimento Piloto1,001,124,
2.5,Stim\\05_078.jpg,En78_19,Enojo,19,Armando acompaña a Rodrígo a la tienda.,Afirmación,En78,78,,,,,0,1,1,1,,,,,,,,,1,2.24640279744,2,0.500281136039,,,,,,,,,2018_may._18_1500,60.0288771907,Experimento Piloto1,001,124,
2.5,Stim\\02_075.jpg,Al75_21,Alegría,21,Mauro anuncia la actividad.,Afirmación,Al75,75,,,,,0,2,2,2,,,,,,,,,1,4.92153448513,3,0.600265160374,,,,,,,,,2018_may._18_1500,60.0288771907,Experimento Piloto1,001,124,
0.25,Stim\\02_075.jpg,Al75_16,Alegría,16,Valeria modifica algunas imágenes.,Afirmación,Al75,75,,,,,0,3,3,3,,,,,,,,,1,2.75077290098,3,0.600372706063,,,,,,,,,2018_may._18_1500,60.0288771907,Experimento Piloto1,001,124,
0.25,Stim\\05_078.jpg,En78_30,Enojo,30,Marisol toma 2 litros de agua cada día.,Afirmación,En78,78,,,,,0,4,4,4,,,,,,,,,1,4.9143503437,2,0.650293541727,,,,,,,,,2018_may._18_1500,60.0288771907,Experimento Piloto1,001,124,
0.25,Stim\\02_019.jpg,Al19_22,Alegría,22,Enrique corre todas las mañanas.,Afirmación,Al19,19,,,,,0,5,5,5,,,,,,,,,1,3.68498751399,3,0.283718028586,,,,,,,,,2018_may._18_1500,60.0288771907,Experimento Piloto1,001,124,
2.5,Stim\\05_028.jpg,En28_23,Enojo,23,Óscar consigue un nuevo departamento.,Afirmación,En28,28,,,,,0,6,6,6,,,,,,,,,1,5.13088890753,4,0.499971440146,,,,,,,,,2018_may._18_1500,60.0288771907,Experimento Piloto1,001,124,
0.25,Stim\\03_019.jpg,Tr19_16,Tristeza,16,Valeria modifica algunas imágenes.,Afirmación,Tr19,19,,,,,0,7,7,7,,,,,,,,,1,2.49254052375,3,0.283616730361,,,,,,,,,2018_may._18_1500,60.0288771907,Experimento Piloto1,001,124,
0.25,Stim\\02_078.jpg,Al78_17,Alegría,17,Brenda sube el autobús en las mañanas.,Afirmación,Al78,78,,,,,0,8,8,8,,,,,,,,,1,2.54586756797,3,0.250376633045,,,,,,,,,2018_may._18_1500,60.0288771907,Experimento Piloto1,001,124,
0.25,Stim\\02_078.jpg,Al78_16,Alegría,16,Valeria modifica algunas imágenes.,Afirmación,Al78,78,,,,,0,9,9,9,,,,,,,,,1,1.00175955461,3,0.300575927256,,,,,,,,,2018_may._18_1500,60.0288771907,Experimento Piloto1,001,124,
0.25,Stim\\05_075.jpg,En75_22,Enojo,22,Enrique corre todas las mañanas.,Afirmación,En75,75,,,,,0,10,10,10,,,,,,,,,1,2.8524825651,2,0.716611302203,,,,,,,,,2018_may._18_1500,60.0288771907,Experimento Piloto1,001,124,
0.25,Stim\\02_028.jpg,Al28_26,Alegría,26,Víctor trae el café a Marco.,Afirmación,Al28,28,,,,,0,11,11,11,,,,,,,,,1,4.70499190507,3,2.54959418236,,,,,,,,,2018_may._18_1500,60.0288771907,Experimento Piloto1,001,124,
2.5,Stim\\03_075.jpg,Tr75_28,Tristeza,28,Antonio responde la pregunta.,Afirmación,Tr75,75,,,,,0,12,12,12,,,,,,,,,1,3.8345817856,4,0.300299699942,,,,,,,,,2018_may._18_1500,60.0288771907,Experimento Piloto1,001,124,
0.25,Stim\\05_075.jpg,En75_23,Enojo,23,Óscar consigue un nuevo departamento.,Afirmación,En75,75,,,,,0,13,13,13,,,,,,,,,1,1.46516412097,2,0.550239456508,,,,,,,,,2018_may._18_1500,60.0288771907,Experimento Piloto1,001,124,
2.5,Stim\\02_078.jpg,Al78_28,Alegría,28,Antonio responde la pregunta.,Afirmación,Al78,78,,,,,0,14,14,14,,,,,,,,,1,2.87127003875,3,0.600204916936,,,,,,,,,2018_may._18_1500,60.0288771907,Experimento Piloto1,001,124,
2.5,Stim\\02_028.jpg,Al28_18,Alegría,18,Sofía escucha la música.,Afirmación,Al28,28,,,,,0,15,15,15,,,,,,,,,1,3.78992890382,3,2.25022133885,,,,,,,,,2018_may._18_1500,60.0288771907,Experimento Piloto1,001,124,
2.5,Stim\\02_019.jpg,Al19_22,Alegría,22,Enrique corre todas las mañanas.,Afirmación,Al19,19,,,,,0,16,16,16,,,,,,,,,1,1.58322162266,3,1.61672322112,,,,,,,,,2018_may._18_1500,60.0288771907,Experimento Piloto1,001,124,
2.5,Stim\\05_028.jpg,En28_28,Enojo,28,Antonio responde la pregunta.,Afirmación,En28,28,,,,,0,17,17,17,,,,,,,,,1,3.63553077591,2,0.600415545843,,,,,,,,,2018_may._18_1500,60.0288771907,Experimento Piloto1,001,124,
0.25,Stim\\03_078.jpg,Tr78_30,Tristeza,30,Marisol toma 2 litros de agua cada día.,Afirmación,Tr78,78,,,,,0,18,18,18,,,,,,,,,1,5.68091327266,3,0.500014726174,,,,,,,,,2018_may._18_1500,60.0288771907,Experimento Piloto1,001,124,
0.25,Stim\\03_019.jpg,Tr19_20,Tristeza,20,Karen analiza la idea.,Afirmación,Tr19,19,,,,,0,19,19,19,,,,,,,,,1,3.21848241874,3,0.233865468817,,,,,,,,,2018_may._18_1500,60.0288771907,Experimento Piloto1,001,124,
0.25,Stim\\05_028.jpg,En28_19,Enojo,19,Armando acompaña a Rodrígo a la tienda.,Afirmación,En28,28,,,,,0,20,20,20,,,,,,,,,1,2.81405885471,2,0.184609542204,,,,,,,,,2018_may._18_1500,60.0288771907,Experimento Piloto1,001,124,
0.25,Stim\\05_019.jpg,En19_26,Enojo,26,Víctor trae el café a Marco.,Afirmación,En19,19,,,,,0,21,21,21,,,,,,,,,1,1.38866031091,2,0.184403822022,,,,,,,,,2018_may._18_1500,60.0288771907,Experimento Piloto1,001,124,
0.25,Stim\\02_028.jpg,Al28_16,Alegría,16,Valeria modifica algunas imágenes.,Afirmación,Al28,28,,,,,0,22,22,22,,,,,,,,,1,2.91498133792,3,0.283783626994,,,,,,,,,2018_may._18_1500,60.0288771907,Experimento Piloto1,001,124,
2.5,Stim\\02_075.jpg,Al75_17,Alegría,17,Brenda sube el autobús en las mañanas.,Afirmación,Al75,75,,,,,0,23,23,23,,,,,,,,,1,1.43198917581,3,0.133864933323,,,,,,,,,2018_may._18_1500,60.0288771907,Experimento Piloto1,001,124,
2.5,Stim\\05_075.jpg,En75_30,Enojo,30,Marisol toma 2 litros de agua cada día.,Afirmación,En75,75,,,,,0,24,24,24,,,,,,,,,1,1.01002227669,2,0.300488908961,,,,,,,,,2018_may._18_1500,60.0288771907,Experimento Piloto1,001,124,
2.5,Stim\\03_075.jpg,Tr75_27,Tristeza,27,Claudia informa los avances en el reporte.,Afirmación,Tr75,75,,,,,0,25,25,25,,,,,,,,,1,5.87728411876,3,3.68265096113,,,,,,,,,2018_may._18_1500,60.0288771907,Experimento Piloto1,001,124,
2.5,Stim\\03_028.jpg,Tr28_24,Tristeza,24,Guadalupe comenta los resultados con los compañeros.,Afirmación,Tr28,28,,,,,0,26,26,26,,,,,,,,,1,3.32325066446,2,4.43259875015,,,,,,,,,2018_may._18_1500,60.0288771907,Experimento Piloto1,001,124,
0.25,Stim\\05_028.jpg,En28_24,Enojo,24,Guadalupe comenta los resultados con los compañeros.,Afirmación,En28,28,,,,,0,27,27,27,,,,,,,,,1,1.44992967137,2,0.233865915066,,,,,,,,,2018_may._18_1500,60.0288771907,Experimento Piloto1,001,124,
0.25,Stim\\03_028.jpg,Tr28_17,Tristeza,17,Brenda sube el autobús en las mañanas.,Afirmación,Tr28,28,,,,,0,28,28,28,,,,,,,,,1,4.6481136218,3,1.99961622699,,,,,,,,,2018_may._18_1500,60.0288771907,Experimento Piloto1,001,124,
0.25,Stim\\02_028.jpg,Al28_28,Alegría,28,Antonio responde la pregunta.,Afirmación,Al28,28,,,,,0,29,29,29,,,,,,,,,1,1.67072722307,3,0.150279261801,,,,,,,,,2018_may._18_1500,60.0288771907,Experimento Piloto1,001,124,
2.5,Stim\\02_028.jpg,Al28_24,Alegría,24,Guadalupe comenta los resultados con los compañeros.,Afirmación,Al28,28,,,,,0,30,30,30,,,,,,,,,1,1.7217418118,3,4.69889259175,,,,,,,,,2018_may._18_1500,60.0288771907,Experimento Piloto1,001,124,
0.25,Stim\\02_078.jpg,Al78_29,Alegría,29,Miriam mira la película.,Afirmación,Al78,78,,,,,0,31,31,31,,,,,,,,,1,1.84105371573,3,2.28313835285,,,,,,,,,2018_may._18_1500,60.0288771907,Experimento Piloto1,001,124,
0.25,Stim\\05_078.jpg,En78_19,Enojo,19,Armando acompaña a Rodrígo a la tienda.,Afirmación,En78,78,,,,,0,32,32,32,,,,,,,,,1,1.68169465235,2,0.15010344021,,,,,,,,,2018_may._18_1500,60.0288771907,Experimento Piloto1,001,124,
0.25,Stim\\03_019.jpg,Tr19_21,Tristeza,21,Mauro anuncia la actividad.,Afirmación,Tr19,19,,,,,0,33,33,33,,,,,,,,,1,2.03888602299,2,3.98252940326,,,,,,,,,2018_may._18_1500,60.0288771907,Experimento Piloto1,001,124,
0.25,Stim\\02_028.jpg,Al28_25,Alegría,25,Luis decide la comida siguiente.,Afirmación,Al28,28,,,,,0,34,34,34,,,,,,,,,1,2.74813066846,3,0.350369136082,,,,,,,,,2018_may._18_1500,60.0288771907,Experimento Piloto1,001,124,
2.5,Stim\\03_078.jpg,Tr78_26,Tristeza,26,Víctor trae el café a Marco.,Afirmación,Tr78,78,,,,,0,35,35,35,,,,,,,,,1,1.58896438408,4,0.133859578349,,,,,,,,,2018_may._18_1500,60.0288771907,Experimento Piloto1,001,124,
2.5,Stim\\05_078.jpg,En78_20,Enojo,20,Karen analiza la idea.,Afirmación,En78,78,,,,,0,36,36,36,,,,,,,,,1,3.19132244608,2,1.36669109129,,,,,,,,,2018_may._18_1500,60.0288771907,Experimento Piloto1,001,124,
2.5,Stim\\02_078.jpg,Al78_23,Alegría,23,Óscar consigue un nuevo departamento.,Afirmación,Al78,78,,,,,0,37,37,37,,,,,,,,,1,2.44953340342,3,1.93308337513,,,,,,,,,2018_may._18_1500,60.0288771907,Experimento Piloto1,001,124,
0.25,Stim\\03_078.jpg,Tr78_21,Tristeza,21,Mauro anuncia la actividad.,Afirmación,Tr78,78,,,,,0,38,38,38,,,,,,,,,1,2.25628495235,4,1.71671929414,,,,,,,,,2018_may._18_1500,60.0288771907,Experimento Piloto1,001,124,
2.5,Stim\\03_075.jpg,Tr75_18,Tristeza,18,Sofía escucha la música.,Afirmación,Tr75,75,,,,,0,39,39,39,,,,,,,,,1,3.24087200367,3,1.16670965519,,,,,,,,,2018_may._18_1500,60.0288771907,Experimento Piloto1,001,124,
2.5,Stim\\03_019.jpg,Tr19_19,Tristeza,19,Armando acompaña a Rodrígo a la tienda.,Afirmación,Tr19,19,,,,,0,40,40,40,,,,,,,,,1,2.91473010047,3,1.21650509526,,,,,,,,,2018_may._18_1500,60.0288771907,Experimento Piloto1,001,124,
0.25,Stim\\03_019.jpg,Tr19_17,Tristeza,17,Brenda sube el autobús en las mañanas.,Afirmación,Tr19,19,,,,,0,41,41,41,,,,,,,,,1,2.18277769547,3,0.450321030585,,,,,,,,,2018_may._18_1500,60.0288771907,Experimento Piloto1,001,124,
2.5,Stim\\05_078.jpg,En78_18,Enojo,18,Sofía escucha la música.,Afirmación,En78,78,,,,,0,42,42,42,,,,,,,,,1,2.35647558936,2,0.600673923251,,,,,,,,,2018_may._18_1500,60.0288771907,Experimento Piloto1,001,124,
0.25,Stim\\05_019.jpg,En19_24,Enojo,24,Guadalupe comenta los resultados con los compañeros.,Afirmación,En19,19,,,,,0,43,43,43,,,,,,,,,1,2.74012230756,2,0.250403854152,,,,,,,,,2018_may._18_1500,60.0288771907,Experimento Piloto1,001,124,
0.25,Stim\\02_075.jpg,Al75_20,Alegría,20,Karen analiza la idea.,Afirmación,Al75,75,,,,,0,44,44,44,,,,,,,,,1,1.02660885677,3,0.183700089427,,,,,,,,,2018_may._18_1500,60.0288771907,Experimento Piloto1,001,124,
0.25,Stim\\03_075.jpg,Tr75_23,Tristeza,23,Óscar consigue un nuevo departamento.,Afirmación,Tr75,75,,,,,0,45,45,45,,,,,,,,,1,1.53317673015,4,0.133710977872,,,,,,,,,2018_may._18_1500,60.0288771907,Experimento Piloto1,001,124,
0.25,Stim\\05_078.jpg,En78_16,Enojo,16,Valeria modifica algunas imágenes.,Afirmación,En78,78,,,,,0,46,46,46,,,,,,,,,1,2.85078593142,2,0.200365655353,,,,,,,,,2018_may._18_1500,60.0288771907,Experimento Piloto1,001,124,
2.5,Stim\\02_019.jpg,Al19_20,Alegría,20,Karen analiza la idea.,Afirmación,Al19,19,,,,,0,47,47,47,,,,,,,,,1,1.49154539142,3,0.233704373404,,,,,,,,,2018_may._18_1500,60.0288771907,Experimento Piloto1,001,124,
0.25,Stim\\03_075.jpg,Tr75_28,Tristeza,28,Antonio responde la pregunta.,Afirmación,Tr75,75,,,,,0,48,48,48,,,,,,,,,1,1.17128369393,4,0.133835480974,,,,,,,,,2018_may._18_1500,60.0288771907,Experimento Piloto1,001,124,
0.25,Stim\\05_078.jpg,En78_25,Enojo,25,Luis decide la comida siguiente.,Afirmación,En78,78,,,,,0,49,49,49,,,,,,,,,1,2.05131268218,2,0.233604860172,,,,,,,,,2018_may._18_1500,60.0288771907,Experimento Piloto1,001,124,
2.5,Stim\\03_019.jpg,Tr19_23,Tristeza,23,Óscar consigue un nuevo departamento.,Afirmación,Tr19,19,,,,,0,50,50,50,,,,,,,,,1,1.34618377907,3,0.133847975911,,,,,,,,,2018_may._18_1500,60.0288771907,Experimento Piloto1,001,124,
2.5,Stim\\03_075.jpg,Tr75_24,Tristeza,24,Guadalupe comenta los resultados con los compañeros.,Afirmación,Tr75,75,,,,,0,51,51,51,,,,,,,,,1,1.57413200364,4,1.68364921719,,,,,,,,,2018_may._18_1500,60.0288771907,Experimento Piloto1,001,124,
0.25,Stim\\02_078.jpg,Al78_20,Alegría,20,Karen analiza la idea.,Afirmación,Al78,78,,,,,0,52,52,52,,,,,,,,,1,2.80830984583,3,0.0837660448342,,,,,,,,,2018_may._18_1500,60.0288771907,Experimento Piloto1,001,124,
2.5,Stim\\02_078.jpg,Al78_30,Alegría,30,Marisol toma 2 litros de agua cada día.,Afirmación,Al78,78,,,,,0,53,53,53,,,,,,,,,1,1.38255832011,3,0.133705176653,,,,,,,,,2018_may._18_1500,60.0288771907,Experimento Piloto1,001,124,
2.5,Stim\\03_028.jpg,Tr28_27,Tristeza,27,Claudia informa los avances en el reporte.,Afirmación,Tr28,28,,,,,0,54,54,54,,,,,,,,,1,3.42971599013,4,5.6819543685,,,,,,,,,2018_may._18_1500,60.0288771907,Experimento Piloto1,001,124,
2.5,Stim\\02_075.jpg,Al75_28,Alegría,28,Antonio responde la pregunta.,Afirmación,Al75,75,,,,,0,55,55,55,,,,,,,,,1,1.5380448461,3,0.0340424506503,,,,,,,,,2018_may._18_1500,60.0288771907,Experimento Piloto1,001,124,
2.5,Stim\\03_078.jpg,Tr78_28,Tristeza,28,Antonio responde la pregunta.,Afirmación,Tr78,78,,,,,0,56,56,56,,,,,,,,,1,1.35010584995,4,0.0339786372278,,,,,,,,,2018_may._18_1500,60.0288771907,Experimento Piloto1,001,124,
0.25,Stim\\03_028.jpg,Tr28_19,Tristeza,19,Armando acompaña a Rodrígo a la tienda.,Afirmación,Tr28,28,,,,,0,57,57,57,,,,,,,,,1,1.66524908653,4,0.100494531682,,,,,,,,,2018_may._18_1500,60.0288771907,Experimento Piloto1,001,124,
2.5,Stim\\05_078.jpg,En78_21,Enojo,21,Mauro anuncia la actividad.,Afirmación,En78,78,,,,,0,58,58,58,,,,,,,,,1,1.83904961739,2,1.46666976065,,,,,,,,,2018_may._18_1500,60.0288771907,Experimento Piloto1,001,124,
0.25,Stim\\05_028.jpg,En28_17,Enojo,17,Brenda sube el autobús en las mañanas.,Afirmación,En28,28,,,,,0,59,59,59,,,,,,,,,1,1.33240945188,2,0.133735521496,,,,,,,,,2018_may._18_1500,60.0288771907,Experimento Piloto1,001,124,
0.25,Stim\\03_075.jpg,Tr75_20,Tristeza,20,Karen analiza la idea.,Afirmación,Tr75,75,,,,,0,60,60,60,,,,,,,,,1,1.37550492925,3,0.200421436311,,,,,,,,,2018_may._18_1500,60.0288771907,Experimento Piloto1,001,124,
2.5,Stim\\03_078.jpg,Tr78_21,Tristeza,21,Mauro anuncia la actividad.,Afirmación,Tr78,78,,,,,0,61,61,61,,,,,,,,,1,2.92069910947,4,0.13359763096,,,,,,,,,2018_may._18_1500,60.0288771907,Experimento Piloto1,001,124,
0.25,Stim\\05_075.jpg,En75_17,Enojo,17,Brenda sube el autobús en las mañanas.,Afirmación,En75,75,,,,,0,62,62,62,,,,,,,,,1,1.53205263224,2,0.13361280338,,,,,,,,,2018_may._18_1500,60.0288771907,Experimento Piloto1,001,124,
0.25,Stim\\03_019.jpg,Tr19_26,Tristeza,26,Víctor trae el café a Marco.,Afirmación,Tr19,19,,,,,0,63,63,63,,,,,,,,,1,1.78824610381,2,0.183678669542,,,,,,,,,2018_may._18_1500,60.0288771907,Experimento Piloto1,001,124,
0.25,Stim\\05_019.jpg,En19_30,Enojo,30,Marisol toma 2 litros de agua cada día.,Afirmación,En19,19,,,,,0,64,64,64,,,,,,,,,1,1.11494001539,3,0.133827002268,,,,,,,,,2018_may._18_1500,60.0288771907,Experimento Piloto1,001,124,
0.25,Stim\\02_019.jpg,Al19_27,Alegría,27,Claudia informa los avances en el reporte.,Afirmación,Al19,19,,,,,0,65,65,65,,,,,,,,,1,5.47888489845,3,2.69965835278,,,,,,,,,2018_may._18_1500,60.0288771907,Experimento Piloto1,001,124,
0.25,Stim\\05_028.jpg,En28_23,Enojo,23,Óscar consigue un nuevo departamento.,Afirmación,En28,28,,,,,0,66,66,66,,,,,,,,,1,1.16636872197,2,0.183787107726,,,,,,,,,2018_may._18_1500,60.0288771907,Experimento Piloto1,001,124,
0.25,Stim\\05_019.jpg,En19_18,Enojo,18,Sofía escucha la música.,Afirmación,En19,19,,,,,0,67,67,67,,,,,,,,,1,1.94017023457,2,0.150399748676,,,,,,,,,2018_may._18_1500,60.0288771907,Experimento Piloto1,001,124,
0.25,Stim\\05_075.jpg,En75_25,Enojo,25,Luis decide la comida siguiente.,Afirmación,En75,75,,,,,0,68,68,68,,,,,,,,,1,1.46809507575,2,0.133927854244,,,,,,,,,2018_may._18_1500,60.0288771907,Experimento Piloto1,001,124,
0.25,Stim\\03_078.jpg,Tr78_16,Tristeza,16,Valeria modifica algunas imágenes.,Afirmación,Tr78,78,,,,,0,69,69,69,,,,,,,,,1,3.33420202882,3,0.183700981925,,,,,,,,,2018_may._18_1500,60.0288771907,Experimento Piloto1,001,124,
0.25,Stim\\05_019.jpg,En19_27,Enojo,27,Claudia informa los avances en el reporte.,Afirmación,En19,19,,,,,0,70,70,70,,,,,,,,,1,0.963901686282,2,0.133691342973,,,,,,,,,2018_may._18_1500,60.0288771907,Experimento Piloto1,001,124,
0.25,Stim\\05_075.jpg,En75_30,Enojo,30,Marisol toma 2 litros de agua cada día.,Afirmación,En75,75,,,,,0,71,71,71,,,,,,,,,1,1.41535216975,2,0.100374491056,,,,,,,,,2018_may._18_1500,60.0288771907,Experimento Piloto1,001,124,
2.5,Stim\\02_028.jpg,Al28_16,Alegría,16,Valeria modifica algunas imágenes.,Afirmación,Al28,28,,,,,0,72,72,72,,,,,,,,,1,3.16862628899,3,1.06689520498,,,,,,,,,2018_may._18_1500,60.0288771907,Experimento Piloto1,001,124,
0.25,Stim\\05_075.jpg,En75_29,Enojo,29,Miriam mira la película.,Afirmación,En75,75,,,,,0,73,73,73,,,,,,,,,1,1.17500361461,2,0.133652965673,,,,,,,,,2018_may._18_1500,60.0288771907,Experimento Piloto1,001,124,
2.5,Stim\\02_028.jpg,Al28_28,Alegría,28,Antonio responde la pregunta.,Afirmación,Al28,28,,,,,0,74,74,74,,,,,,,,,1,1.12141283801,3,0.100518182808,,,,,,,,,2018_may._18_1500,60.0288771907,Experimento Piloto1,001,124,
2.5,Stim\\03_019.jpg,Tr19_28,Tristeza,28,Antonio responde la pregunta.,Afirmación,Tr19,19,,,,,0,75,75,75,,,,,,,,,1,1.08350945242,3,0.133761850106,,,,,,,,,2018_may._18_1500,60.0288771907,Experimento Piloto1,001,124,
0.25,Stim\\02_028.jpg,Tr28_30,Tristeza,30,Marisol toma 2 litros de agua cada día.,Afirmación,Tr28,28,,,,,0,76,76,76,,,,,,,,,1,0.915993427665,3,0.133651626933,,,,,,,,,2018_may._18_1500,60.0288771907,Experimento Piloto1,001,124,
2.5,Stim\\02_075.jpg,Al75_27,Alegría,27,Claudia informa los avances en el reporte.,Afirmación,Al75,75,,,,,0,77,77,77,,,,,,,,,1,1.48072031516,3,0.134015318788,,,,,,,,,2018_may._18_1500,60.0288771907,Experimento Piloto1,001,124,
2.5,Stim\\02_075.jpg,Al75_20,Alegría,20,Karen analiza la idea.,Afirmación,Al75,75,,,,,0,78,78,78,,,,,,,,,1,1.19226358244,3,0.133711870367,,,,,,,,,2018_may._18_1500,60.0288771907,Experimento Piloto1,001,124,
2.5,Stim\\05_019.jpg,En19_28,Enojo,28,Antonio responde la pregunta.,Afirmación,En19,19,,,,,0,79,79,79,,,,,,,,,1,0.922098095951,2,0.183936600697,,,,,,,,,2018_may._18_1500,60.0288771907,Experimento Piloto1,001,124,
2.5,Stim\\02_078.jpg,Al78_21,Alegría,21,Mauro anuncia la actividad.,Afirmación,Al78,78,,,,,0,80,80,80,,,,,,,,,1,1.08877294383,3,0.133688219241,,,,,,,,,2018_may._18_1500,60.0288771907,Experimento Piloto1,001,124,
2.5,Stim\\03_078.jpg,Tr78_19,Tristeza,19,Armando acompaña a Rodrígo a la tienda.,Afirmación,Tr78,78,,,,,0,81,81,81,,,,,,,,,1,0.815235163605,4,0.133877428256,,,,,,,,,2018_may._18_1500,60.0288771907,Experimento Piloto1,001,124,
2.5,Stim\\05_075.jpg,En75_22,Enojo,22,Enrique corre todas las mañanas.,Afirmación,En75,75,,,,,0,82,82,82,,,,,,,,,1,1.16931217167,2,0.300425988036,,,,,,,,,2018_may._18_1500,60.0288771907,Experimento Piloto1,001,124,
0.25,Stim\\03_019.jpg,Tr19_19,Tristeza,19,Armando acompaña a Rodrígo a la tienda.,Afirmación,Tr19,19,,,,,0,83,83,83,,,,,,,,,1,1.36304703272,3,0.200050158241,,,,,,,,,2018_may._18_1500,60.0288771907,Experimento Piloto1,001,124,
2.5,Stim\\03_019.jpg,Tr19_27,Tristeza,27,Claudia informa los avances en el reporte.,Afirmación,Tr19,19,,,,,0,84,84,84,,,,,,,,,1,1.73043427039,3,0.0836433267214,,,,,,,,,2018_may._18_1500,60.0288771907,Experimento Piloto1,001,124,
0.25,Stim\\05_078.jpg,En78_18,Enojo,18,Sofía escucha la música.,Afirmación,En78,78,,,,,0,85,85,85,,,,,,,,,1,0.974581285802,2,0.0837856797334,,,,,,,,,2018_may._18_1500,60.0288771907,Experimento Piloto1,001,124,
2.5,Stim\\05_019.jpg,En19_25,Enojo,25,Luis decide la comida siguiente.,Afirmación,En19,19,,,,,0,86,86,86,,,,,,,,,1,1.21969353494,2,0.100391002219,,,,,,,,,2018_may._18_1500,60.0288771907,Experimento Piloto1,001,124,
0.25,Stim\\05_028.jpg,En28_16,Enojo,16,Valeria modifica algunas imágenes.,Afirmación,En28,28,,,,,0,87,87,87,,,,,,,,,1,0.952216690734,2,0.0338791239992,,,,,,,,,2018_may._18_1500,60.0288771907,Experimento Piloto1,001,124,
2.5,Stim\\02_028.jpg,Al28_22,Alegría,22,Enrique corre todas las mañanas.,Afirmación,Al28,28,,,,,0,88,88,88,,,,,,,,,1,1.43668414767,3,0.0838499394013,,,,,,,,,2018_may._18_1500,60.0288771907,Experimento Piloto1,001,124,
0.25,Stim\\03_078.jpg,Tr78_17,Tristeza,17,Brenda sube el autobús en las mañanas.,Afirmación,Tr78,78,,,,,0,89,89,89,,,,,,,,,1,1.83351436114,4,0.350318710094,,,,,,,,,2018_may._18_1500,60.0288771907,Experimento Piloto1,001,124,
2.5,Stim\\02_028.jpg,Al28_25,Alegría,25,Luis decide la comida siguiente.,Afirmación,Al28,28,,,,,0,90,90,90,,,,,,,,,1,1.3844861101,3,0.0838084383649,,,,,,,,,2018_may._18_1500,60.0288771907,Experimento Piloto1,001,124,
0.25,Stim\\03_028.jpg,Tr28_18,Tristeza,18,Sofía escucha la música.,Afirmación,Tr28,28,,,,,0,91,91,91,,,,,,,,,1,1.89056311102,4,0.133856454613,,,,,,,,,2018_may._18_1500,60.0288771907,Experimento Piloto1,001,124,
2.5,Stim\\03_075.jpg,Tr75_26,Tristeza,26,Víctor trae el café a Marco.,Afirmación,Tr75,75,,,,,0,92,92,92,,,,,,,,,1,1.38797621321,4,0.0837722923025,,,,,,,,,2018_may._18_1500,60.0288771907,Experimento Piloto1,001,124,
0.25,Stim\\02_019.jpg,Al19_19,Alegría,19,Armando acompaña a Rodrígo a la tienda.,Afirmación,Al19,19,,,,,0,93,93,93,,,,,,,,,1,2.44771896035,3,0.133726150292,,,,,,,,,2018_may._18_1500,60.0288771907,Experimento Piloto1,001,124,
0.25,Stim\\02_028.jpg,Al28_24,Alegría,24,Guadalupe comenta los resultados con los compañeros.,Afirmación,Al28,28,,,,,0,94,94,94,,,,,,,,,1,1.10561076135,3,0.100428040776,,,,,,,,,2018_may._18_1500,60.0288771907,Experimento Piloto1,001,124,
0.25,Stim\\05_078.jpg,En78_20,Enojo,20,Karen analiza la idea.,Afirmación,En78,78,,,,,0,95,95,95,,,,,,,,,1,0.908264864061,2,0.150165468644,,,,,,,,,2018_may._18_1500,60.0288771907,Experimento Piloto1,001,124,
2.5,Stim\\02_019.jpg,Al19_17,Alegría,17,Brenda sube el autobús en las mañanas.,Afirmación,Al19,19,,,,,0,96,96,96,,,,,,,,,1,2.29840136231,3,0.0837776472763,,,,,,,,,2018_may._18_1500,60.0288771907,Experimento Piloto1,001,124,
0.25,Stim\\03_019.jpg,Tr19_18,Tristeza,18,Sofía escucha la música.,Afirmación,Tr19,19,,,,,0,97,97,97,,,,,,,,,1,4.97116213606,3,0.133714101605,,,,,,,,,2018_may._18_1500,60.0288771907,Experimento Piloto1,001,124,
0.25,Stim\\02_075.jpg,Al75_26,Alegría,26,Víctor trae el café a Marco.,Afirmación,Al75,75,,,,,0,98,98,98,,,,,,,,,1,3.98690396928,3,0.0838227182903,,,,,,,,,2018_may._18_1500,60.0288771907,Experimento Piloto1,001,124,
2.5,Stim\\02_075.jpg,Al75_18,Alegría,18,Sofía escucha la música.,Afirmación,Al75,75,,,,,0,99,99,99,,,,,,,,,1,1.75754872579,3,0.0837580123771,,,,,,,,,2018_may._18_1500,60.0288771907,Experimento Piloto1,001,124,
2.5,Stim\\05_019.jpg,En19_24,Enojo,24,Guadalupe comenta los resultados con los compañeros.,Afirmación,En19,19,,,,,0,100,100,100,,,,,,,,,1,4.7060628995,2,0.0837803247596,,,,,,,,,2018_may._18_1500,60.0288771907,Experimento Piloto1,001,124,
2.5,Stim\\03_019.jpg,Tr19_30,Tristeza,30,Marisol toma 2 litros de agua cada día.,Afirmación,Tr19,19,,,,,0,101,101,101,,,,,,,,,1,3.52769145364,3,0.0337738095441,,,,,,,,,2018_may._18_1500,60.0288771907,Experimento Piloto1,001,124,
2.5,Stim\\05_075.jpg,En75_17,Enojo,17,Brenda sube el autobús en las mañanas.,Afirmación,En75,75,,,,,0,102,102,102,,,,,,,,,1,1.57725216742,2,0.0837923734471,,,,,,,,,2018_may._18_1500,60.0288771907,Experimento Piloto1,001,124,
0.25,Stim\\02_019.jpg,Al19_29,Alegría,29,Miriam mira la película.,Afirmación,Al19,19,,,,,0,103,103,103,,,,,,,,,1,1.54066075002,3,0.0837553348902,,,,,,,,,2018_may._18_1500,60.0288771907,Experimento Piloto1,001,124,
0.25,Stim\\05_078.jpg,En78_22,Enojo,22,Enrique corre todas las mañanas.,Afirmación,En78,78,,,,,0,104,104,104,,,,,,,,,1,4.45218813088,2,0.0837941584396,,,,,,,,,2018_may._18_1500,60.0288771907,Experimento Piloto1,001,124,
0.25,Stim\\03_028.jpg,Tr28_21,Tristeza,21,Mauro anuncia la actividad.,Afirmación,Tr28,28,,,,,0,105,105,105,,,,,,,,,1,1.32276425449,4,0.033814418086,,,,,,,,,2018_may._18_1500,60.0288771907,Experimento Piloto1,001,124,
2.5,Stim\\05_028.jpg,En28_19,Enojo,19,Armando acompaña a Rodrígo a la tienda.,Afirmación,En28,28,,,,,0,106,106,106,,,,,,,,,1,1.58162405597,2,0.0839922924097,,,,,,,,,2018_may._18_1500,60.0288771907,Experimento Piloto1,001,124,
2.5,Stim\\03_019.jpg,Tr19_29,Tristeza,29,Miriam mira la película.,Afirmación,Tr19,19,,,,,0,107,107,107,,,,,,,,,1,2.4741386081,3,0.0338135255915,,,,,,,,,2018_may._18_1500,60.0288771907,Experimento Piloto1,001,124,
2.5,Stim\\05_078.jpg,En78_17,Enojo,17,Brenda sube el autobús en las mañanas.,Afirmación,En78,78,,,,,0,108,108,108,,,,,,,,,1,3.87716363189,2,0.100411975862,,,,,,,,,2018_may._18_1500,60.0288771907,Experimento Piloto1,001,124,
2.5,Stim\\02_028.jpg,Al28_21,Alegría,21,Mauro anuncia la actividad.,Afirmación,Al28,28,,,,,0,109,109,109,,,,,,,,,1,1.32342246982,3,0.15015565119,,,,,,,,,2018_may._18_1500,60.0288771907,Experimento Piloto1,001,124,
0.25,Stim\\02_075.jpg,Al75_27,Alegría,27,Claudia informa los avances en el reporte.,Afirmación,Al75,75,,,,,0,110,110,110,,,,,,,,,1,2.59677327226,3,0.08378434099,,,,,,,,,2018_may._18_1500,60.0288771907,Experimento Piloto1,001,124,
0.25,Stim\\02_019.jpg,Al19_28,Alegría,28,Antonio responde la pregunta.,Afirmación,Al19,19,,,,,0,111,111,111,,,,,,,,,1,2.87087332456,3,0.0339054526121,,,,,,,,,2018_may._18_1500,60.0288771907,Experimento Piloto1,001,124,
2.5,Stim\\05_019.jpg,En19_20,Enojo,20,Karen analiza la idea.,Afirmación,En19,19,,,,,0,112,112,112,,,,,,,,,1,1.69189721309,2,0.0338389617064,,,,,,,,,2018_may._18_1500,60.0288771907,Experimento Piloto1,001,124,
2.5,Stim\\03_078.jpg,Tr78_22,Tristeza,22,Enrique corre todas las mañanas.,Afirmación,Tr78,78,,,,,0,113,113,113,,,,,,,,,1,0.820545957264,4,0.183692056969,,,,,,,,,2018_may._18_1500,60.0288771907,Experimento Piloto1,001,124,
2.5,Stim\\05_028.jpg,En28_18,Enojo,18,Sofía escucha la música.,Afirmación,En28,28,,,,,0,114,114,114,,,,,,,,,1,1.19197039771,2,0.0838231645394,,,,,,,,,2018_may._18_1500,60.0288771907,Experimento Piloto1,001,124,
0.25,Stim\\03_075.jpg,Tr75_29,Tristeza,29,Miriam mira la película.,Afirmación,Tr75,75,,,,,0,115,115,115,,,,,,,,,1,1.74164445841,4,0.0837446249461,,,,,,,,,2018_may._18_1500,60.0288771907,Experimento Piloto1,001,124,
0.25,Stim\\03_078.jpg,Tr78_24,Tristeza,24,Guadalupe comenta los resultados con los compañeros.,Afirmación,Tr78,78,,,,,0,116,116,116,,,,,,,,,1,1.82007962844,4,0.133774791291,,,,,,,,,2018_may._18_1500,60.0288771907,Experimento Piloto1,001,124,
2.5,Stim\\05_075.jpg,En75_23,Enojo,23,Óscar consigue un nuevo departamento.,Afirmación,En75,75,,,,,0,117,117,117,,,,,,,,,1,3.94913936672,2,0.133687772992,,,,,,,,,2018_may._18_1500,60.0288771907,Experimento Piloto1,001,124,
2.5,Stim\\03_019.jpg,Tr19_21,Tristeza,21,Mauro anuncia la actividad.,Afirmación,Tr19,19,,,,,0,118,118,118,,,,,,,,,1,2.82270133356,3,0.0836598378883,,,,,,,,,2018_may._18_1500,60.0288771907,Experimento Piloto1,001,124,
0.25,Stim\\03_078.jpg,Tr78_29,Tristeza,29,Miriam mira la película.,Afirmación,Tr78,78,,,,,0,119,119,119,,,,,,,,,1,0.758045399456,4,0.0500921947714,,,,,,,,,2018_may._18_1500,60.0288771907,Experimento Piloto1,001,124,
2.5,Stim\\02_078.jpg,Al78_17,Alegría,17,Brenda sube el autobús en las mañanas.,Afirmación,Al78,78,,,,,,,,,0,0,0,0,,,,,,,,,1,1.81526952468,3,0.0340259394834,,,,,2018_may._18_1500,60.0288771907,Experimento Piloto1,001,124,
2.5,Stim\\05_019.jpg,En19_23,Enojo,23,Óscar consigue un nuevo departamento.,Afirmación,En19,19,,,,,,,,,0,1,1,1,,,,,,,,,1,2.56638960636,2,0.0836692090888,,,,,2018_may._18_1500,60.0288771907,Experimento Piloto1,001,124,
0.25,Stim\\02_075.jpg,Al75_17,Alegría,17,Brenda sube el autobús en las mañanas.,Afirmación,Al75,75,,,,,,,,,0,2,2,2,,,,,,,,,1,3.57793671137,3,0.0335292658128,,,,,2018_may._18_1500,60.0288771907,Experimento Piloto1,001,124,
2.5,Stim\\02_075.jpg,Al75_24,Alegría,24,Guadalupe comenta los resultados con los compañeros.,Afirmación,Al75,75,,,,,,,,,0,3,3,3,,,,,,,,,1,4.37753758744,3,1.41671545641,,,,,2018_may._18_1500,60.0288771907,Experimento Piloto1,001,124,
0.25,Stim\\05_075.jpg,En75_19,Enojo,19,Armando acompaña a Rodrígo a la tienda.,Afirmación,En75,75,,,,,,,,,0,4,4,4,,,,,,,,,1,1.21524176807,2,0.0839623938155,,,,,2018_may._18_1500,60.0288771907,Experimento Piloto1,001,124,
2.5,Stim\\02_019.jpg,Al19_29,Alegría,29,Miriam mira la película.,Afirmación,Al19,19,,,,,,,,,0,5,5,5,,,,,,,,,1,4.52073757602,3,1.41678640979,,,,,2018_may._18_1500,60.0288771907,Experimento Piloto1,001,124,
2.5,Stim\\02_078.jpg,Al78_24,Alegría,24,Guadalupe comenta los resultados con los compañeros.,Afirmación,Al78,78,,,,,,,,,0,6,6,6,,,,,,,,,1,7.17052061039,3,0.133808259867,,,,,2018_may._18_1500,60.0288771907,Experimento Piloto1,001,124,
0.25,Stim\\05_028.jpg,En28_20,Enojo,20,Karen analiza la idea.,Afirmación,En28,28,,,,,,,,,0,7,7,7,,,,,,,,,1,4.24118705453,2,1.06685950516,,,,,2018_may._18_1500,60.0288771907,Experimento Piloto1,001,124,
0.25,Stim\\03_078.jpg,Tr78_27,Tristeza,27,Claudia informa los avances en el reporte.,Afirmación,Tr78,78,,,,,,,,,0,8,8,8,,,,,,,,,1,1.77978390902,4,0.183822361294,,,,,2018_may._18_1500,60.0288771907,Experimento Piloto1,001,124,
0.25,Stim\\02_019.jpg,Al19_30,Alegría,30,Marisol toma 2 litros de agua cada día.,Afirmación,Al19,19,,,,,,,,,0,9,9,9,,,,,,,,,1,2.19812906197,3,0.133797996172,,,,,2018_may._18_1500,60.0288771907,Experimento Piloto1,001,124,
2.5,Stim\\02_019.jpg,Al19_19,Alegría,19,Armando acompaña a Rodrígo a la tienda.,Afirmación,Al19,19,,,,,,,,,0,10,10,10,,,,,,,,,1,5.89767808406,2,1.46680765118,,,,,2018_may._18_1500,60.0288771907,Experimento Piloto1,001,124,
0.25,Stim\\02_028.jpg,Al28_30,Alegría,30,Marisol toma 2 litros de agua cada día.,Afirmación,Al28,28,,,,,,,,,0,11,11,11,,,,,,,,,1,1.16530486749,3,0.083843691933,,,,,2018_may._18_1500,60.0288771907,Experimento Piloto1,001,124,
2.5,Stim\\02_019.jpg,Al19_16,Alegría,16,Valeria modifica algunas imágenes.,Afirmación,Al19,19,,,,,,,,,0,12,12,12,,,,,,,,,1,3.2343884711,3,0.0837557811392,,,,,2018_may._18_1500,60.0288771907,Experimento Piloto1,001,124,
2.5,Stim\\03_075.jpg,Tr75_30,Tristeza,30,Marisol toma 2 litros de agua cada día.,Afirmación,Tr75,75,,,,,,,,,0,13,13,13,,,,,,,,,1,1.01560751267,4,0.133910450586,,,,,2018_may._18_1500,60.0288771907,Experimento Piloto1,001,124,
2.5,Stim\\02_078.jpg,Al78_19,Alegría,19,Armando acompaña a Rodrígo a la tienda.,Afirmación,Al78,78,,,,,,,,,0,14,14,14,,,,,,,,,1,6.56315877314,3,0.600348608688,,,,,2018_may._18_1500,60.0288771907,Experimento Piloto1,001,124,
2.5,Stim\\05_075.jpg,En75_25,Enojo,25,Luis decide la comida siguiente.,Afirmación,En75,75,,,,,,,,,0,15,15,15,,,,,,,,,1,1.5854483986,2,3.36601190232,,,,,2018_may._18_1500,60.0288771907,Experimento Piloto1,001,124,
0.25,Stim\\03_075.jpg,Tr75_24,Tristeza,24,Guadalupe comenta los resultados con los compañeros.,Afirmación,Tr75,75,,,,,,,,,0,16,16,16,,,,,,,,,1,2.58814864332,3,0.0838151320786,,,,,2018_may._18_1500,60.0288771907,Experimento Piloto1,001,124,
2.5,Stim\\05_078.jpg,En78_25,Enojo,25,Luis decide la comida siguiente.,Afirmación,En78,78,,,,,,,,,0,17,17,17,,,,,,,,,1,1.18456804117,2,0.0837807710086,,,,,2018_may._18_1500,60.0288771907,Experimento Piloto1,001,124,
2.5,Stim\\05_028.jpg,En28_17,Enojo,17,Brenda sube el autobús en las mañanas.,Afirmación,En28,28,,,,,,,,,0,18,18,18,,,,,,,,,1,1.33201363019,2,0.333625030566,,,,,2018_may._18_1500,60.0288771907,Experimento Piloto1,001,124,
0.25,Stim\\02_078.jpg,Al78_26,Alegría,26,Víctor trae el café a Marco.,Afirmación,Al78,78,,,,,,,,,0,19,19,19,,,,,,,,,1,3.9384606597,3,0.150466239578,,,,,2018_may._18_1500,60.0288771907,Experimento Piloto1,001,124,
2.5,Stim\\03_075.jpg,Tr75_20,Tristeza,20,Karen analiza la idea.,Afirmación,Tr75,75,,,,,,,,,0,20,20,20,,,,,,,,,1,2.20833608519,4,0.133914466816,,,,,2018_may._18_1500,60.0288771907,Experimento Piloto1,001,124,
2.5,Stim\\05_028.jpg,En28_21,Enojo,21,Mauro anuncia la actividad.,Afirmación,En28,28,,,,,,,,,0,21,21,21,,,,,,,,,1,2.25475119907,2,1.61674151728,,,,,2018_may._18_1500,60.0288771907,Experimento Piloto1,001,124,
0.25,Stim\\05_019.jpg,En19_21,Enojo,21,Mauro anuncia la actividad.,Afirmación,En19,19,,,,,,,,,0,22,22,22,,,,,,,,,1,1.45003275458,2,0.700240706003,,,,,2018_may._18_1500,60.0288771907,Experimento Piloto1,001,124,
0.25,Stim\\03_028.jpg,Tr28_16,Tristeza,16,Valeria modifica algunas imágenes.,Afirmación,Tr28,28,,,,,,,,,0,23,23,23,,,,,,,,,1,2.5009826374,3,2.23322153341,,,,,2018_may._18_1500,60.0288771907,Experimento Piloto1,001,124,
0.25,Stim\\05_075.jpg,En75_27,Enojo,27,Claudia informa los avances en el reporte.,Afirmación,En75,75,,,,,,,,,0,24,24,24,,,,,,,,,1,2.91255776676,2,0.133712762865,,,,,2018_may._18_1500,60.0288771907,Experimento Piloto1,001,124,
2.5,Stim\\02_078.jpg,Al78_18,Alegría,18,Sofía escucha la música.,Afirmación,Al78,78,,,,,,,,,0,25,25,25,,,,,,,,,1,1.80720672156,3,1.51666244219,,,,,2018_may._18_1500,60.0288771907,Experimento Piloto1,001,124,
2.5,Stim\\03_028.jpg,Tr28_25,Tristeza,25,Luis decide la comida siguiente.,Afirmación,Tr28,28,,,,,,,,,0,26,26,26,,,,,,,,,1,1.3858891128,2,0.333787464722,,,,,2018_may._18_1500,60.0288771907,Experimento Piloto1,001,124,
0.25,Stim\\03_075.jpg,Tr75_18,Tristeza,18,Sofía escucha la música.,Afirmación,Tr75,75,,,,,,,,,0,27,27,27,,,,,,,,,1,3.27383364243,3,0.100432503252,,,,,2018_may._18_1500,60.0288771907,Experimento Piloto1,001,124,
2.5,Stim\\02_028.jpg,Al28_27,Alegría,27,Claudia informa los avances en el reporte.,Afirmación,Al28,28,,,,,,,,,0,28,28,28,,,,,,,,,1,2.54421109657,3,0.0837249900469,,,,,2018_may._18_1500,60.0288771907,Experimento Piloto1,001,124,
2.5,Stim\\02_028.jpg,Al28_20,Alegría,20,Karen analiza la idea.,Afirmación,Al28,28,,,,,,,,,0,29,29,29,,,,,,,,,1,1.80958566795,3,1.15013289256,,,,,2018_may._18_1500,60.0288771907,Experimento Piloto1,001,124,
0.25,Stim\\05_078.jpg,En78_29,Enojo,29,Miriam mira la película.,Afirmación,En78,78,,,,,,,,,0,30,30,30,,,,,,,,,1,1.44082934239,2,0.0836495741896,,,,,2018_may._18_1500,60.0288771907,Experimento Piloto1,001,124,
0.25,Stim\\05_019.jpg,En19_22,Enojo,22,Enrique corre todas las mañanas.,Afirmación,En19,19,,,,,,,,,0,31,31,31,,,,,,,,,1,0.919844098909,2,0.083746856184,,,,,2018_may._18_1500,60.0288771907,Experimento Piloto1,001,124,
2.5,Stim\\03_019.jpg,Tr19_20,Tristeza,20,Karen analiza la idea.,Afirmación,Tr19,19,,,,,,,,,0,32,32,32,,,,,,,,,1,3.34141696134,3,0.0837981746699,,,,,2018_may._18_1500,60.0288771907,Experimento Piloto1,001,124,
2.5,Stim\\05_078.jpg,En78_22,Enojo,22,Enrique corre todas las mañanas.,Afirmación,En78,78,,,,,,,,,0,33,33,33,,,,,,,,,1,0.65294291421,2,0.500431521508,,,,,2018_may._18_1500,60.0288771907,Experimento Piloto1,001,124,
2.5,Stim\\02_078.jpg,Al78_16,Alegría,16,Valeria modifica algunas imágenes.,Afirmación,Al78,78,,,,,,,,,0,34,34,34,,,,,,,,,1,2.76862370075,3,0.350127716087,,,,,2018_may._18_1500,60.0288771907,Experimento Piloto1,001,124,
2.5,Stim\\05_028.jpg,En28_24,Enojo,24,Guadalupe comenta los resultados con los compañeros.,Afirmación,En28,28,,,,,,,,,0,35,35,35,,,,,,,,,1,3.00648844129,2,2.18322751313,,,,,2018_may._18_1500,60.0288771907,Experimento Piloto1,001,124,
2.5,Stim\\02_075.jpg,Al75_16,Alegría,16,Valeria modifica algunas imágenes.,Afirmación,Al75,75,,,,,,,,,0,36,36,36,,,,,,,,,1,2.96773183013,3,2.54924521667,,,,,2018_may._18_1500,60.0288771907,Experimento Piloto1,001,124,
0.25,Stim\\02_019.jpg,Al19_18,Alegría,18,Sofía escucha la música.,Afirmación,Al19,19,,,,,,,,,0,37,37,37,,,,,,,,,1,4.25661696063,2,0.133769436317,,,,,2018_may._18_1500,60.0288771907,Experimento Piloto1,001,124,
2.5,Stim\\02_028.jpg,Al28_26,Alegría,26,Víctor trae el café a Marco.,Afirmación,Al28,28,,,,,,,,,0,38,38,38,,,,,,,,,1,3.78843352784,3,1.8832245679,,,,,2018_may._18_1500,60.0288771907,Experimento Piloto1,001,124,
2.5,Stim\\02_078.jpg,Al78_29,Alegría,29,Miriam mira la película.,Afirmación,Al78,78,,,,,,,,,0,39,39,39,,,,,,,,,1,1.74116563464,3,0.150390823721,,,,,2018_may._18_1500,60.0288771907,Experimento Piloto1,001,124,
0.25,Stim\\05_078.jpg,En78_24,Enojo,24,Guadalupe comenta los resultados con los compañeros.,Afirmación,En78,78,,,,,,,,,0,40,40,40,,,,,,,,,1,5.40629155681,2,2.54972716417,,,,,2018_may._18_1500,60.0288771907,Experimento Piloto1,001,124,
0.25,Stim\\03_075.jpg,Tr75_19,Tristeza,19,Armando acompaña a Rodrígo a la tienda.,Afirmación,Tr75,75,,,,,,,,,0,41,41,41,,,,,,,,,1,0.964851747594,4,0.133565501128,,,,,2018_may._18_1500,60.0288771907,Experimento Piloto1,001,124,
0.25,Stim\\02_028.jpg,Al28_17,Alegría,17,Brenda sube el autobús en las mañanas.,Afirmación,Al28,28,,,,,,,,,0,42,42,42,,,,,,,,,1,1.73311532646,3,0.133773006299,,,,,2018_may._18_1500,60.0288771907,Experimento Piloto1,001,124,
2.5,Stim\\05_075.jpg,En75_21,Enojo,21,Mauro anuncia la actividad.,Afirmación,En75,75,,,,,,,,,0,43,43,43,,,,,,,,,1,0.973780717457,2,0.150337720243,,,,,2018_may._18_1500,60.0288771907,Experimento Piloto1,001,124,
0.25,Stim\\03_019.jpg,Tr19_27,Tristeza,27,Claudia informa los avances en el reporte.,Afirmación,Tr19,19,,,,,,,,,0,44,44,44,,,,,,,,,1,2.2803359174,3,0.250358336889,,,,,2018_may._18_1500,60.0288771907,Experimento Piloto1,001,124,
2.5,Stim\\02_075.jpg,Al75_19,Alegría,19,Armando acompaña a Rodrígo a la tienda.,Afirmación,Al75,75,,,,,,,,,0,45,45,45,,,,,,,,,1,4.24757196636,2,0.0836995539321,,,,,2018_may._18_1500,60.0288771907,Experimento Piloto1,001,124,
2.5,Stim\\03_019.jpg,Tr19_22,Tristeza,22,Enrique corre todas las mañanas.,Afirmación,Tr19,19,,,,,,,,,0,46,46,46,,,,,,,,,1,4.45272764433,3,1.31709869392,,,,,2018_may._18_1500,60.0288771907,Experimento Piloto1,001,124,
2.5,Stim\\02_075.jpg,Al75_23,Alegría,23,Óscar consigue un nuevo departamento.,Afirmación,Al75,75,,,,,,,,,0,47,47,47,,,,,,,,,1,3.68115335391,3,0.200359854131,,,,,2018_may._18_1500,60.0288771907,Experimento Piloto1,001,124,
2.5,Stim\\02_019.jpg,Al19_27,Alegría,27,Claudia informa los avances en el reporte.,Afirmación,Al19,19,,,,,,,,,0,48,48,48,,,,,,,,,1,4.39675836759,3,0.183721063069,,,,,2018_may._18_1500,60.0288771907,Experimento Piloto1,001,124,
2.5,Stim\\03_028.jpg,Tr28_16,Tristeza,16,Valeria modifica algunas imágenes.,Afirmación,Tr28,28,,,,,,,,,0,49,49,49,,,,,,,,,1,2.66848795221,4,0.133856008368,,,,,2018_may._18_1500,60.0288771907,Experimento Piloto1,001,124,
2.5,Stim\\02_078.jpg,Al78_20,Alegría,20,Karen analiza la idea.,Afirmación,Al78,78,,,,,,,,,0,50,50,50,,,,,,,,,1,1.59232418288,3,0.100126823592,,,,,2018_may._18_1500,60.0288771907,Experimento Piloto1,001,124,
2.5,Stim\\05_075.jpg,En75_24,Enojo,24,Guadalupe comenta los resultados con los compañeros.,Afirmación,En75,75,,,,,,,,,0,51,51,51,,,,,,,,,1,0.857250721583,2,0.133833249736,,,,,2018_may._18_1500,60.0288771907,Experimento Piloto1,001,124,
0.25,Stim\\03_028.jpg,Tr28_26,Tristeza,26,Víctor trae el café a Marco.,Afirmación,Tr28,28,,,,,,,,,0,52,52,52,,,,,,,,,1,1.5221468262,4,0.150433663497,,,,,2018_may._18_1500,60.0288771907,Experimento Piloto1,001,124,
2.5,Stim\\03_028.jpg,Tr28_21,Tristeza,21,Mauro anuncia la actividad.,Afirmación,Tr28,28,,,,,,,,,0,53,53,53,,,,,,,,,1,1.68900954435,4,0.183958020589,,,,,2018_may._18_1500,60.0288771907,Experimento Piloto1,001,124,
2.5,Stim\\02_075.jpg,Al75_29,Alegría,29,Miriam mira la película.,Afirmación,Al75,75,,,,,,,,,0,54,54,54,,,,,,,,,1,3.13981296867,2,1.61692849506,,,,,2018_may._18_1500,60.0288771907,Experimento Piloto1,001,124,
0.25,Stim\\03_078.jpg,Tr78_26,Tristeza,26,Víctor trae el café a Marco.,Afirmación,Tr78,78,,,,,,,,,0,55,55,55,,,,,,,,,1,1.78091113067,4,0.18377416654,,,,,2018_may._18_1500,60.0288771907,Experimento Piloto1,001,124,
0.25,Stim\\05_019.jpg,En19_19,Enojo,19,Armando acompaña a Rodrígo a la tienda.,Afirmación,En19,19,,,,,,,,,0,56,56,56,,,,,,,,,1,1.19099847027,2,0.150335489008,,,,,2018_may._18_1500,60.0288771907,Experimento Piloto1,001,124,
0.25,Stim\\03_078.jpg,Tr78_19,Tristeza,19,Armando acompaña a Rodrígo a la tienda.,Afirmación,Tr78,78,,,,,,,,,0,57,57,57,,,,,,,,,1,4.51576637684,4,2.74972466518,,,,,2018_may._18_1500,60.0288771907,Experimento Piloto1,001,124,
2.5,Stim\\03_078.jpg,Tr78_18,Tristeza,18,Sofía escucha la música.,Afirmación,Tr78,78,,,,,,,,,0,58,58,58,,,,,,,,,1,2.35690889586,4,0.350411083364,,,,,2018_may._18_1500,60.0288771907,Experimento Piloto1,001,124,
2.5,Stim\\05_075.jpg,En75_26,Enojo,26,Víctor trae el café a Marco.,Afirmación,En75,75,,,,,,,,,0,59,59,59,,,,,,,,,1,3.072087743,2,0.0338425316877,,,,,2018_may._18_1500,60.0288771907,Experimento Piloto1,001,124,
2.5,Stim\\02_075.jpg,Al75_30,Alegría,30,Marisol toma 2 litros de agua cada día.,Afirmación,Al75,75,,,,,,,,,0,60,60,60,,,,,,,,,1,2.56130104404,3,0.0338362842231,,,,,2018_may._18_1500,60.0288771907,Experimento Piloto1,001,124,
2.5,Stim\\03_019.jpg,Tr19_18,Tristeza,18,Sofía escucha la música.,Afirmación,Tr19,19,,,,,,,,,0,61,61,61,,,,,,,,,1,1.54194058837,2,0.333777647273,,,,,2018_may._18_1500,60.0288771907,Experimento Piloto1,001,124,
0.25,Stim\\03_078.jpg,Tr78_23,Tristeza,23,Óscar consigue un nuevo departamento.,Afirmación,Tr78,78,,,,,,,,,0,62,62,62,,,,,,,,,1,1.06690725367,4,0.0836526979256,,,,,2018_may._18_1500,60.0288771907,Experimento Piloto1,001,124,
2.5,Stim\\03_019.jpg,Tr19_25,Tristeza,25,Luis decide la comida siguiente.,Afirmación,Tr19,19,,,,,,,,,0,63,63,63,,,,,,,,,1,2.30529722773,3,0.250180284063,,,,,2018_may._18_1500,60.0288771907,Experimento Piloto1,001,124,
0.25,Stim\\02_028.jpg,Al28_29,Alegría,29,Miriam mira la película.,Afirmación,Al28,28,,,,,,,,,0,64,64,64,,,,,,,,,1,3.69028090399,2,0.133704284155,,,,,2018_may._18_1500,60.0288771907,Experimento Piloto1,001,124,
2.5,Stim\\02_019.jpg,Al19_21,Alegría,21,Mauro anuncia la actividad.,Afirmación,Al19,19,,,,,,,,,0,65,65,65,,,,,,,,,1,3.93780199812,2,1.63326606893,,,,,2018_may._18_1500,60.0288771907,Experimento Piloto1,001,124,
2.5,Stim\\02_078.jpg,Al78_25,Alegría,25,Luis decide la comida siguiente.,Afirmación,Al78,78,,,,,,,,,0,66,66,66,,,,,,,,,1,1.48593650431,3,0.0837013389209,,,,,2018_may._18_1500,60.0288771907,Experimento Piloto1,001,124,
2.5,Stim\\05_075.jpg,En75_29,Enojo,29,Miriam mira la película.,Afirmación,En75,75,,,,,,,,,0,67,67,67,,,,,,,,,1,1.12456959411,2,0.150432324754,,,,,2018_may._18_1500,60.0288771907,Experimento Piloto1,001,124,
0.25,Stim\\03_028.jpg,Tr28_20,Tristeza,20,Karen analiza la idea.,Afirmación,Tr28,28,,,,,,,,,0,68,68,68,,,,,,,,,1,2.75842292499,3,5.21554164651,,,,,2018_may._18_1500,60.0288771907,Experimento Piloto1,001,124,
2.5,Stim\\02_075.jpg,Al75_26,Alegría,26,Víctor trae el café a Marco.,Afirmación,Al75,75,,,,,,,,,0,69,69,69,,,,,,,,,1,3.1710400427,2,0.450264803374,,,,,2018_may._18_1500,60.0288771907,Experimento Piloto1,001,124,
0.25,Stim\\05_019.jpg,En19_20,Enojo,20,Karen analiza la idea.,Afirmación,En19,19,,,,,,,,,0,70,70,70,,,,,,,,,1,3.27467705055,2,0.0836071806625,,,,,2018_may._18_1500,60.0288771907,Experimento Piloto1,001,124,
0.25,Stim\\05_028.jpg,En28_22,Enojo,22,Enrique corre todas las mañanas.,Afirmación,En28,28,,,,,,,,,0,71,71,71,,,,,,,,,1,2.35296495885,2,0.0838401219517,,,,,2018_may._18_1500,60.0288771907,Experimento Piloto1,001,124,
2.5,Stim\\05_028.jpg,En28_22,Enojo,22,Enrique corre todas las mañanas.,Afirmación,En28,28,,,,,,,,,0,72,72,72,,,,,,,,,1,1.40019715223,2,0.0838419069441,,,,,2018_may._18_1500,60.0288771907,Experimento Piloto1,001,124,
0.25,Stim\\05_019.jpg,En19_17,Enojo,17,Brenda sube el autobús en las mañanas.,Afirmación,En19,19,,,,,,,,,0,73,73,73,,,,,,,,,1,4.23295958602,2,0.083843691933,,,,,2018_may._18_1500,60.0288771907,Experimento Piloto1,001,124,
2.5,Stim\\05_078.jpg,En78_26,Enojo,26,Víctor trae el café a Marco.,Afirmación,En78,78,,,,,,,,,0,74,74,74,,,,,,,,,1,0.670000731847,2,0.0339125925748,,,,,2018_may._18_1500,60.0288771907,Experimento Piloto1,001,124,
2.5,Stim\\03_078.jpg,Tr78_29,Tristeza,29,Miriam mira la película.,Afirmación,Tr78,78,,,,,,,,,0,75,75,75,,,,,,,,,1,2.67364300543,4,0.133604770923,,,,,2018_may._18_1500,60.0288771907,Experimento Piloto1,001,124,
0.25,Stim\\02_075.jpg,Al75_22,Alegría,22,Enrique corre todas las mañanas.,Afirmación,Al75,75,,,,,,,,,0,76,76,76,,,,,,,,,1,2.75296442335,3,0.0839583775887,,,,,2018_may._18_1500,60.0288771907,Experimento Piloto1,001,124,
2.5,Stim\\02_019.jpg,Al19_23,Alegría,23,Óscar consigue un nuevo departamento.,Afirmación,Al19,19,,,,,,,,,0,77,77,77,,,,,,,,,1,2.56534315554,3,0.183812097595,,,,,2018_may._18_1500,60.0288771907,Experimento Piloto1,001,124,
0.25,Stim\\05_075.jpg,En75_21,Enojo,21,Mauro anuncia la actividad.,Afirmación,En75,75,,,,,,,,,0,78,78,78,,,,,,,,,1,1.02239895614,2,0.0838811767353,,,,,2018_may._18_1500,60.0288771907,Experimento Piloto1,001,124,
0.25,Stim\\02_078.jpg,Al78_25,Alegría,25,Luis decide la comida siguiente.,Afirmación,Al78,78,,,,,,,,,0,79,79,79,,,,,,,,,1,1.53153810866,3,0.133596292217,,,,,2018_may._18_1500,60.0288771907,Experimento Piloto1,001,124,
0.25,Stim\\03_078.jpg,Tr78_22,Tristeza,22,Enrique corre todas las mañanas.,Afirmación,Tr78,78,,,,,,,,,0,80,80,80,,,,,,,,,1,1.07008810714,4,0.133724811549,,,,,2018_may._18_1500,60.0288771907,Experimento Piloto1,001,124,
0.25,Stim\\05_028.jpg,En28_26,Enojo,26,Víctor trae el café a Marco.,Afirmación,En28,28,,,,,,,,,0,81,81,81,,,,,,,,,1,0.871699329022,2,0.0838637730776,,,,,2018_may._18_1500,60.0288771907,Experimento Piloto1,001,124,
2.5,Stim\\05_019.jpg,En19_29,Enojo,29,Miriam mira la película.,Afirmación,En19,19,,,,,,,,,0,82,82,82,,,,,,,,,1,1.02363506221,2,0.0837446249461,,,,,2018_may._18_1500,60.0288771907,Experimento Piloto1,001,124,
0.25,Stim\\02_019.jpg,Al19_21,Alegría,21,Mauro anuncia la actividad.,Afirmación,Al19,19,,,,,,,,,0,83,83,83,,,,,,,,,1,3.02241234357,3,0.133835927223,,,,,2018_may._18_1500,60.0288771907,Experimento Piloto1,001,124,
2.5,Stim\\05_078.jpg,En78_30,Enojo,30,Marisol toma 2 litros de agua cada día.,Afirmación,En78,78,,,,,,,,,0,84,84,84,,,,,,,,,1,1.0816450296,2,0.433646093457,,,,,2018_may._18_1500,60.0288771907,Experimento Piloto1,001,124,
0.25,Stim\\02_078.jpg,Al78_30,Alegría,30,Marisol toma 2 litros de agua cada día.,Afirmación,Al78,78,,,,,,,,,0,85,85,85,,,,,,,,,1,0.983545509229,3,0.150048997995,,,,,2018_may._18_1500,60.0288771907,Experimento Piloto1,001,124,
0.25,Stim\\03_075.jpg,Tr75_16,Tristeza,16,Valeria modifica algunas imágenes.,Afirmación,Tr75,75,,,,,,,,,0,86,86,86,,,,,,,,,1,3.31773593561,4,0.0837303450207,,,,,2018_may._18_1500,60.0288771907,Experimento Piloto1,001,124,
0.25,Stim\\02_019.jpg,Al19_24,Alegría,24,Guadalupe comenta los resultados con los compañeros.,Afirmación,Al19,19,,,,,,,,,0,87,87,87,,,,,,,,,1,3.05748473387,3,0.133797103674,,,,,2018_may._18_1500,60.0288771907,Experimento Piloto1,001,124,
2.5,Stim\\02_028.jpg,Al28_29,Alegría,29,Miriam mira la película.,Afirmación,Al28,28,,,,,,,,,0,88,88,88,,,,,,,,,1,1.59093769133,3,0.183887067207,,,,,2018_may._18_1500,60.0288771907,Experimento Piloto1,001,124,
0.25,Stim\\03_019.jpg,Tr19_25,Tristeza,25,Luis decide la comida siguiente.,Afirmación,Tr19,19,,,,,,,,,0,89,89,89,,,,,,,,,1,1.684937088,3,0.150098531489,,,,,2018_may._18_1500,60.0288771907,Experimento Piloto1,001,124,
0.25,Stim\\03_075.jpg,Tr75_25,Tristeza,25,Luis decide la comida siguiente.,Afirmación,Tr75,75,,,,,,,,,0,90,90,90,,,,,,,,,1,1.89991780118,4,0.549923513146,,,,,2018_may._18_1500,60.0288771907,Experimento Piloto1,001,124,
2.5,Stim\\03_078.jpg,Tr78_25,Tristeza,25,Luis decide la comida siguiente.,Afirmación,Tr78,78,,,,,,,,,0,91,91,91,,,,,,,,,1,1.08352685608,4,0.0838155783276,,,,,2018_may._18_1500,60.0288771907,Experimento Piloto1,001,124,
2.5,Stim\\02_019.jpg,Al19_18,Alegría,18,Sofía escucha la música.,Afirmación,Al19,19,,,,,,,,,0,92,92,92,,,,,,,,,1,2.92373716368,3,0.13385779336,,,,,2018_may._18_1500,60.0288771907,Experimento Piloto1,001,124,
2.5,Stim\\03_028.jpg,Tr28_19,Tristeza,19,Armando acompaña a Rodrígo a la tienda.,Afirmación,Tr28,28,,,,,,,,,0,93,93,93,,,,,,,,,1,1.89619297178,4,0.0837481949275,,,,,2018_may._18_1500,60.0288771907,Experimento Piloto1,001,124,
0.25,Stim\\03_078.jpg,Tr78_18,Tristeza,18,Sofía escucha la música.,Afirmación,Tr78,78,,,,,,,,,0,94,94,94,,,,,,,,,1,0.758112336607,4,0.100385201,,,,,2018_may._18_1500,60.0288771907,Experimento Piloto1,001,124,
0.25,Stim\\05_019.jpg,En19_29,Enojo,29,Miriam mira la película.,Afirmación,En19,19,,,,,,,,,0,95,95,95,,,,,,,,,1,1.37124728012,4,0.0838539556316,,,,,2018_may._18_1500,60.0288771907,Experimento Piloto1,001,124,
2.5,Stim\\03_078.jpg,Tr78_24,Tristeza,24,Guadalupe comenta los resultados con los compañeros.,Afirmación,Tr78,78,,,,,,,,,0,96,96,96,,,,,,,,,1,6.70523198632,4,0.133636008261,,,,,2018_may._18_1500,60.0288771907,Experimento Piloto1,001,124,
2.5,Stim\\05_019.jpg,En19_22,Enojo,22,Enrique corre todas las mañanas.,Afirmación,En19,19,,,,,,,,,0,97,97,97,,,,,,,,,1,1.0193832143,2,0.150424738546,,,,,2018_may._18_1500,60.0288771907,Experimento Piloto1,001,124,
0.25,Stim\\02_028.jpg,Al28_20,Alegría,20,Karen analiza la idea.,Afirmación,Al28,28,,,,,,,,,0,98,98,98,,,,,,,,,1,3.47493248272,3,0.133850653394,,,,,2018_may._18_1500,60.0288771907,Experimento Piloto1,001,124,
2.5,Stim\\03_078.jpg,Tr78_27,Tristeza,27,Claudia informa los avances en el reporte.,Afirmación,Tr78,78,,,,,,,,,0,99,99,99,,,,,,,,,1,3.07972437958,4,1.86637425543,,,,,2018_may._18_1500,60.0288771907,Experimento Piloto1,001,124,
0.25,Stim\\03_075.jpg,Tr75_17,Tristeza,17,Brenda sube el autobús en las mañanas.,Afirmación,Tr75,75,,,,,,,,,0,100,100,100,,,,,,,,,1,1.11527380865,4,0.100362442368,,,,,2018_may._18_1500,60.0288771907,Experimento Piloto1,001,124,
2.5,Stim\\05_028.jpg,En28_25,Enojo,25,Luis decide la comida siguiente.,Afirmación,En28,28,,,,,,,,,0,101,101,101,,,,,,,,,1,1.11824001699,2,0.0837084788836,,,,,2018_may._18_1500,60.0288771907,Experimento Piloto1,001,124,
2.5,Stim\\02_028.jpg,Tr28_30,Tristeza,30,Marisol toma 2 litros de agua cada día.,Afirmación,Tr28,28,,,,,,,,,0,102,102,102,,,,,,,,,1,2.24902450257,3,0.0838713592893,,,,,2018_may._18_1500,60.0288771907,Experimento Piloto1,001,124,
0.25,Stim\\02_078.jpg,Al78_18,Alegría,18,Sofía escucha la música.,Afirmación,Al78,78,,,,,,,,,0,103,103,103,,,,,,,,,1,2.30747893265,3,0.0839195540393,,,,,2018_may._18_1500,60.0288771907,Experimento Piloto1,001,124,
0.25,Stim\\02_078.jpg,Al78_24,Alegría,24,Guadalupe comenta los resultados con los compañeros.,Afirmación,Al78,78,,,,,,,,,0,104,104,104,,,,,,,,,1,1.82455504643,2,0.150737558168,,,,,2018_may._18_1500,60.0288771907,Experimento Piloto1,001,124,
0.25,Stim\\05_075.jpg,En75_26,Enojo,26,Víctor trae el café a Marco.,Afirmación,En75,75,,,,,,,,,0,105,105,105,,,,,,,,,1,2.75472308546,2,0.0838044221346,,,,,2018_may._18_1500,60.0288771907,Experimento Piloto1,001,124,
0.25,Stim\\05_019.jpg,En19_16,Enojo,16,Valeria modifica algunas imágenes.,Afirmación,En19,19,,,,,,,,,0,106,106,106,,,,,,,,,1,1.6854676765,2,0.0837477486821,,,,,2018_may._18_1500,60.0288771907,Experimento Piloto1,001,124,
2.5,Stim\\05_019.jpg,En19_21,Enojo,21,Mauro anuncia la actividad.,Afirmación,En19,19,,,,,,,,,0,107,107,107,,,,,,,,,1,1.33955075354,2,0.0338492254014,,,,,2018_may._18_1500,60.0288771907,Experimento Piloto1,001,124,
0.25,Stim\\03_028.jpg,Tr28_22,Tristeza,22,Enrique corre todas las mañanas.,Afirmación,Tr28,28,,,,,,,,,0,108,108,108,,,,,,,,,1,3.63580744948,4,0.0837687223211,,,,,2018_may._18_1500,60.0288771907,Experimento Piloto1,001,124,
2.5,Stim\\05_075.jpg,En75_28,Enojo,28,Antonio responde la pregunta.,Afirmación,En75,75,,,,,,,,,0,109,109,109,,,,,,,,,1,0.971333941423,2,0.0338884951998,,,,,2018_may._18_1500,60.0288771907,Experimento Piloto1,001,124,
2.5,Stim\\05_078.jpg,En78_28,Enojo,28,Antonio responde la pregunta.,Afirmación,En78,78,,,,,,,,,0,110,110,110,,,,,,,,,1,1.96652160642,2,0.0338760002633,,,,,2018_may._18_1500,60.0288771907,Experimento Piloto1,001,124,
2.5,Stim\\03_028.jpg,Tr28_26,Tristeza,26,Víctor trae el café a Marco.,Afirmación,Tr28,28,,,,,,,,,0,111,111,111,,,,,,,,,1,0.922742923853,4,0.0838615418397,,,,,2018_may._18_1500,60.0288771907,Experimento Piloto1,001,124,
2.5,Stim\\05_028.jpg,En28_20,Enojo,20,Karen analiza la idea.,Afirmación,En28,28,,,,,,,,,0,112,112,112,,,,,,,,,1,1.79215166353,2,0.100118344883,,,,,2018_may._18_1500,60.0288771907,Experimento Piloto1,001,124,
2.5,Stim\\02_019.jpg,Al19_30,Alegría,30,Marisol toma 2 litros de agua cada día.,Afirmación,Al19,19,,,,,,,,,0,113,113,113,,,,,,,,,1,2.13132399902,3,0.0500850548087,,,,,2018_may._18_1500,60.0288771907,Experimento Piloto1,001,124,
2.5,Stim\\05_078.jpg,En78_23,Enojo,23,Óscar consigue un nuevo departamento.,Afirmación,En78,78,,,,,,,,,0,114,114,114,,,,,,,,,1,0.749685841631,2,0.034177217447,,,,,2018_may._18_1500,60.0288771907,Experimento Piloto1,001,124,
0.25,Stim\\05_078.jpg,En78_23,Enojo,23,Óscar consigue un nuevo departamento.,Afirmación,En78,78,,,,,,,,,0,115,115,115,,,,,,,,,1,1.54989584579,2,0.0839017041326,,,,,2018_may._18_1500,60.0288771907,Experimento Piloto1,001,124,
2.5,Stim\\05_019.jpg,En19_19,Enojo,19,Armando acompaña a Rodrígo a la tienda.,Afirmación,En19,19,,,,,,,,,0,116,116,116,,,,,,,,,1,1.89500595295,2,0.0837339150021,,,,,2018_may._18_1500,60.0288771907,Experimento Piloto1,001,124,
2.5,Stim\\03_078.jpg,Tr78_17,Tristeza,17,Brenda sube el autobús en las mañanas.,Afirmación,Tr78,78,,,,,,,,,0,117,117,117,,,,,,,,,1,2.34622438761,4,0.1337627426,,,,,2018_may._18_1500,60.0288771907,Experimento Piloto1,001,124,
0.25,Stim\\05_075.jpg,En75_20,Enojo,20,Karen analiza la idea.,Afirmación,En75,75,,,,,,,,,0,118,118,118,,,,,,,,,1,1.07633066596,2,0.150025793115,,,,,2018_may._18_1500,60.0288771907,Experimento Piloto1,001,124,
0.25,Stim\\05_078.jpg,En78_28,Enojo,28,Antonio responde la pregunta.,Afirmación,En78,78,,,,,,,,,0,119,119,119,,,,,,,,,1,0.705090079558,2,0.0837455174405,,,,,2018_may._18_1500,60.0288771907,Experimento Piloto1,001,124,
2.5,Stim\\05_028.jpg,En28_16,Enojo,16,Valeria modifica algunas imágenes.,Afirmación,En28,28,,,,,,,,,,,,,0,0,0,0,,,,,,,,,1,2.53196204395,2,0.150065509159,2018_may._18_1500,60.0288771907,Experimento Piloto1,001,124,
2.5,Stim\\05_028.jpg,En28_29,Enojo,29,Miriam mira la película.,Afirmación,En28,28,,,,,,,,,,,,,0,1,1,1,,,,,,,,,1,1.74119821073,2,0.0836906289769,2018_may._18_1500,60.0288771907,Experimento Piloto1,001,124,
0.25,Stim\\03_028.jpg,Tr28_29,Tristeza,29,Miriam mira la película.,Afirmación,Tr28,28,,,,,,,,,,,,,0,2,2,2,,,,,,,,,1,1.23339423127,4,0.133831910993,2018_may._18_1500,60.0288771907,Experimento Piloto1,001,124,
2.5,Stim\\02_075.jpg,Al75_22,Alegría,22,Enrique corre todas las mañanas.,Afirmación,Al75,75,,,,,,,,,,,,,0,3,3,3,,,,,,,,,1,4.41901541696,3,0.133613695878,2018_may._18_1500,60.0288771907,Experimento Piloto1,001,124,
2.5,Stim\\05_019.jpg,En19_17,Enojo,17,Brenda sube el autobús en las mañanas.,Afirmación,En19,19,,,,,,,,,,,,,0,4,4,4,,,,,,,,,1,1.63282829996,2,0.400275245571,2018_may._18_1500,60.0288771907,Experimento Piloto1,001,124,
2.5,Stim\\02_028.jpg,Al28_17,Alegría,17,Brenda sube el autobús en las mañanas.,Afirmación,Al28,28,,,,,,,,,,,,,0,5,5,5,,,,,,,,,1,2.04990744823,3,0.500395375446,2018_may._18_1500,60.0288771907,Experimento Piloto1,001,124,
0.25,Stim\\05_075.jpg,En75_24,Enojo,24,Guadalupe comenta los resultados con los compañeros.,Afirmación,En75,75,,,,,,,,,,,,,0,6,6,6,,,,,,,,,1,0.907200563342,2,0.133733736504,2018_may._18_1500,60.0288771907,Experimento Piloto1,001,124,
2.5,Stim\\03_078.jpg,Tr78_23,Tristeza,23,Óscar consigue un nuevo departamento.,Afirmación,Tr78,78,,,,,,,,,,,,,0,7,7,7,,,,,,,,,1,3.11570711515,4,0.350360657376,2018_may._18_1500,60.0288771907,Experimento Piloto1,001,124,
0.25,Stim\\05_075.jpg,En75_16,Enojo,16,Valeria modifica algunas imágenes.,Afirmación,En75,75,,,,,,,,,,,,,0,8,8,8,,,,,,,,,1,1.63540493407,2,0.133806028629,2018_may._18_1500,60.0288771907,Experimento Piloto1,001,124,
0.25,Stim\\02_078.jpg,Al78_23,Alegría,23,Óscar consigue un nuevo departamento.,Afirmación,Al78,78,,,,,,,,,,,,,0,9,9,9,,,,,,,,,1,5.0653324456,3,0.333680365278,2018_may._18_1500,60.0288771907,Experimento Piloto1,001,124,
2.5,Stim\\05_078.jpg,En78_24,Enojo,24,Guadalupe comenta los resultados con los compañeros.,Afirmación,En78,78,,,,,,,,,,,,,0,10,10,10,,,,,,,,,1,1.47419305032,2,0.0841239354777,2018_may._18_1500,60.0288771907,Experimento Piloto1,001,124,
2.5,Stim\\03_028.jpg,Tr28_28,Tristeza,28,Antonio responde la pregunta.,Afirmación,Tr28,28,,,,,,,,,,,,,0,11,11,11,,,,,,,,,1,2.52116820503,4,0.133832803487,2018_may._18_1500,60.0288771907,Experimento Piloto1,001,124,
0.25,Stim\\02_019.jpg,Al19_20,Alegría,20,Karen analiza la idea.,Afirmación,Al19,19,,,,,,,,,,,,,0,12,12,12,,,,,,,,,1,2.97597982603,3,0.0837535499013,2018_may._18_1500,60.0288771907,Experimento Piloto1,001,124,
2.5,Stim\\05_078.jpg,En78_27,Enojo,27,Claudia informa los avances en el reporte.,Afirmación,En78,78,,,,,,,,,,,,,0,13,13,13,,,,,,,,,1,1.67969546273,2,0.0839347264591,2018_may._18_1500,60.0288771907,Experimento Piloto1,001,124,
0.25,Stim\\05_028.jpg,En28_28,Enojo,28,Antonio responde la pregunta.,Afirmación,En28,28,,,,,,,,,,,,,0,14,14,14,,,,,,,,,1,3.18730577069,2,0.0835500609574,2018_may._18_1500,60.0288771907,Experimento Piloto1,001,124,
2.5,Stim\\03_078.jpg,Tr78_30,Tristeza,30,Marisol toma 2 litros de agua cada día.,Afirmación,Tr78,78,,,,,,,,,,,,,0,15,15,15,,,,,,,,,1,3.26483595043,4,0.966875927079,2018_may._18_1500,60.0288771907,Experimento Piloto1,001,124,
0.25,Stim\\03_028.jpg,Tr28_27,Tristeza,27,Claudia informa los avances en el reporte.,Afirmación,Tr28,28,,,,,,,,,,,,,0,16,16,16,,,,,,,,,1,1.679787836,4,0.0833505882438,2018_may._18_1500,60.0288771907,Experimento Piloto1,001,124,
0.25,Stim\\02_075.jpg,Al75_24,Alegría,24,Guadalupe comenta los resultados con los compañeros.,Afirmación,Al75,75,,,,,,,,,,,,,0,17,17,17,,,,,,,,,1,2.01763436964,2,0.0835429209947,2018_may._18_1500,60.0288771907,Experimento Piloto1,001,124,
0.25,Stim\\02_019.jpg,Al19_16,Alegría,16,Valeria modifica algunas imágenes.,Afirmación,Al19,19,,,,,,,,,,,,,0,18,18,18,,,,,,,,,1,3.38402156626,2,0.0837798785142,2018_may._18_1500,60.0288771907,Experimento Piloto1,001,124,
2.5,Stim\\02_028.jpg,Al28_30,Alegría,30,Marisol toma 2 litros de agua cada día.,Afirmación,Al28,28,,,,,,,,,,,,,0,19,19,19,,,,,,,,,1,1.26455883061,4,0.300259091404,2018_may._18_1500,60.0288771907,Experimento Piloto1,001,124,
2.5,Stim\\05_078.jpg,En78_16,Enojo,16,Valeria modifica algunas imágenes.,Afirmación,En78,78,,,,,,,,,,,,,0,20,20,20,,,,,,,,,1,3.16788908782,2,2.29934874614,2018_may._18_1500,60.0288771907,Experimento Piloto1,001,124,
0.25,Stim\\02_075.jpg,Al75_28,Alegría,28,Antonio responde la pregunta.,Afirmación,Al75,75,,,,,,,,,,,,,0,21,21,21,,,,,,,,,1,3.78698590036,2,0.0838142395842,2018_may._18_1500,60.0288771907,Experimento Piloto1,001,124,
2.5,Stim\\03_075.jpg,Tr75_17,Tristeza,17,Brenda sube el autobús en las mañanas.,Afirmación,Tr75,75,,,,,,,,,,,,,0,22,22,22,,,,,,,,,1,2.29629507325,4,0.133714547854,2018_may._18_1500,60.0288771907,Experimento Piloto1,001,124,
0.25,Stim\\05_075.jpg,En75_18,Enojo,18,Sofía escucha la música.,Afirmación,En75,75,,,,,,,,,,,,,0,23,23,23,,,,,,,,,1,1.12537864116,2,0.150328795291,2018_may._18_1500,60.0288771907,Experimento Piloto1,001,124,
2.5,Stim\\02_075.jpg,Al75_25,Alegría,25,Luis decide la comida siguiente.,Afirmación,Al75,75,,,,,,,,,,,,,0,24,24,24,,,,,,,,,1,2.15191743704,3,0.083712495114,2018_may._18_1500,60.0288771907,Experimento Piloto1,001,124,
0.25,Stim\\02_028.jpg,Al28_18,Alegría,18,Sofía escucha la música.,Afirmación,Al28,28,,,,,,,,,,,,,0,25,25,25,,,,,,,,,1,3.47383649842,2,0.0340045195953,2018_may._18_1500,60.0288771907,Experimento Piloto1,001,124,
0.25,Stim\\02_028.jpg,Al28_23,Alegría,23,Óscar consigue un nuevo departamento.,Afirmación,Al28,28,,,,,,,,,,,,,0,26,26,26,,,,,,,,,1,2.34876889189,3,0.13381495358,2018_may._18_1500,60.0288771907,Experimento Piloto1,001,124,
0.25,Stim\\02_075.jpg,Al75_19,Alegría,19,Armando acompaña a Rodrígo a la tienda.,Afirmación,Al75,75,,,,,,,,,,,,,0,27,27,27,,,,,,,,,1,5.58057269642,2,0.0839052741139,2018_may._18_1500,60.0288771907,Experimento Piloto1,001,124,
2.5,Stim\\05_019.jpg,En19_16,Enojo,16,Valeria modifica algunas imágenes.,Afirmación,En19,19,,,,,,,,,,,,,0,28,28,28,,,,,,,,,1,2.15098388689,2,0.0835607709014,2018_may._18_1500,60.0288771907,Experimento Piloto1,001,124,
2.5,Stim\\02_019.jpg,Al19_25,Alegría,25,Luis decide la comida siguiente.,Afirmación,Al19,19,,,,,,,,,,,,,0,29,29,29,,,,,,,,,1,1.85067704698,3,0.083770953559,2018_may._18_1500,60.0288771907,Experimento Piloto1,001,124,
0.25,Stim\\02_078.jpg,Al78_27,Alegría,27,Claudia informa los avances en el reporte.,Afirmación,Al78,78,,,,,,,,,,,,,0,30,30,30,,,,,,,,,1,3.77962816858,2,0.0836977689432,2018_may._18_1500,60.0288771907,Experimento Piloto1,001,124,
0.25,Stim\\03_019.jpg,Tr19_22,Tristeza,22,Enrique corre todas las mañanas.,Afirmación,Tr19,19,,,,,,,,,,,,,0,31,31,31,,,,,,,,,1,2.65173670673,3,0.0837053551513,2018_may._18_1500,60.0288771907,Experimento Piloto1,001,124,
2.5,Stim\\05_019.jpg,En19_26,Enojo,26,Víctor trae el café a Marco.,Afirmación,En19,19,,,,,,,,,,,,,0,32,32,32,,,,,,,,,1,2.15412279308,2,0.150764779275,2018_may._18_1500,60.0288771907,Experimento Piloto1,001,124,
2.5,Stim\\02_078.jpg,Al78_26,Alegría,26,Víctor trae el café a Marco.,Afirmación,Al78,78,,,,,,,,,,,,,0,33,33,33,,,,,,,,,1,4.56575057967,3,0.133752478905,2018_may._18_1500,60.0288771907,Experimento Piloto1,001,124,
0.25,Stim\\05_078.jpg,En78_17,Enojo,17,Brenda sube el autobús en las mañanas.,Afirmación,En78,78,,,,,,,,,,,,,0,34,34,34,,,,,,,,,1,3.16559805222,2,0.0501020122174,2018_may._18_1500,60.0288771907,Experimento Piloto1,001,124,
0.25,Stim\\05_078.jpg,En78_21,Enojo,21,Mauro anuncia la actividad.,Afirmación,En78,78,,,,,,,,,,,,,0,35,35,35,,,,,,,,,1,1.12222010007,2,0.0837495336709,2018_may._18_1500,60.0288771907,Experimento Piloto1,001,124,
2.5,Stim\\03_078.jpg,Tr78_20,Tristeza,20,Karen analiza la idea.,Afirmación,Tr78,78,,,,,,,,,,,,,0,36,36,36,,,,,,,,,1,1.27520406906,4,0.0837178500842,2018_may._18_1500,60.0288771907,Experimento Piloto1,001,124,
0.25,Stim\\03_078.jpg,Tr78_28,Tristeza,28,Antonio responde la pregunta.,Afirmación,Tr78,78,,,,,,,,,,,,,0,37,37,37,,,,,,,,,1,0.820920359067,4,0.133903756869,2018_may._18_1500,60.0288771907,Experimento Piloto1,001,124,
2.5,Stim\\03_028.jpg,Tr28_17,Tristeza,17,Brenda sube el autobús en las mañanas.,Afirmación,Tr28,28,,,,,,,,,,,,,0,38,38,38,,,,,,,,,1,1.23216705014,4,0.0837655985888,2018_may._18_1500,60.0288771907,Experimento Piloto1,001,124,
0.25,Stim\\02_028.jpg,Al28_27,Alegría,27,Claudia informa los avances en el reporte.,Afirmación,Al28,28,,,,,,,,,,,,,0,39,39,39,,,,,,,,,1,1.46370042858,2,0.0344199761857,2018_may._18_1500,60.0288771907,Experimento Piloto1,001,124,
2.5,Stim\\02_019.jpg,Al19_28,Alegría,28,Antonio responde la pregunta.,Afirmación,Al19,19,,,,,,,,,,,,,0,40,40,40,,,,,,,,,1,4.20444614415,2,0.866845939236,2018_may._18_1500,60.0288771907,Experimento Piloto1,001,124,
0.25,Stim\\02_019.jpg,Al19_17,Alegría,17,Brenda sube el autobús en las mañanas.,Afirmación,Al19,19,,,,,,,,,,,,,0,41,41,41,,,,,,,,,1,5.11127676817,3,1.5665154482,2018_may._18_1500,60.0288771907,Experimento Piloto1,001,124,
2.5,Stim\\03_075.jpg,Tr75_21,Tristeza,21,Mauro anuncia la actividad.,Afirmación,Tr75,75,,,,,,,,,,,,,0,42,42,42,,,,,,,,,1,0.873001479755,4,0.0838280732642,2018_may._18_1500,60.0288771907,Experimento Piloto1,001,124,
0.25,Stim\\03_075.jpg,Tr75_26,Tristeza,26,Víctor trae el café a Marco.,Afirmación,Tr75,75,,,,,,,,,,,,,0,43,43,43,,,,,,,,,1,0.77169611604,4,0.0837388237269,2018_may._18_1500,60.0288771907,Experimento Piloto1,001,124,
0.25,Stim\\02_075.jpg,Al75_18,Alegría,18,Sofía escucha la música.,Afirmación,Al75,75,,,,,,,,,,,,,0,44,44,44,,,,,,,,,1,3.63965499699,3,0.0339058988611,2018_may._18_1500,60.0288771907,Experimento Piloto1,001,124,
2.5,Stim\\05_028.jpg,En28_27,Enojo,27,Claudia informa los avances en el reporte.,Afirmación,En28,28,,,,,,,,,,,,,0,45,45,45,,,,,,,,,1,1.97930347877,2,0.10038073852,2018_may._18_1500,60.0288771907,Experimento Piloto1,001,124,
0.25,Stim\\02_019.jpg,Al19_23,Alegría,23,Óscar consigue un nuevo departamento.,Afirmación,Al19,19,,,,,,,,,,,,,0,46,46,46,,,,,,,,,1,1.26635319255,3,0.0339411524255,2018_may._18_1500,60.0288771907,Experimento Piloto1,001,124,
0.25,Stim\\03_075.jpg,Tr75_21,Tristeza,21,Mauro anuncia la actividad.,Afirmación,Tr75,75,,,,,,,,,,,,,0,47,47,47,,,,,,,,,1,1.42342791404,2,0.099999643,2018_may._18_1500,60.0288771907,Experimento Piloto1,001,124,
0.25,Stim\\02_078.jpg,Al78_28,Alegría,28,Antonio responde la pregunta.,Afirmación,Al78,78,,,,,,,,,,,,,0,48,48,48,,,,,,,,,1,3.76982366076,3,0.100342807469,2018_may._18_1500,60.0288771907,Experimento Piloto1,001,124,
2.5,Stim\\03_075.jpg,Tr75_23,Tristeza,23,Óscar consigue un nuevo departamento.,Afirmación,Tr75,75,,,,,,,,,,,,,0,49,49,49,,,,,,,,,1,3.11597397126,4,0.0338063856252,2018_may._18_1500,60.0288771907,Experimento Piloto1,001,124,
0.25,Stim\\02_078.jpg,Al78_22,Alegría,22,Enrique corre todas las mañanas.,Afirmación,Al78,78,,,,,,,,,,,,,0,50,50,50,,,,,,,,,1,2.20217831343,3,0.0837763085328,2018_may._18_1500,60.0288771907,Experimento Piloto1,001,124,
2.5,Stim\\03_028.jpg,Tr28_23,Tristeza,23,Óscar consigue un nuevo departamento.,Afirmación,Tr28,28,,,,,,,,,,,,,0,51,51,51,,,,,,,,,1,2.4990079914,4,0.0339630185626,2018_may._18_1500,60.0288771907,Experimento Piloto1,001,124,
0.25,Stim\\02_028.jpg,Al28_19,Alegría,19,Armando acompaña a Rodrígo a la tienda.,Afirmación,Al28,28,,,,,,,,,,,,,0,52,52,52,,,,,,,,,1,6.24718551587,2,0.0837624748528,2018_may._18_1500,60.0288771907,Experimento Piloto1,001,124,
0.25,Stim\\03_028.jpg,Tr28_28,Tristeza,28,Antonio responde la pregunta.,Afirmación,Tr28,28,,,,,,,,,,,,,0,53,53,53,,,,,,,,,1,0.971928789582,4,0.0337818420048,2018_may._18_1500,60.0288771907,Experimento Piloto1,001,124,
2.5,Stim\\05_075.jpg,En75_16,Enojo,16,Valeria modifica algunas imágenes.,Afirmación,En75,75,,,,,,,,,,,,,0,54,54,54,,,,,,,,,1,4.51715777711,2,0.033801476904,2018_may._18_1500,60.0288771907,Experimento Piloto1,001,124,
0.25,Stim\\03_019.jpg,Tr19_28,Tristeza,28,Antonio responde la pregunta.,Afirmación,Tr19,19,,,,,,,,,,,,,0,55,55,55,,,,,,,,,1,4.75408227379,3,0.133732397757,2018_may._18_1500,60.0288771907,Experimento Piloto1,001,124,
2.5,Stim\\03_019.jpg,Tr19_24,Tristeza,24,Guadalupe comenta los resultados con los compañeros.,Afirmación,Tr19,19,,,,,,,,,,,,,0,56,56,56,,,,,,,,,1,3.52313258733,3,0.0835103449135,2018_may._18_1500,60.0288771907,Experimento Piloto1,001,124,
0.25,Stim\\03_019.jpg,Tr19_30,Tristeza,30,Marisol toma 2 litros de agua cada día.,Afirmación,Tr19,19,,,,,,,,,,,,,0,57,57,57,,,,,,,,,1,2.1482961371,3,0.0840114810599,2018_may._18_1500,60.0288771907,Experimento Piloto1,001,124,
0.25,Stim\\02_075.jpg,Al75_23,Alegría,23,Óscar consigue un nuevo departamento.,Afirmación,Al75,75,,,,,,,,,,,,,0,58,58,58,,,,,,,,,1,2.40005792295,3,0.0837664910832,2018_may._18_1500,60.0288771907,Experimento Piloto1,001,124,
2.5,Stim\\02_078.jpg,Al78_22,Alegría,22,Enrique corre todas las mañanas.,Afirmación,Al78,78,,,,,,,,,,,,,0,59,59,59,,,,,,,,,1,1.95241839469,3,0.0836491279406,2018_may._18_1500,60.0288771907,Experimento Piloto1,001,124,
2.5,Stim\\05_075.jpg,En75_20,Enojo,20,Karen analiza la idea.,Afirmación,En75,75,,,,,,,,,,,,,0,60,60,60,,,,,,,,,1,0.625899858449,2,0.133768097578,2018_may._18_1500,60.0288771907,Experimento Piloto1,001,124,
2.5,Stim\\03_028.jpg,Tr28_18,Tristeza,18,Sofía escucha la música.,Afirmación,Tr28,28,,,,,,,,,,,,,0,61,61,61,,,,,,,,,1,1.34044771138,4,0.0837807710086,2018_may._18_1500,60.0288771907,Experimento Piloto1,001,124,
0.25,Stim\\02_028.jpg,Al28_22,Alegría,22,Enrique corre todas las mañanas.,Afirmación,Al28,28,,,,,,,,,,,,,0,62,62,62,,,,,,,,,1,1.78684086986,3,0.0836839352633,2018_may._18_1500,60.0288771907,Experimento Piloto1,001,124,
2.5,Stim\\03_075.jpg,Tr75_29,Tristeza,29,Miriam mira la película.,Afirmación,Tr75,75,,,,,,,,,,,,,0,63,63,63,,,,,,,,,1,2.20784833647,4,0.133731951515,2018_may._18_1500,60.0288771907,Experimento Piloto1,001,124,
2.5,Stim\\05_075.jpg,En75_19,Enojo,19,Armando acompaña a Rodrígo a la tienda.,Afirmación,En75,75,,,,,,,,,,,,,0,64,64,64,,,,,,,,,1,1.48089836798,2,0.0337015174191,2018_may._18_1500,60.0288771907,Experimento Piloto1,001,124,
0.25,Stim\\05_078.jpg,En78_27,Enojo,27,Claudia informa los avances en el reporte.,Afirmación,En78,78,,,,,,,,,,,,,0,65,65,65,,,,,,,,,1,0.76295992517,2,0.0837040164079,2018_may._18_1500,60.0288771907,Experimento Piloto1,001,124,
0.25,Stim\\02_075.jpg,Al75_29,Alegría,29,Miriam mira la película.,Afirmación,Al75,75,,,,,,,,,,,,,0,66,66,66,,,,,,,,,1,3.79000208844,2,0.0339027751252,2018_may._18_1500,60.0288771907,Experimento Piloto1,001,124,
2.5,Stim\\03_075.jpg,Tr75_19,Tristeza,19,Armando acompaña a Rodrígo a la tienda.,Afirmación,Tr75,75,,,,,,,,,,,,,0,67,67,67,,,,,,,,,1,1.78177194244,4,0.133846190918,2018_may._18_1500,60.0288771907,Experimento Piloto1,001,124,
2.5,Stim\\03_028.jpg,Tr28_22,Tristeza,22,Enrique corre todas las mañanas.,Afirmación,Tr28,28,,,,,,,,,,,,,0,68,68,68,,,,,,,,,1,2.71944899121,4,0.183652787175,2018_may._18_1500,60.0288771907,Experimento Piloto1,001,124,
0.25,Stim\\03_078.jpg,Tr78_25,Tristeza,25,Luis decide la comida siguiente.,Afirmación,Tr78,78,,,,,,,,,,,,,0,69,69,69,,,,,,,,,1,2.19455997301,4,0.0837923734507,2018_may._18_1500,60.0288771907,Experimento Piloto1,001,124,
2.5,Stim\\02_028.jpg,Al28_19,Alegría,19,Armando acompaña a Rodrígo a la tienda.,Afirmación,Al28,28,,,,,,,,,,,,,0,70,70,70,,,,,,,,,1,2.61530593849,2,2.69965121281,2018_may._18_1500,60.0288771907,Experimento Piloto1,001,124,
0.25,Stim\\02_075.jpg,Al75_25,Alegría,25,Luis decide la comida siguiente.,Afirmación,Al75,75,,,,,,,,,,,,,0,71,71,71,,,,,,,,,1,2.75054174468,3,0.0836901827315,2018_may._18_1500,60.0288771907,Experimento Piloto1,001,124,
2.5,Stim\\02_019.jpg,Al19_24,Alegría,24,Guadalupe comenta los resultados con los compañeros.,Afirmación,Al19,19,,,,,,,,,,,,,0,72,72,72,,,,,,,,,1,3.07299764203,2,0.0836955377017,2018_may._18_1500,60.0288771907,Experimento Piloto1,001,124,
0.25,Stim\\03_028.jpg,Tr28_23,Tristeza,23,Óscar consigue un nuevo departamento.,Afirmación,Tr28,28,,,,,,,,,,,,,0,73,73,73,,,,,,,,,1,2.17970751142,4,0.150312284128,2018_may._18_1500,60.0288771907,Experimento Piloto1,001,124,
0.25,Stim\\03_028.jpg,Tr28_25,Tristeza,25,Luis decide la comida siguiente.,Afirmación,Tr28,28,,,,,,,,,,,,,0,74,74,74,,,,,,,,,1,0.853034127238,4,0.0835875457633,2018_may._18_1500,60.0288771907,Experimento Piloto1,001,124,
0.25,Stim\\05_019.jpg,En19_23,Enojo,23,Óscar consigue un nuevo departamento.,Afirmación,En19,19,,,,,,,,,,,,,0,75,75,75,,,,,,,,,1,1.48281634052,2,0.083913306571,2018_may._18_1500,60.0288771907,Experimento Piloto1,001,124,
2.5,Stim\\03_019.jpg,Tr19_26,Tristeza,26,Víctor trae el café a Marco.,Afirmación,Tr19,19,,,,,,,,,,,,,0,76,76,76,,,,,,,,,1,3.95404184375,3,0.0836991076831,2018_may._18_1500,60.0288771907,Experimento Piloto1,001,124,
0.25,Stim\\05_028.jpg,En28_30,Enojo,30,Marisol toma 2 litros de agua cada día.,Afirmación,En28,28,,,,,,,,,,,,,0,77,77,77,,,,,,,,,1,1.73173106616,2,0.0838008521532,2018_may._18_1500,60.0288771907,Experimento Piloto1,001,124,
2.5,Stim\\02_019.jpg,Al19_26,Alegría,26,Víctor trae el café a Marco.,Afirmación,Al19,19,,,,,,,,,,,,,0,78,78,78,,,,,,,,,1,4.97174404304,3,0.0839940773985,2018_may._18_1500,60.0288771907,Experimento Piloto1,001,124,
0.25,Stim\\03_075.jpg,Tr75_27,Tristeza,27,Claudia informa los avances en el reporte.,Afirmación,Tr75,75,,,,,,,,,,,,,0,79,79,79,,,,,,,,,1,2.44647125183,4,0.150194920985,2018_may._18_1500,60.0288771907,Experimento Piloto1,001,124,
2.5,Stim\\02_078.jpg,Al78_27,Alegría,27,Claudia informa los avances en el reporte.,Afirmación,Al78,78,,,,,,,,,,,,,0,80,80,80,,,,,,,,,1,3.64928457572,2,2.18306597147,2018_may._18_1500,60.0288771907,Experimento Piloto1,001,124,
0.25,Stim\\02_019.jpg,Al19_26,Alegría,26,Víctor trae el café a Marco.,Afirmación,Al19,19,,,,,,,,,,,,,0,81,81,81,,,,,,,,,1,1.58069273705,3,0.0837174038352,2018_may._18_1500,60.0288771907,Experimento Piloto1,001,124,
0.25,Stim\\03_019.jpg,Tr19_29,Tristeza,29,Miriam mira la película.,Afirmación,Tr19,19,,,,,,,,,,,,,0,82,82,82,,,,,,,,,1,2.23440587476,3,0.0504790915111,2018_may._18_1500,60.0288771907,Experimento Piloto1,001,124,
2.5,Stim\\05_075.jpg,En75_27,Enojo,27,Claudia informa los avances en el reporte.,Afirmación,En75,75,,,,,,,,,,,,,0,83,83,83,,,,,,,,,1,2.03006236758,2,0.100165200889,2018_may._18_1500,60.0288771907,Experimento Piloto1,001,124,
0.25,Stim\\05_019.jpg,En19_25,Enojo,25,Luis decide la comida siguiente.,Afirmación,En19,19,,,,,,,,,,,,,0,84,84,84,,,,,,,,,1,1.56746372452,2,0.0839191077903,2018_may._18_1500,60.0288771907,Experimento Piloto1,001,124,
2.5,Stim\\03_028.jpg,Tr28_20,Tristeza,20,Karen analiza la idea.,Afirmación,Tr28,28,,,,,,,,,,,,,0,85,85,85,,,,,,,,,1,1.19210427202,4,0.0837298987753,2018_may._18_1500,60.0288771907,Experimento Piloto1,001,124,
2.5,Stim\\05_028.jpg,En28_26,Enojo,26,Víctor trae el café a Marco.,Afirmación,En28,28,,,,,,,,,,,,,0,86,86,86,,,,,,,,,1,1.17247115901,2,0.0338777852558,2018_may._18_1500,60.0288771907,Experimento Piloto1,001,124,
0.25,Stim\\05_028.jpg,En28_21,Enojo,21,Mauro anuncia la actividad.,Afirmación,En28,28,,,,,,,,,,,,,0,87,87,87,,,,,,,,,1,1.01938723053,2,0.100062563924,2018_may._18_1500,60.0288771907,Experimento Piloto1,001,124,
0.25,Stim\\03_075.jpg,Tr75_22,Tristeza,22,Enrique corre todas las mañanas.,Afirmación,Tr75,75,,,,,,,,,,,,,0,88,88,88,,,,,,,,,1,0.80331499553,4,0.400390377472,2018_may._18_1500,60.0288771907,Experimento Piloto1,001,124,
0.25,Stim\\05_028.jpg,En28_27,Enojo,27,Claudia informa los avances en el reporte.,Afirmación,En28,28,,,,,,,,,,,,,0,89,89,89,,,,,,,,,1,3.41271484594,3,0.0837651523398,2018_may._18_1500,60.0288771907,Experimento Piloto1,001,124,
2.5,Stim\\03_075.jpg,Tr75_22,Tristeza,22,Enrique corre todas las mañanas.,Afirmación,Tr75,75,,,,,,,,,,,,,0,90,90,90,,,,,,,,,1,2.00261992014,4,0.0837303450207,2018_may._18_1500,60.0288771907,Experimento Piloto1,001,124,
0.25,Stim\\05_019.jpg,En19_28,Enojo,28,Antonio responde la pregunta.,Afirmación,En19,19,,,,,,,,,,,,,0,91,91,91,,,,,,,,,1,1.37158464337,2,0.0500975497416,2018_may._18_1500,60.0288771907,Experimento Piloto1,001,124,
2.5,Stim\\03_019.jpg,Tr19_17,Tristeza,17,Brenda sube el autobús en las mañanas.,Afirmación,Tr19,19,,,,,,,,,,,,,0,92,92,92,,,,,,,,,1,5.73064311431,3,0.0837281137829,2018_may._18_1500,60.0288771907,Experimento Piloto1,001,124,
0.25,Stim\\05_028.jpg,En28_29,Enojo,29,Miriam mira la película.,Afirmación,En28,28,,,,,,,,,,,,,0,93,93,93,,,,,,,,,1,1.17492819875,2,0.0838744830216,2018_may._18_1500,60.0288771907,Experimento Piloto1,001,124,
0.25,Stim\\05_028.jpg,En28_18,Enojo,18,Sofía escucha la música.,Afirmación,En28,28,,,,,,,,,,,,,0,94,94,94,,,,,,,,,1,1.1754088075,2,0.0838535093826,2018_may._18_1500,60.0288771907,Experimento Piloto1,001,124,
0.25,Stim\\05_028.jpg,En28_25,Enojo,25,Luis decide la comida siguiente.,Afirmación,En28,28,,,,,,,,,,,,,0,95,95,95,,,,,,,,,1,1.38451779368,2,0.033821558045,2018_may._18_1500,60.0288771907,Experimento Piloto1,001,124,
2.5,Stim\\03_075.jpg,Tr75_16,Tristeza,16,Valeria modifica algunas imágenes.,Afirmación,Tr75,75,,,,,,,,,,,,,0,96,96,96,,,,,,,,,1,1.43578451235,4,0.0337532821541,2018_may._18_1500,60.0288771907,Experimento Piloto1,001,124,
2.5,Stim\\05_019.jpg,En19_18,Enojo,18,Sofía escucha la música.,Afirmación,En19,19,,,,,,,,,,,,,0,97,97,97,,,,,,,,,1,1.33775237538,2,0.0337202598203,2018_may._18_1500,60.0288771907,Experimento Piloto1,001,124,
0.25,Stim\\05_075.jpg,En75_28,Enojo,28,Antonio responde la pregunta.,Afirmación,En75,75,,,,,,,,,,,,,0,98,98,98,,,,,,,,,1,0.501147302788,2,0.0339108075823,2018_may._18_1500,60.0288771907,Experimento Piloto1,001,124,
0.25,Stim\\03_019.jpg,Tr19_24,Tristeza,24,Guadalupe comenta los resultados con los compañeros.,Afirmación,Tr19,19,,,,,,,,,,,,,0,99,99,99,,,,,,,,,1,5.4052553697,3,0.133759618868,2018_may._18_1500,60.0288771907,Experimento Piloto1,001,124,
0.25,Stim\\02_075.jpg,Al75_21,Alegría,21,Mauro anuncia la actividad.,Afirmación,Al75,75,,,,,,,,,,,,,0,100,100,100,,,,,,,,,1,3.07282583667,3,0.0337925519489,2018_may._18_1500,60.0288771907,Experimento Piloto1,001,124,
0.25,Stim\\03_019.jpg,Tr19_23,Tristeza,23,Óscar consigue un nuevo departamento.,Afirmación,Tr19,19,,,,,,,,,,,,,0,101,101,101,,,,,,,,,1,4.0359568532,3,0.0839713187706,2018_may._18_1500,60.0288771907,Experimento Piloto1,001,124,
2.5,Stim\\05_028.jpg,En28_30,Enojo,30,Marisol toma 2 litros de agua cada día.,Afirmación,En28,28,,,,,,,,,,,,,0,102,102,102,,,,,,,,,1,1.18574881254,2,0.0503603896286,2018_may._18_1500,60.0288771907,Experimento Piloto1,001,124,
0.25,Stim\\02_078.jpg,Al78_19,Alegría,19,Armando acompaña a Rodrígo a la tienda.,Afirmación,Al78,78,,,,,,,,,,,,,0,103,103,103,,,,,,,,,1,6.0740034843,3,0.350091123775,2018_may._18_1500,60.0288771907,Experimento Piloto1,001,124,
2.5,Stim\\03_075.jpg,Tr75_25,Tristeza,25,Luis decide la comida siguiente.,Afirmación,Tr75,75,,,,,,,,,,,,,0,104,104,104,,,,,,,,,1,1.58351079116,4,0.0838771605086,2018_may._18_1500,60.0288771907,Experimento Piloto1,001,124,
2.5,Stim\\03_028.jpg,Tr28_29,Tristeza,29,Miriam mira la película.,Afirmación,Tr28,28,,,,,,,,,,,,,0,105,105,105,,,,,,,,,1,3.58778539771,4,0.0838410144424,2018_may._18_1500,60.0288771907,Experimento Piloto1,001,124,
0.25,Stim\\03_028.jpg,Tr28_24,Tristeza,24,Guadalupe comenta los resultados con los compañeros.,Afirmación,Tr28,28,,,,,,,,,,,,,0,106,106,106,,,,,,,,,1,1.56790193975,4,0.08409269814,2018_may._18_1500,60.0288771907,Experimento Piloto1,001,124,
0.25,Stim\\02_075.jpg,Al75_30,Alegría,30,Marisol toma 2 litros de agua cada día.,Afirmación,Al75,75,,,,,,,,,,,,,0,107,107,107,,,,,,,,,1,2.69567693096,3,0.0838624343342,2018_may._18_1500,60.0288771907,Experimento Piloto1,001,124,
2.5,Stim\\05_019.jpg,En19_27,Enojo,27,Claudia informa los avances en el reporte.,Afirmación,En19,19,,,,,,,,,,,,,0,108,108,108,,,,,,,,,1,0.512246375132,2,0.600079521337,2018_may._18_1500,60.0288771907,Experimento Piloto1,001,124,
2.5,Stim\\05_075.jpg,En75_18,Enojo,18,Sofía escucha la música.,Afirmación,En75,75,,,,,,,,,,,,,0,109,109,109,,,,,,,,,1,1.02222313455,2,0.0339656960496,2018_may._18_1500,60.0288771907,Experimento Piloto1,001,124,
2.5,Stim\\02_028.jpg,Al28_23,Alegría,23,Óscar consigue un nuevo departamento.,Afirmación,Al28,28,,,,,,,,,,,,,0,110,110,110,,,,,,,,,1,4.14732911838,3,1.56696437337,2018_may._18_1500,60.0288771907,Experimento Piloto1,001,124,
2.5,Stim\\05_078.jpg,En78_29,Enojo,29,Miriam mira la película.,Afirmación,En78,78,,,,,,,,,,,,,0,111,111,111,,,,,,,,,1,2.9215688462,2,1.83330328599,2018_may._18_1500,60.0288771907,Experimento Piloto1,001,124,
0.25,Stim\\03_078.jpg,Tr78_20,Tristeza,20,Karen analiza la idea.,Afirmación,Tr78,78,,,,,,,,,,,,,0,112,112,112,,,,,,,,,1,1.2246776753,4,0.301073493421,2018_may._18_1500,60.0288771907,Experimento Piloto1,001,124,
0.25,Stim\\02_019.jpg,Al19_25,Alegría,25,Luis decide la comida siguiente.,Afirmación,Al19,19,,,,,,,,,,,,,0,113,113,113,,,,,,,,,1,2.64951126954,3,0.0838102233574,2018_may._18_1500,60.0288771907,Experimento Piloto1,001,124,
2.5,Stim\\03_078.jpg,Tr78_16,Tristeza,16,Valeria modifica algunas imágenes.,Afirmación,Tr78,78,,,,,,,,,,,,,0,114,114,114,,,,,,,,,1,1.1829053223,4,0.133808259867,2018_may._18_1500,60.0288771907,Experimento Piloto1,001,124,
0.25,Stim\\02_028.jpg,Al28_21,Alegría,21,Mauro anuncia la actividad.,Afirmación,Al28,28,,,,,,,,,,,,,0,115,115,115,,,,,,,,,1,3.53705194502,3,0.183750515414,2018_may._18_1500,60.0288771907,Experimento Piloto1,001,124,
2.5,Stim\\05_019.jpg,En19_30,Enojo,30,Marisol toma 2 litros de agua cada día.,Afirmación,En19,19,,,,,,,,,,,,,0,116,116,116,,,,,,,,,1,1.37784817583,2,0.0836330630264,2018_may._18_1500,60.0288771907,Experimento Piloto1,001,124,
0.25,Stim\\05_078.jpg,En78_26,Enojo,26,Víctor trae el café a Marco.,Afirmación,En78,78,,,,,,,,,,,,,0,117,117,117,,,,,,,,,1,1.22004517811,2,0.0338710915385,2018_may._18_1500,60.0288771907,Experimento Piloto1,001,124,
0.25,Stim\\02_078.jpg,Al78_21,Alegría,21,Mauro anuncia la actividad.,Afirmación,Al78,78,,,,,,,,,,,,,0,118,118,118,,,,,,,,,1,3.21347685849,2,2.24984381331,2018_may._18_1500,60.0288771907,Experimento Piloto1,001,124,
0.25,Stim\\03_075.jpg,Tr75_30,Tristeza,30,Marisol toma 2 litros de agua cada día.,Afirmación,Tr75,75,,,,,,,,,,,,,0,119,119,119,,,,,,,,,1,1.16393310212,4,0.134072884739,2018_may._18_1500,60.0288771907,Experimento Piloto1,001,124,
