Tiempo,ImagenesE,ClaveEn,Emocion,NumEn,Enunciado,ActoHabla,Clave,Cara,trials.thisRepN,trials.thisTrialN,trials.thisN,trials.thisIndex,Bloque2.thisRepN,Bloque2.thisTrialN,Bloque2.thisN,Bloque2.thisIndex,Bloque1.thisRepN,Bloque1.thisTrialN,Bloque1.thisN,Bloque1.thisIndex,Bloque3.thisRepN,Bloque3.thisTrialN,Bloque3.thisN,Bloque3.thisIndex,Sig_B2.keys,Sig_B2.rt,Resp_Bloque2.keys,Resp_Bloque2.rt,Sig_B1.keys,Sig_B1.rt,Resp_Bloque1.keys,Resp_Bloque1.rt,Sig_B3.keys,Sig_B3.rt,Resp_Bloque3.keys,Resp_Bloque3.rt,date,frameRate,expName,session,participant,
2.5,Stim\\02_078.jpg,Al78_17,Alegría,17,Brenda sube el autobús en las mañanas.,Afirmación,Al78,78,,,,,0,0,0,0,,,,,,,,,1,2.49010444883,3,4.23320612288,,,,,,,,,2018_may._23_1616,60.0161228121,Experimento Piloto1,001,125,
2.5,Stim\\05_019.jpg,En19_23,Enojo,23,Óscar consigue un nuevo departamento.,Afirmación,En19,19,,,,,0,1,1,1,,,,,,,,,1,2.95967746974,2,0.866531661747,,,,,,,,,2018_may._23_1616,60.0161228121,Experimento Piloto1,001,125,
0.25,Stim\\02_075.jpg,Al75_17,Alegría,17,Brenda sube el autobús en las mañanas.,Afirmación,Al75,75,,,,,0,2,2,2,,,,,,,,,1,4.12961096985,3,1.06677879393,,,,,,,,,2018_may._23_1616,60.0161228121,Experimento Piloto1,001,125,
2.5,Stim\\02_075.jpg,Al75_24,Alegría,24,Guadalupe comenta los resultados con los compañeros.,Afirmación,Al75,75,,,,,0,3,3,3,,,,,,,,,1,3.82082023967,3,0.900459903271,,,,,,,,,2018_may._23_1616,60.0161228121,Experimento Piloto1,001,125,
0.25,Stim\\05_075.jpg,En75_19,Enojo,19,Armando acompaña a Rodrígo a la tienda.,Afirmación,En75,75,,,,,0,4,4,4,,,,,,,,,1,2.39542845617,2,0.966755856783,,,,,,,,,2018_may._23_1616,60.0161228121,Experimento Piloto1,001,125,
2.5,Stim\\02_019.jpg,Al19_29,Alegría,29,Miriam mira la película.,Afirmación,Al19,19,,,,,0,5,5,5,,,,,,,,,1,4.87103385863,3,12.8466432773,,,,,,,,,2018_may._23_1616,60.0161228121,Experimento Piloto1,001,125,
2.5,Stim\\02_078.jpg,Al78_24,Alegría,24,Guadalupe comenta los resultados con los compañeros.,Afirmación,Al78,78,,,,,0,6,6,6,,,,,,,,,1,1.62212069583,3,0.816970457485,,,,,,,,,2018_may._23_1616,60.0161228121,Experimento Piloto1,001,125,
0.25,Stim\\05_028.jpg,En28_20,Enojo,20,Karen analiza la idea.,Afirmación,En28,28,,,,,0,7,7,7,,,,,,,,,1,2.1874139299,2,0.500399392032,,,,,,,,,2018_may._23_1616,60.0161228121,Experimento Piloto1,001,125,
0.25,Stim\\03_078.jpg,Tr78_27,Tristeza,27,Claudia informa los avances en el reporte.,Afirmación,Tr78,78,,,,,0,8,8,8,,,,,,,,,1,1.72392460906,4,1.31750595518,,,,,,,,,2018_may._23_1616,60.0161228121,Experimento Piloto1,001,125,
0.25,Stim\\02_019.jpg,Al19_30,Alegría,30,Marisol toma 2 litros de agua cada día.,Afirmación,Al19,19,,,,,0,9,9,9,,,,,,,,,1,1.41318065104,3,0.750896289269,,,,,,,,,2018_may._23_1616,60.0161228121,Experimento Piloto1,001,125,
2.5,Stim\\02_019.jpg,Al19_19,Alegría,19,Armando acompaña a Rodrígo a la tienda.,Afirmación,Al19,19,,,,,0,10,10,10,,,,,,,,,1,1.02980044678,3,1.00022133905,,,,,,,,,2018_may._23_1616,60.0161228121,Experimento Piloto1,001,125,
0.25,Stim\\02_028.jpg,Al28_30,Alegría,30,Marisol toma 2 litros de agua cada día.,Afirmación,Al28,28,,,,,0,11,11,11,,,,,,,,,1,1.11314307695,3,1.0168735324,,,,,,,,,2018_may._23_1616,60.0161228121,Experimento Piloto1,001,125,
2.5,Stim\\02_019.jpg,Al19_16,Alegría,16,Valeria modifica algunas imágenes.,Afirmación,Al19,19,,,,,0,12,12,12,,,,,,,,,1,1.26291285757,3,0.500404747008,,,,,,,,,2018_may._23_1616,60.0161228121,Experimento Piloto1,001,125,
2.5,Stim\\03_075.jpg,Tr75_30,Tristeza,30,Marisol toma 2 litros de agua cada día.,Afirmación,Tr75,75,,,,,0,13,13,13,,,,,,,,,1,2.04643345147,4,1.00051630903,,,,,,,,,2018_may._23_1616,60.0161228121,Experimento Piloto1,001,125,
2.5,Stim\\02_078.jpg,Al78_19,Alegría,19,Armando acompaña a Rodrígo a la tienda.,Afirmación,Al78,78,,,,,0,14,14,14,,,,,,,,,1,0.809825579476,3,0.650148645235,,,,,,,,,2018_may._23_1616,60.0161228121,Experimento Piloto1,001,125,
2.5,Stim\\05_075.jpg,En75_25,Enojo,25,Luis decide la comida siguiente.,Afirmación,En75,75,,,,,0,15,15,15,,,,,,,,,1,0.861187840989,2,0.500463651755,,,,,,,,,2018_may._23_1616,60.0161228121,Experimento Piloto1,001,125,
0.25,Stim\\03_075.jpg,Tr75_24,Tristeza,24,Guadalupe comenta los resultados con los compañeros.,Afirmación,Tr75,75,,,,,0,16,16,16,,,,,,,,,1,2.95332245083,4,0.551309157992,,,,,,,,,2018_may._23_1616,60.0161228121,Experimento Piloto1,001,125,
2.5,Stim\\05_078.jpg,En78_25,Enojo,25,Luis decide la comida siguiente.,Afirmación,En78,78,,,,,0,17,17,17,,,,,,,,,1,2.24867486633,2,2.13376286198,,,,,,,,,2018_may._23_1616,60.0161228121,Experimento Piloto1,001,125,
2.5,Stim\\05_028.jpg,En28_17,Enojo,17,Brenda sube el autobús en las mañanas.,Afirmación,En28,28,,,,,0,18,18,18,,,,,,,,,1,1.73117033914,4,1.31674644095,,,,,,,,,2018_may._23_1616,60.0161228121,Experimento Piloto1,001,125,
0.25,Stim\\02_078.jpg,Al78_26,Alegría,26,Víctor trae el café a Marco.,Afirmación,Al78,78,,,,,0,19,19,19,,,,,,,,,1,1.12085647501,3,0.700318085632,,,,,,,,,2018_may._23_1616,60.0161228121,Experimento Piloto1,001,125,
2.5,Stim\\03_075.jpg,Tr75_20,Tristeza,20,Karen analiza la idea.,Afirmación,Tr75,75,,,,,0,20,20,20,,,,,,,,,1,1.19131324562,4,1.16673167014,,,,,,,,,2018_may._23_1616,60.0161228121,Experimento Piloto1,001,125,
2.5,Stim\\05_028.jpg,En28_21,Enojo,21,Mauro anuncia la actividad.,Afirmación,En28,28,,,,,0,21,21,21,,,,,,,,,1,0.153886419154,2,2.89955625091,,,,,,,,,2018_may._23_1616,60.0161228121,Experimento Piloto1,001,125,
0.25,Stim\\05_019.jpg,En19_21,Enojo,21,Mauro anuncia la actividad.,Afirmación,En19,19,,,,,0,22,22,22,,,,,,,,,1,1.23353411522,2,0.550264491238,,,,,,,,,2018_may._23_1616,60.0161228121,Experimento Piloto1,001,125,
0.25,Stim\\03_028.jpg,Tr28_16,Tristeza,16,Valeria modifica algunas imágenes.,Afirmación,Tr28,28,,,,,0,23,23,23,,,,,,,,,1,1.58155763785,4,0.851190991501,,,,,,,,,2018_may._23_1616,60.0161228121,Experimento Piloto1,001,125,
0.25,Stim\\05_075.jpg,En75_27,Enojo,27,Claudia informa los avances en el reporte.,Afirmación,En75,75,,,,,0,24,24,24,,,,,,,,,1,1.62767202194,4,4.79953866874,,,,,,,,,2018_may._23_1616,60.0161228121,Experimento Piloto1,001,125,
2.5,Stim\\02_078.jpg,Al78_18,Alegría,18,Sofía escucha la música.,Afirmación,Al78,78,,,,,0,25,25,25,,,,,,,,,1,1.02311788178,3,0.500321744866,,,,,,,,,2018_may._23_1616,60.0161228121,Experimento Piloto1,001,125,
2.5,Stim\\03_028.jpg,Tr28_25,Tristeza,25,Luis decide la comida siguiente.,Afirmación,Tr28,28,,,,,0,26,26,26,,,,,,,,,1,0.916837207808,4,1.00021375283,,,,,,,,,2018_may._23_1616,60.0161228121,Experimento Piloto1,001,125,
0.25,Stim\\03_075.jpg,Tr75_18,Tristeza,18,Sofía escucha la música.,Afirmación,Tr75,75,,,,,0,27,27,27,,,,,,,,,1,1.18874999665,4,1.09997072613,,,,,,,,,2018_may._23_1616,60.0161228121,Experimento Piloto1,001,125,
2.5,Stim\\02_028.jpg,Al28_27,Alegría,27,Claudia informa los avances en el reporte.,Afirmación,Al28,28,,,,,0,28,28,28,,,,,,,,,1,1.07491300394,3,0.649914811242,,,,,,,,,2018_may._23_1616,60.0161228121,Experimento Piloto1,001,125,
2.5,Stim\\02_028.jpg,Al28_20,Alegría,20,Karen analiza la idea.,Afirmación,Al28,28,,,,,0,29,29,29,,,,,,,,,1,0.708577245096,3,0.500220000304,,,,,,,,,2018_may._23_1616,60.0161228121,Experimento Piloto1,001,125,
0.25,Stim\\05_078.jpg,En78_29,Enojo,29,Miriam mira la película.,Afirmación,En78,78,,,,,0,30,30,30,,,,,,,,,1,2.04038634374,2,0.916830067838,,,,,,,,,2018_may._23_1616,60.0161228121,Experimento Piloto1,001,125,
0.25,Stim\\05_019.jpg,En19_22,Enojo,22,Enrique corre todas las mañanas.,Afirmación,En19,19,,,,,0,31,31,31,,,,,,,,,1,0.850912978947,2,0.600458029029,,,,,,,,,2018_may._23_1616,60.0161228121,Experimento Piloto1,001,125,
2.5,Stim\\03_019.jpg,Tr19_20,Tristeza,20,Karen analiza la idea.,Afirmación,Tr19,19,,,,,0,32,32,32,,,,,,,,,1,5.65561027549,4,0.534038911048,,,,,,,,,2018_may._23_1616,60.0161228121,Experimento Piloto1,001,125,
2.5,Stim\\05_078.jpg,En78_22,Enojo,22,Enrique corre todas las mañanas.,Afirmación,En78,78,,,,,0,33,33,33,,,,,,,,,1,0.869478684068,2,1.06676763773,,,,,,,,,2018_may._23_1616,60.0161228121,Experimento Piloto1,001,125,
2.5,Stim\\02_078.jpg,Al78_16,Alegría,16,Valeria modifica algunas imágenes.,Afirmación,Al78,78,,,,,0,34,34,34,,,,,,,,,1,1.38261444255,3,0.600392430561,,,,,,,,,2018_may._23_1616,60.0161228121,Experimento Piloto1,001,125,
2.5,Stim\\05_028.jpg,En28_24,Enojo,24,Guadalupe comenta los resultados con los compañeros.,Afirmación,En28,28,,,,,0,35,35,35,,,,,,,,,1,5.47111034555,2,1.15014953773,,,,,,,,,2018_may._23_1616,60.0161228121,Experimento Piloto1,001,125,
2.5,Stim\\02_075.jpg,Al75_16,Alegría,16,Valeria modifica algunas imágenes.,Afirmación,Al75,75,,,,,0,36,36,36,,,,,,,,,1,0.467312328138,3,1.10020589886,,,,,,,,,2018_may._23_1616,60.0161228121,Experimento Piloto1,001,125,
0.25,Stim\\02_019.jpg,Al19_18,Alegría,18,Sofía escucha la música.,Afirmación,Al19,19,,,,,0,37,37,37,,,,,,,,,1,0.770699440315,3,0.550291712369,,,,,,,,,2018_may._23_1616,60.0161228121,Experimento Piloto1,001,125,
2.5,Stim\\02_028.jpg,Al28_26,Alegría,26,Víctor trae el café a Marco.,Afirmación,Al28,28,,,,,0,38,38,38,,,,,,,,,1,1.48673393708,3,0.333961353131,,,,,,,,,2018_may._23_1616,60.0161228121,Experimento Piloto1,001,125,
2.5,Stim\\02_078.jpg,Al78_29,Alegría,29,Miriam mira la película.,Afirmación,Al78,78,,,,,0,39,39,39,,,,,,,,,1,0.617005354085,3,0.551166804855,,,,,,,,,2018_may._23_1616,60.0161228121,Experimento Piloto1,001,125,
0.25,Stim\\05_078.jpg,En78_24,Enojo,24,Guadalupe comenta los resultados con los compañeros.,Afirmación,En78,78,,,,,0,40,40,40,,,,,,,,,1,1.15252759375,2,0.650205318742,,,,,,,,,2018_may._23_1616,60.0161228121,Experimento Piloto1,001,125,
0.25,Stim\\03_075.jpg,Tr75_19,Tristeza,19,Armando acompaña a Rodrígo a la tienda.,Afirmación,Tr75,75,,,,,0,41,41,41,,,,,,,,,1,1.11376559302,4,0.600387075585,,,,,,,,,2018_may._23_1616,60.0161228121,Experimento Piloto1,001,125,
0.25,Stim\\02_028.jpg,Al28_17,Alegría,17,Brenda sube el autobús en las mañanas.,Afirmación,Al28,28,,,,,0,42,42,42,,,,,,,,,1,0.896554340075,3,0.55030331482,,,,,,,,,2018_may._23_1616,60.0161228121,Experimento Piloto1,001,125,
2.5,Stim\\05_075.jpg,En75_21,Enojo,21,Mauro anuncia la actividad.,Afirmación,En75,75,,,,,0,43,43,43,,,,,,,,,1,0.570422855756,2,0.699600964967,,,,,,,,,2018_may._23_1616,60.0161228121,Experimento Piloto1,001,125,
0.25,Stim\\03_019.jpg,Tr19_27,Tristeza,27,Claudia informa los avances en el reporte.,Afirmación,Tr19,19,,,,,0,44,44,44,,,,,,,,,1,0.695130005453,4,2.18344901571,,,,,,,,,2018_may._23_1616,60.0161228121,Experimento Piloto1,001,125,
2.5,Stim\\02_075.jpg,Al75_19,Alegría,19,Armando acompaña a Rodrígo a la tienda.,Afirmación,Al75,75,,,,,0,45,45,45,,,,,,,,,1,0.564797006211,3,0.450926991137,,,,,,,,,2018_may._23_1616,60.0161228121,Experimento Piloto1,001,125,
2.5,Stim\\03_019.jpg,Tr19_22,Tristeza,22,Enrique corre todas las mañanas.,Afirmación,Tr19,19,,,,,0,46,46,46,,,,,,,,,1,0.868375112566,4,0.650270470961,,,,,,,,,2018_may._23_1616,60.0161228121,Experimento Piloto1,001,125,
2.5,Stim\\02_075.jpg,Al75_23,Alegría,23,Óscar consigue un nuevo departamento.,Afirmación,Al75,75,,,,,0,47,47,47,,,,,,,,,1,0.965164982378,3,0.383690346673,,,,,,,,,2018_may._23_1616,60.0161228121,Experimento Piloto1,001,125,
2.5,Stim\\02_019.jpg,Al19_27,Alegría,27,Claudia informa los avances en el reporte.,Afirmación,Al19,19,,,,,0,48,48,48,,,,,,,,,1,0.512599814539,3,0.500830467677,,,,,,,,,2018_may._23_1616,60.0161228121,Experimento Piloto1,001,125,
2.5,Stim\\03_028.jpg,Tr28_16,Tristeza,16,Valeria modifica algunas imágenes.,Afirmación,Tr28,28,,,,,0,49,49,49,,,,,,,,,1,2.40031933513,4,1.73295131523,,,,,,,,,2018_may._23_1616,60.0161228121,Experimento Piloto1,001,125,
2.5,Stim\\02_078.jpg,Al78_20,Alegría,20,Karen analiza la idea.,Afirmación,Al78,78,,,,,0,50,50,50,,,,,,,,,1,0.974025684255,3,0.600922127032,,,,,,,,,2018_may._23_1616,60.0161228121,Experimento Piloto1,001,125,
2.5,Stim\\05_075.jpg,En75_24,Enojo,24,Guadalupe comenta los resultados con los compañeros.,Afirmación,En75,75,,,,,0,51,51,51,,,,,,,,,1,0.538970844827,2,2.6002219638,,,,,,,,,2018_may._23_1616,60.0161228121,Experimento Piloto1,001,125,
0.25,Stim\\03_028.jpg,Tr28_26,Tristeza,26,Víctor trae el café a Marco.,Afirmación,Tr28,28,,,,,0,52,52,52,,,,,,,,,1,0.920271533032,4,0.65054268229,,,,,,,,,2018_may._23_1616,60.0161228121,Experimento Piloto1,001,125,
2.5,Stim\\03_028.jpg,Tr28_21,Tristeza,21,Mauro anuncia la actividad.,Afirmación,Tr28,28,,,,,0,53,53,53,,,,,,,,,1,0.605214141066,4,0.450261189002,,,,,,,,,2018_may._23_1616,60.0161228121,Experimento Piloto1,001,125,
2.5,Stim\\02_075.jpg,Al75_29,Alegría,29,Miriam mira la película.,Afirmación,Al75,75,,,,,0,54,54,54,,,,,,,,,1,0.629811335237,3,0.500566288813,,,,,,,,,2018_may._23_1616,60.0161228121,Experimento Piloto1,001,125,
0.25,Stim\\03_078.jpg,Tr78_26,Tristeza,26,Víctor trae el café a Marco.,Afirmación,Tr78,78,,,,,0,55,55,55,,,,,,,,,1,0.90419767719,4,0.600340665785,,,,,,,,,2018_may._23_1616,60.0161228121,Experimento Piloto1,001,125,
0.25,Stim\\05_019.jpg,En19_19,Enojo,19,Armando acompaña a Rodrígo a la tienda.,Afirmación,En19,19,,,,,0,56,56,56,,,,,,,,,1,0.392923665696,2,0.700277030808,,,,,,,,,2018_may._23_1616,60.0161228121,Experimento Piloto1,001,125,
0.25,Stim\\03_078.jpg,Tr78_19,Tristeza,19,Armando acompaña a Rodrígo a la tienda.,Afirmación,Tr78,78,,,,,0,57,57,57,,,,,,,,,1,0.266994242507,4,1.56682074125,,,,,,,,,2018_may._23_1616,60.0161228121,Experimento Piloto1,001,125,
2.5,Stim\\03_078.jpg,Tr78_18,Tristeza,18,Sofía escucha la música.,Afirmación,Tr78,78,,,,,0,58,58,58,,,,,,,,,1,0.157307356935,4,0.550419785569,,,,,,,,,2018_may._23_1616,60.0161228121,Experimento Piloto1,001,125,
2.5,Stim\\05_075.jpg,En75_26,Enojo,26,Víctor trae el café a Marco.,Afirmación,En75,75,,,,,0,59,59,59,,,,,,,,,1,0.669137393536,2,0.499831764474,,,,,,,,,2018_may._23_1616,60.0161228121,Experimento Piloto1,001,125,
2.5,Stim\\02_075.jpg,Al75_30,Alegría,30,Marisol toma 2 litros de agua cada día.,Afirmación,Al75,75,,,,,0,60,60,60,,,,,,,,,1,0.912401948141,3,0.383801462444,,,,,,,,,2018_may._23_1616,60.0161228121,Experimento Piloto1,001,125,
2.5,Stim\\03_019.jpg,Tr19_18,Tristeza,18,Sofía escucha la música.,Afirmación,Tr19,19,,,,,0,61,61,61,,,,,,,,,1,1.58461934593,3,1.53312142499,,,,,,,,,2018_may._23_1616,60.0161228121,Experimento Piloto1,001,125,
0.25,Stim\\03_078.jpg,Tr78_23,Tristeza,23,Óscar consigue un nuevo departamento.,Afirmación,Tr78,78,,,,,0,62,62,62,,,,,,,,,1,1.77760245187,4,2.2330160212,,,,,,,,,2018_may._23_1616,60.0161228121,Experimento Piloto1,001,125,
2.5,Stim\\03_019.jpg,Tr19_25,Tristeza,25,Luis decide la comida siguiente.,Afirmación,Tr19,19,,,,,0,63,63,63,,,,,,,,,1,0.764371642541,3,1.46649390916,,,,,,,,,2018_may._23_1616,60.0161228121,Experimento Piloto1,001,125,
0.25,Stim\\02_028.jpg,Al28_29,Alegría,29,Miriam mira la película.,Afirmación,Al28,28,,,,,0,64,64,64,,,,,,,,,1,2.65547773981,3,1.7333649872,,,,,,,,,2018_may._23_1616,60.0161228121,Experimento Piloto1,001,125,
2.5,Stim\\02_019.jpg,Al19_21,Alegría,21,Mauro anuncia la actividad.,Afirmación,Al19,19,,,,,0,65,65,65,,,,,,,,,1,0.504517369313,3,0.400014993935,,,,,,,,,2018_may._23_1616,60.0161228121,Experimento Piloto1,001,125,
2.5,Stim\\02_078.jpg,Al78_25,Alegría,25,Luis decide la comida siguiente.,Afirmación,Al78,78,,,,,0,66,66,66,,,,,,,,,1,0.50005578101,3,0.450509749182,,,,,,,,,2018_may._23_1616,60.0161228121,Experimento Piloto1,001,125,
2.5,Stim\\05_075.jpg,En75_29,Enojo,29,Miriam mira la película.,Afirmación,En75,75,,,,,0,67,67,67,,,,,,,,,1,0.522616745191,2,1.51653973884,,,,,,,,,2018_may._23_1616,60.0161228121,Experimento Piloto1,001,125,
0.25,Stim\\03_028.jpg,Tr28_20,Tristeza,20,Karen analiza la idea.,Afirmación,Tr28,28,,,,,0,68,68,68,,,,,,,,,1,1.32381144055,4,1.98321125473,,,,,,,,,2018_may._23_1616,60.0161228121,Experimento Piloto1,001,125,
2.5,Stim\\02_075.jpg,Al75_26,Alegría,26,Víctor trae el café a Marco.,Afirmación,Al75,75,,,,,0,69,69,69,,,,,,,,,1,0.57056833263,3,0.650382032982,,,,,,,,,2018_may._23_1616,60.0161228121,Experimento Piloto1,001,125,
0.25,Stim\\05_019.jpg,En19_20,Enojo,20,Karen analiza la idea.,Afirmación,En19,19,,,,,0,70,70,70,,,,,,,,,1,0.857957897386,2,0.700359140455,,,,,,,,,2018_may._23_1616,60.0161228121,Experimento Piloto1,001,125,
0.25,Stim\\05_028.jpg,En28_22,Enojo,22,Enrique corre todas las mañanas.,Afirmación,En28,28,,,,,0,71,71,71,,,,,,,,,1,0.301181307917,2,0.550848183726,,,,,,,,,2018_may._23_1616,60.0161228121,Experimento Piloto1,001,125,
2.5,Stim\\05_028.jpg,En28_22,Enojo,22,Enrique corre todas las mañanas.,Afirmación,En28,28,,,,,0,72,72,72,,,,,,,,,1,2.46630112999,2,0.76661002291,,,,,,,,,2018_may._23_1616,60.0161228121,Experimento Piloto1,001,125,
0.25,Stim\\05_019.jpg,En19_17,Enojo,17,Brenda sube el autobús en las mañanas.,Afirmación,En19,19,,,,,0,73,73,73,,,,,,,,,1,1.66250346958,2,1.63320192815,,,,,,,,,2018_may._23_1616,60.0161228121,Experimento Piloto1,001,125,
2.5,Stim\\05_078.jpg,En78_26,Enojo,26,Víctor trae el café a Marco.,Afirmación,En78,78,,,,,0,74,74,74,,,,,,,,,1,0.453982897989,2,0.700389039076,,,,,,,,,2018_may._23_1616,60.0161228121,Experimento Piloto1,001,125,
2.5,Stim\\03_078.jpg,Tr78_29,Tristeza,29,Miriam mira la película.,Afirmación,Tr78,78,,,,,0,75,75,75,,,,,,,,,1,0.423794661624,4,0.43356883332,,,,,,,,,2018_may._23_1616,60.0161228121,Experimento Piloto1,001,125,
0.25,Stim\\02_075.jpg,Al75_22,Alegría,22,Enrique corre todas las mañanas.,Afirmación,Al75,75,,,,,0,76,76,76,,,,,,,,,1,1.78255312807,3,0.400250166674,,,,,,,,,2018_may._23_1616,60.0161228121,Experimento Piloto1,001,125,
2.5,Stim\\02_019.jpg,Al19_23,Alegría,23,Óscar consigue un nuevo departamento.,Afirmación,Al19,19,,,,,0,77,77,77,,,,,,,,,1,0.713409665555,3,0.649954081072,,,,,,,,,2018_may._23_1616,60.0161228121,Experimento Piloto1,001,125,
0.25,Stim\\05_075.jpg,En75_21,Enojo,21,Mauro anuncia la actividad.,Afirmación,En75,75,,,,,0,78,78,78,,,,,,,,,1,0.854228155933,2,0.800448122322,,,,,,,,,2018_may._23_1616,60.0161228121,Experimento Piloto1,001,125,
0.25,Stim\\02_078.jpg,Al78_25,Alegría,25,Luis decide la comida siguiente.,Afirmación,Al78,78,,,,,0,79,79,79,,,,,,,,,1,1.01383502922,3,1.58350417197,,,,,,,,,2018_may._23_1616,60.0161228121,Experimento Piloto1,001,125,
0.25,Stim\\03_078.jpg,Tr78_22,Tristeza,22,Enrique corre todas las mañanas.,Afirmación,Tr78,78,,,,,0,80,80,80,,,,,,,,,1,1.06701798291,4,0.650415947835,,,,,,,,,2018_may._23_1616,60.0161228121,Experimento Piloto1,001,125,
0.25,Stim\\05_028.jpg,En28_26,Enojo,26,Víctor trae el café a Marco.,Afirmación,En28,28,,,,,0,81,81,81,,,,,,,,,1,0.803649952297,2,0.91690637626,,,,,,,,,2018_may._23_1616,60.0161228121,Experimento Piloto1,001,125,
2.5,Stim\\05_019.jpg,En19_29,Enojo,29,Miriam mira la película.,Afirmación,En19,19,,,,,0,82,82,82,,,,,,,,,1,0.50673789976,2,0.650380694236,,,,,,,,,2018_may._23_1616,60.0161228121,Experimento Piloto1,001,125,
0.25,Stim\\02_019.jpg,Al19_21,Alegría,21,Mauro anuncia la actividad.,Afirmación,Al19,19,,,,,0,83,83,83,,,,,,,,,1,0.454222979456,3,0.700458653776,,,,,,,,,2018_may._23_1616,60.0161228121,Experimento Piloto1,001,125,
2.5,Stim\\05_078.jpg,En78_30,Enojo,30,Marisol toma 2 litros de agua cada día.,Afirmación,En78,78,,,,,0,84,84,84,,,,,,,,,1,1.79680807673,3,0.583675531237,,,,,,,,,2018_may._23_1616,60.0161228121,Experimento Piloto1,001,125,
0.25,Stim\\02_078.jpg,Al78_30,Alegría,30,Marisol toma 2 litros de agua cada día.,Afirmación,Al78,78,,,,,0,85,85,85,,,,,,,,,1,1.25045896615,3,0.649749253203,,,,,,,,,2018_may._23_1616,60.0161228121,Experimento Piloto1,001,125,
0.25,Stim\\03_075.jpg,Tr75_16,Tristeza,16,Valeria modifica algunas imágenes.,Afirmación,Tr75,75,,,,,0,86,86,86,,,,,,,,,1,1.56605899578,4,0.550455931663,,,,,,,,,2018_may._23_1616,60.0161228121,Experimento Piloto1,001,125,
0.25,Stim\\02_019.jpg,Al19_24,Alegría,24,Guadalupe comenta los resultados con los compañeros.,Afirmación,Al19,19,,,,,0,87,87,87,,,,,,,,,1,0.955250688784,3,0.500782719132,,,,,,,,,2018_may._23_1616,60.0161228121,Experimento Piloto1,001,125,
2.5,Stim\\02_028.jpg,Al28_29,Alegría,29,Miriam mira la película.,Afirmación,Al28,28,,,,,0,88,88,88,,,,,,,,,1,0.0406656950354,3,0.600292024744,,,,,,,,,2018_may._23_1616,60.0161228121,Experimento Piloto1,001,125,
0.25,Stim\\03_019.jpg,Tr19_25,Tristeza,25,Luis decide la comida siguiente.,Afirmación,Tr19,19,,,,,0,89,89,89,,,,,,,,,1,4.04911584868,3,2.38294912861,,,,,,,,,2018_may._23_1616,60.0161228121,Experimento Piloto1,001,125,
0.25,Stim\\03_075.jpg,Tr75_25,Tristeza,25,Luis decide la comida siguiente.,Afirmación,Tr75,75,,,,,0,90,90,90,,,,,,,,,1,1.40002481139,4,0.85100044357,,,,,,,,,2018_may._23_1616,60.0161228121,Experimento Piloto1,001,125,
2.5,Stim\\03_078.jpg,Tr78_25,Tristeza,25,Luis decide la comida siguiente.,Afirmación,Tr78,78,,,,,0,91,91,91,,,,,,,,,1,0.467124457698,4,0.50063679601,,,,,,,,,2018_may._23_1616,60.0161228121,Experimento Piloto1,001,125,
2.5,Stim\\02_019.jpg,Al19_18,Alegría,18,Sofía escucha la música.,Afirmación,Al19,19,,,,,0,92,92,92,,,,,,,,,1,0.720515273732,3,0.45033124995,,,,,,,,,2018_may._23_1616,60.0161228121,Experimento Piloto1,001,125,
2.5,Stim\\03_028.jpg,Tr28_19,Tristeza,19,Armando acompaña a Rodrígo a la tienda.,Afirmación,Tr28,28,,,,,0,93,93,93,,,,,,,,,1,1.62866358517,4,0.500064259723,,,,,,,,,2018_may._23_1616,60.0161228121,Experimento Piloto1,001,125,
0.25,Stim\\03_078.jpg,Tr78_18,Tristeza,18,Sofía escucha la música.,Afirmación,Tr78,78,,,,,0,94,94,94,,,,,,,,,1,0.806646954401,4,0.500787181613,,,,,,,,,2018_may._23_1616,60.0161228121,Experimento Piloto1,001,125,
0.25,Stim\\05_019.jpg,En19_29,Enojo,29,Miriam mira la película.,Afirmación,En19,19,,,,,0,95,95,95,,,,,,,,,1,0.656287233824,2,0.916344549928,,,,,,,,,2018_may._23_1616,60.0161228121,Experimento Piloto1,001,125,
2.5,Stim\\03_078.jpg,Tr78_24,Tristeza,24,Guadalupe comenta los resultados con los compañeros.,Afirmación,Tr78,78,,,,,0,96,96,96,,,,,,,,,1,1.57127474334,4,0.599896202696,,,,,,,,,2018_may._23_1616,60.0161228121,Experimento Piloto1,001,125,
2.5,Stim\\05_019.jpg,En19_22,Enojo,22,Enrique corre todas las mañanas.,Afirmación,En19,19,,,,,0,97,97,97,,,,,,,,,1,0.4012435149,2,0.450201838006,,,,,,,,,2018_may._23_1616,60.0161228121,Experimento Piloto1,001,125,
0.25,Stim\\02_028.jpg,Al28_20,Alegría,20,Karen analiza la idea.,Afirmación,Al28,28,,,,,0,98,98,98,,,,,,,,,1,1.10751187243,3,0.816484493325,,,,,,,,,2018_may._23_1616,60.0161228121,Experimento Piloto1,001,125,
2.5,Stim\\03_078.jpg,Tr78_27,Tristeza,27,Claudia informa los avances en el reporte.,Afirmación,Tr78,78,,,,,0,99,99,99,,,,,,,,,1,0.645441620487,4,0.400331383825,,,,,,,,,2018_may._23_1616,60.0161228121,Experimento Piloto1,001,125,
0.25,Stim\\03_075.jpg,Tr75_17,Tristeza,17,Brenda sube el autobús en las mañanas.,Afirmación,Tr75,75,,,,,0,100,100,100,,,,,,,,,1,0.861180254772,4,0.383705519107,,,,,,,,,2018_may._23_1616,60.0161228121,Experimento Piloto1,001,125,
2.5,Stim\\05_028.jpg,En28_25,Enojo,25,Luis decide la comida siguiente.,Afirmación,En28,28,,,,,0,101,101,101,,,,,,,,,1,0.915736760043,2,0.917214733684,,,,,,,,,2018_may._23_1616,60.0161228121,Experimento Piloto1,001,125,
2.5,Stim\\02_028.jpg,Tr28_30,Tristeza,30,Marisol toma 2 litros de agua cada día.,Afirmación,Tr28,28,,,,,0,102,102,102,,,,,,,,,1,0.595813479013,3,0.601235839433,,,,,,,,,2018_may._23_1616,60.0161228121,Experimento Piloto1,001,125,
0.25,Stim\\02_078.jpg,Al78_18,Alegría,18,Sofía escucha la música.,Afirmación,Al78,78,,,,,0,103,103,103,,,,,,,,,1,0.556022876462,3,0.450291533871,,,,,,,,,2018_may._23_1616,60.0161228121,Experimento Piloto1,001,125,
0.25,Stim\\02_078.jpg,Al78_24,Alegría,24,Guadalupe comenta los resultados con los compañeros.,Afirmación,Al78,78,,,,,0,104,104,104,,,,,,,,,1,1.70727375445,3,0.400345663763,,,,,,,,,2018_may._23_1616,60.0161228121,Experimento Piloto1,001,125,
0.25,Stim\\05_075.jpg,En75_26,Enojo,26,Víctor trae el café a Marco.,Afirmación,En75,75,,,,,0,105,105,105,,,,,,,,,1,2.80461518689,4,0.450157659447,,,,,,,,,2018_may._23_1616,60.0161228121,Experimento Piloto1,001,125,
0.25,Stim\\05_019.jpg,En19_16,Enojo,16,Valeria modifica algunas imágenes.,Afirmación,En19,19,,,,,0,106,106,106,,,,,,,,,1,0.600179570228,2,0.800582889242,,,,,,,,,2018_may._23_1616,60.0161228121,Experimento Piloto1,001,125,
2.5,Stim\\05_019.jpg,En19_21,Enojo,21,Mauro anuncia la actividad.,Afirmación,En19,19,,,,,0,107,107,107,,,,,,,,,1,1.03210353312,2,0.483551295771,,,,,,,,,2018_may._23_1616,60.0161228121,Experimento Piloto1,001,125,
0.25,Stim\\03_028.jpg,Tr28_22,Tristeza,22,Enrique corre todas las mañanas.,Afirmación,Tr28,28,,,,,0,108,108,108,,,,,,,,,1,1.16946315464,4,0.550431834267,,,,,,,,,2018_may._23_1616,60.0161228121,Experimento Piloto1,001,125,
2.5,Stim\\05_075.jpg,En75_28,Enojo,28,Antonio responde la pregunta.,Afirmación,En75,75,,,,,0,109,109,109,,,,,,,,,1,0.353926492232,2,0.450933684858,,,,,,,,,2018_may._23_1616,60.0161228121,Experimento Piloto1,001,125,
2.5,Stim\\05_078.jpg,En78_28,Enojo,28,Antonio responde la pregunta.,Afirmación,En78,78,,,,,0,110,110,110,,,,,,,,,1,0.483226427169,2,0.750962780233,,,,,,,,,2018_may._23_1616,60.0161228121,Experimento Piloto1,001,125,
2.5,Stim\\03_028.jpg,Tr28_26,Tristeza,26,Víctor trae el café a Marco.,Afirmación,Tr28,28,,,,,0,111,111,111,,,,,,,,,1,1.6369901281,4,1.00026908759,,,,,,,,,2018_may._23_1616,60.0161228121,Experimento Piloto1,001,125,
2.5,Stim\\05_028.jpg,En28_20,Enojo,20,Karen analiza la idea.,Afirmación,En28,28,,,,,0,112,112,112,,,,,,,,,1,0.824714646666,2,0.600429022905,,,,,,,,,2018_may._23_1616,60.0161228121,Experimento Piloto1,001,125,
2.5,Stim\\02_019.jpg,Al19_30,Alegría,30,Marisol toma 2 litros de agua cada día.,Afirmación,Al19,19,,,,,0,113,113,113,,,,,,,,,1,1.17984511622,3,0.800413314972,,,,,,,,,2018_may._23_1616,60.0161228121,Experimento Piloto1,001,125,
2.5,Stim\\05_078.jpg,En78_23,Enojo,23,Óscar consigue un nuevo departamento.,Afirmación,En78,78,,,,,0,114,114,114,,,,,,,,,1,1.16508858471,2,2.03339051259,,,,,,,,,2018_may._23_1616,60.0161228121,Experimento Piloto1,001,125,
0.25,Stim\\05_078.jpg,En78_23,Enojo,23,Óscar consigue un nuevo departamento.,Afirmación,En78,78,,,,,0,115,115,115,,,,,,,,,1,1.35037480376,2,0.550024409769,,,,,,,,,2018_may._23_1616,60.0161228121,Experimento Piloto1,001,125,
2.5,Stim\\05_019.jpg,En19_19,Enojo,19,Armando acompaña a Rodrígo a la tienda.,Afirmación,En19,19,,,,,0,116,116,116,,,,,,,,,1,0.446329297168,2,0.45010589467,,,,,,,,,2018_may._23_1616,60.0161228121,Experimento Piloto1,001,125,
2.5,Stim\\03_078.jpg,Tr78_17,Tristeza,17,Brenda sube el autobús en las mañanas.,Afirmación,Tr78,78,,,,,0,117,117,117,,,,,,,,,1,0.347931149277,4,0.550189075312,,,,,,,,,2018_may._23_1616,60.0161228121,Experimento Piloto1,001,125,
0.25,Stim\\05_075.jpg,En75_20,Enojo,20,Karen analiza la idea.,Afirmación,En75,75,,,,,0,118,118,118,,,,,,,,,1,1.22357207308,2,0.800169217272,,,,,,,,,2018_may._23_1616,60.0161228121,Experimento Piloto1,001,125,
0.25,Stim\\05_078.jpg,En78_28,Enojo,28,Antonio responde la pregunta.,Afirmación,En78,78,,,,,0,119,119,119,,,,,,,,,1,0.703657360014,2,0.651280776614,,,,,,,,,2018_may._23_1616,60.0161228121,Experimento Piloto1,001,125,
2.5,Stim\\05_028.jpg,En28_16,Enojo,16,Valeria modifica algunas imágenes.,Afirmación,En28,28,,,,,,,,,0,0,0,0,,,,,,,,,1,4.13182123659,2,0.400532641708,,,,,2018_may._23_1616,60.0161228121,Experimento Piloto1,001,125,
2.5,Stim\\05_028.jpg,En28_29,Enojo,29,Miriam mira la película.,Afirmación,En28,28,,,,,,,,,0,1,1,1,,,,,,,,,1,0.60655422405,2,0.451122894044,,,,,2018_may._23_1616,60.0161228121,Experimento Piloto1,001,125,
0.25,Stim\\03_028.jpg,Tr28_29,Tristeza,29,Miriam mira la película.,Afirmación,Tr28,28,,,,,,,,,0,2,2,2,,,,,,,,,1,0.933852647099,4,0.450280823917,,,,,2018_may._23_1616,60.0161228121,Experimento Piloto1,001,125,
2.5,Stim\\02_075.jpg,Al75_22,Alegría,22,Enrique corre todas las mañanas.,Afirmación,Al75,75,,,,,,,,,0,3,3,3,,,,,,,,,1,0.601441113549,3,0.966932571022,,,,,2018_may._23_1616,60.0161228121,Experimento Piloto1,001,125,
2.5,Stim\\05_019.jpg,En19_17,Enojo,17,Brenda sube el autobús en las mañanas.,Afirmación,En19,19,,,,,,,,,0,4,4,4,,,,,,,,,1,0.39583275693,2,0.400251951665,,,,,2018_may._23_1616,60.0161228121,Experimento Piloto1,001,125,
2.5,Stim\\02_028.jpg,Al28_17,Alegría,17,Brenda sube el autobús en las mañanas.,Afirmación,Al28,28,,,,,,,,,0,5,5,5,,,,,,,,,1,1.1335151943,3,0.450480296808,,,,,2018_may._23_1616,60.0161228121,Experimento Piloto1,001,125,
0.25,Stim\\05_075.jpg,En75_24,Enojo,24,Guadalupe comenta los resultados con los compañeros.,Afirmación,En75,75,,,,,,,,,0,6,6,6,,,,,,,,,1,0.68656159607,2,0.400240349216,,,,,2018_may._23_1616,60.0161228121,Experimento Piloto1,001,125,
2.5,Stim\\03_078.jpg,Tr78_23,Tristeza,23,Óscar consigue un nuevo departamento.,Afirmación,Tr78,78,,,,,,,,,0,7,7,7,,,,,,,,,1,0.864652511083,4,0.434517556738,,,,,2018_may._23_1616,60.0161228121,Experimento Piloto1,001,125,
0.25,Stim\\05_075.jpg,En75_16,Enojo,16,Valeria modifica algunas imágenes.,Afirmación,En75,75,,,,,,,,,0,8,8,8,,,,,,,,,1,0.966837073933,2,1.01670128064,,,,,2018_may._23_1616,60.0161228121,Experimento Piloto1,001,125,
0.25,Stim\\02_078.jpg,Al78_23,Alegría,23,Óscar consigue un nuevo departamento.,Afirmación,Al78,78,,,,,,,,,0,9,9,9,,,,,,,,,1,0.847510337337,3,1.06731473788,,,,,2018_may._23_1616,60.0161228121,Experimento Piloto1,001,125,
2.5,Stim\\05_078.jpg,En78_24,Enojo,24,Guadalupe comenta los resultados con los compañeros.,Afirmación,En78,78,,,,,,,,,0,10,10,10,,,,,,,,,1,0.904452038595,3,1.21700954882,,,,,2018_may._23_1616,60.0161228121,Experimento Piloto1,001,125,
2.5,Stim\\03_028.jpg,Tr28_28,Tristeza,28,Antonio responde la pregunta.,Afirmación,Tr28,28,,,,,,,,,0,11,11,11,,,,,,,,,1,1.01352711805,4,0.50004417856,,,,,2018_may._23_1616,60.0161228121,Experimento Piloto1,001,125,
0.25,Stim\\02_019.jpg,Al19_20,Alegría,20,Karen analiza la idea.,Afirmación,Al19,19,,,,,,,,,0,12,12,12,,,,,,,,,1,2.80780273693,4,0.75031036554,,,,,2018_may._23_1616,60.0161228121,Experimento Piloto1,001,125,
2.5,Stim\\05_078.jpg,En78_27,Enojo,27,Claudia informa los avances en el reporte.,Afirmación,En78,78,,,,,,,,,0,13,13,13,,,,,,,,,1,7.46770413395,2,0.701265916554,,,,,2018_may._23_1616,60.0161228121,Experimento Piloto1,001,125,
0.25,Stim\\05_028.jpg,En28_28,Enojo,28,Antonio responde la pregunta.,Afirmación,En28,28,,,,,,,,,0,14,14,14,,,,,,,,,1,1.3362934456,2,0.433519299783,,,,,2018_may._23_1616,60.0161228121,Experimento Piloto1,001,125,
2.5,Stim\\03_078.jpg,Tr78_30,Tristeza,30,Marisol toma 2 litros de agua cada día.,Afirmación,Tr78,78,,,,,,,,,0,15,15,15,,,,,,,,,1,0.558123366174,4,0.400914183817,,,,,2018_may._23_1616,60.0161228121,Experimento Piloto1,001,125,
0.25,Stim\\03_028.jpg,Tr28_27,Tristeza,27,Claudia informa los avances en el reporte.,Afirmación,Tr28,28,,,,,,,,,0,16,16,16,,,,,,,,,1,0.994962751673,4,0.55029394361,,,,,2018_may._23_1616,60.0161228121,Experimento Piloto1,001,125,
0.25,Stim\\02_075.jpg,Al75_24,Alegría,24,Guadalupe comenta los resultados con los compañeros.,Afirmación,Al75,75,,,,,,,,,0,17,17,17,,,,,,,,,1,0.705092047592,3,0.383589940854,,,,,2018_may._23_1616,60.0161228121,Experimento Piloto1,001,125,
0.25,Stim\\02_019.jpg,Al19_16,Alegría,16,Valeria modifica algunas imágenes.,Afirmación,Al19,19,,,,,,,,,0,18,18,18,,,,,,,,,1,0.348030662598,3,0.400917307553,,,,,2018_may._23_1616,60.0161228121,Experimento Piloto1,001,125,
2.5,Stim\\02_028.jpg,Al28_30,Alegría,30,Marisol toma 2 litros de agua cada día.,Afirmación,Al28,28,,,,,,,,,0,19,19,19,,,,,,,,,1,0.446760819062,3,0.450201391758,,,,,2018_may._23_1616,60.0161228121,Experimento Piloto1,001,125,
2.5,Stim\\05_078.jpg,En78_16,Enojo,16,Valeria modifica algunas imágenes.,Afirmación,En78,78,,,,,,,,,0,20,20,20,,,,,,,,,1,0.350007541592,2,0.400690613528,,,,,2018_may._23_1616,60.0161228121,Experimento Piloto1,001,125,
0.25,Stim\\02_075.jpg,Al75_28,Alegría,28,Antonio responde la pregunta.,Afirmación,Al75,75,,,,,,,,,0,21,21,21,,,,,,,,,1,1.5677288561,3,0.400388949826,,,,,2018_may._23_1616,60.0161228121,Experimento Piloto1,001,125,
2.5,Stim\\03_075.jpg,Tr75_17,Tristeza,17,Brenda sube el autobús en las mañanas.,Afirmación,Tr75,75,,,,,,,,,0,22,22,22,,,,,,,,,1,1.33042885333,4,0.283713373073,,,,,2018_may._23_1616,60.0161228121,Experimento Piloto1,001,125,
0.25,Stim\\05_075.jpg,En75_18,Enojo,18,Sofía escucha la música.,Afirmación,En75,75,,,,,,,,,0,23,23,23,,,,,,,,,1,0.356310795723,2,1.00022133905,,,,,2018_may._23_1616,60.0161228121,Experimento Piloto1,001,125,
2.5,Stim\\02_075.jpg,Al75_25,Alegría,25,Luis decide la comida siguiente.,Afirmación,Al75,75,,,,,,,,,0,24,24,24,,,,,,,,,1,0.31643451354,3,0.333916282076,,,,,2018_may._23_1616,60.0161228121,Experimento Piloto1,001,125,
0.25,Stim\\02_028.jpg,Al28_18,Alegría,18,Sofía escucha la música.,Afirmación,Al28,28,,,,,,,,,0,25,25,25,,,,,,,,,1,0.556266974161,3,0.450693157142,,,,,2018_may._23_1616,60.0161228121,Experimento Piloto1,001,125,
0.25,Stim\\02_028.jpg,Al28_23,Alegría,23,Óscar consigue un nuevo departamento.,Afirmación,Al28,28,,,,,,,,,0,26,26,26,,,,,,,,,1,0.438513262046,3,0.400757104493,,,,,2018_may._23_1616,60.0161228121,Experimento Piloto1,001,125,
0.25,Stim\\02_075.jpg,Al75_19,Alegría,19,Armando acompaña a Rodrígo a la tienda.,Afirmación,Al75,75,,,,,,,,,0,27,27,27,,,,,,,,,1,0.79617440446,3,1.16682181225,,,,,2018_may._23_1616,60.0161228121,Experimento Piloto1,001,125,
2.5,Stim\\05_019.jpg,En19_16,Enojo,16,Valeria modifica algunas imágenes.,Afirmación,En19,19,,,,,,,,,0,28,28,28,,,,,,,,,1,1.01703730545,2,0.400309963917,,,,,2018_may._23_1616,60.0161228121,Experimento Piloto1,001,125,
2.5,Stim\\02_019.jpg,Al19_25,Alegría,25,Luis decide la comida siguiente.,Afirmación,Al19,19,,,,,,,,,0,29,29,29,,,,,,,,,1,2.04802120214,3,0.333902448385,,,,,2018_may._23_1616,60.0161228121,Experimento Piloto1,001,125,
0.25,Stim\\02_078.jpg,Al78_27,Alegría,27,Claudia informa los avances en el reporte.,Afirmación,Al78,78,,,,,,,,,0,30,30,30,,,,,,,,,1,0.437451637865,3,0.300141549891,,,,,2018_may._23_1616,60.0161228121,Experimento Piloto1,001,125,
0.25,Stim\\03_019.jpg,Tr19_22,Tristeza,22,Enrique corre todas las mañanas.,Afirmación,Tr19,19,,,,,,,,,0,31,31,31,,,,,,,,,1,0.384825601788,4,0.350670219991,,,,,2018_may._23_1616,60.0161228121,Experimento Piloto1,001,125,
2.5,Stim\\05_019.jpg,En19_26,Enojo,26,Víctor trae el café a Marco.,Afirmación,En19,19,,,,,,,,,0,32,32,32,,,,,,,,,1,0.354086249044,2,0.300227229523,,,,,2018_may._23_1616,60.0161228121,Experimento Piloto1,001,125,
2.5,Stim\\02_078.jpg,Al78_26,Alegría,26,Víctor trae el café a Marco.,Afirmación,Al78,78,,,,,,,,,0,33,33,33,,,,,,,,,1,0.366748092067,3,0.384710916032,,,,,2018_may._23_1616,60.0161228121,Experimento Piloto1,001,125,
0.25,Stim\\05_078.jpg,En78_17,Enojo,17,Brenda sube el autobús en las mañanas.,Afirmación,En78,78,,,,,,,,,0,34,34,34,,,,,,,,,1,0.447812625785,4,0.401123920415,,,,,2018_may._23_1616,60.0161228121,Experimento Piloto1,001,125,
0.25,Stim\\05_078.jpg,En78_21,Enojo,21,Mauro anuncia la actividad.,Afirmación,En78,78,,,,,,,,,0,35,35,35,,,,,,,,,1,0.703896548985,2,0.500230710258,,,,,2018_may._23_1616,60.0161228121,Experimento Piloto1,001,125,
2.5,Stim\\03_078.jpg,Tr78_20,Tristeza,20,Karen analiza la idea.,Afirmación,Tr78,78,,,,,,,,,0,36,36,36,,,,,,,,,1,0.474018098038,4,0.333681109337,,,,,2018_may._23_1616,60.0161228121,Experimento Piloto1,001,125,
0.25,Stim\\03_078.jpg,Tr78_28,Tristeza,28,Antonio responde la pregunta.,Afirmación,Tr78,78,,,,,,,,,0,37,37,37,,,,,,,,,1,1.119291483,4,0.350136507288,,,,,2018_may._23_1616,60.0161228121,Experimento Piloto1,001,125,
2.5,Stim\\03_028.jpg,Tr28_17,Tristeza,17,Brenda sube el autobús en las mañanas.,Afirmación,Tr28,28,,,,,,,,,0,38,38,38,,,,,,,,,1,0.397189351092,4,0.350304296566,,,,,2018_may._23_1616,60.0161228121,Experimento Piloto1,001,125,
0.25,Stim\\02_028.jpg,Al28_27,Alegría,27,Claudia informa los avances en el reporte.,Afirmación,Al28,28,,,,,,,,,0,39,39,39,,,,,,,,,1,0.592064548892,3,0.283501405235,,,,,2018_may._23_1616,60.0161228121,Experimento Piloto1,001,125,
2.5,Stim\\02_019.jpg,Al19_28,Alegría,28,Antonio responde la pregunta.,Afirmación,Al19,19,,,,,,,,,0,40,40,40,,,,,,,,,1,0.352207098379,3,0.300361103947,,,,,2018_may._23_1616,60.0161228121,Experimento Piloto1,001,125,
0.25,Stim\\02_019.jpg,Al19_17,Alegría,17,Brenda sube el autobús en las mañanas.,Afirmación,Al19,19,,,,,,,,,0,41,41,41,,,,,,,,,1,0.446308769757,3,0.450413359596,,,,,2018_may._23_1616,60.0161228121,Experimento Piloto1,001,125,
2.5,Stim\\03_075.jpg,Tr75_21,Tristeza,21,Mauro anuncia la actividad.,Afirmación,Tr75,75,,,,,,,,,0,42,42,42,,,,,,,,,1,0.353889007392,4,0.283759336626,,,,,2018_may._23_1616,60.0161228121,Experimento Piloto1,001,125,
0.25,Stim\\03_075.jpg,Tr75_26,Tristeza,26,Víctor trae el café a Marco.,Afirmación,Tr75,75,,,,,,,,,0,43,43,43,,,,,,,,,1,0.453519246234,4,0.350471639596,,,,,2018_may._23_1616,60.0161228121,Experimento Piloto1,001,125,
0.25,Stim\\02_075.jpg,Al75_18,Alegría,18,Sofía escucha la música.,Afirmación,Al75,75,,,,,,,,,0,44,44,44,,,,,,,,,1,0.503742682647,3,0.400108706032,,,,,2018_may._23_1616,60.0161228121,Experimento Piloto1,001,125,
2.5,Stim\\05_028.jpg,En28_27,Enojo,27,Claudia informa los avances en el reporte.,Afirmación,En28,28,,,,,,,,,0,45,45,45,,,,,,,,,1,0.345613336749,2,0.333827032459,,,,,2018_may._23_1616,60.0161228121,Experimento Piloto1,001,125,
0.25,Stim\\02_019.jpg,Al19_23,Alegría,23,Óscar consigue un nuevo departamento.,Afirmación,Al19,19,,,,,,,,,0,46,46,46,,,,,,,,,1,0.814252360429,3,0.283745056687,,,,,2018_may._23_1616,60.0161228121,Experimento Piloto1,001,125,
0.25,Stim\\03_075.jpg,Tr75_21,Tristeza,21,Mauro anuncia la actividad.,Afirmación,Tr75,75,,,,,,,,,0,47,47,47,,,,,,,,,1,0.454240383131,4,0.350481010805,,,,,2018_may._23_1616,60.0161228121,Experimento Piloto1,001,125,
0.25,Stim\\02_078.jpg,Al78_28,Alegría,28,Antonio responde la pregunta.,Afirmación,Al78,78,,,,,,,,,0,48,48,48,,,,,,,,,1,0.453139042869,3,0.283912845965,,,,,2018_may._23_1616,60.0161228121,Experimento Piloto1,001,125,
2.5,Stim\\03_075.jpg,Tr75_23,Tristeza,23,Óscar consigue un nuevo departamento.,Afirmación,Tr75,75,,,,,,,,,0,49,49,49,,,,,,,,,1,0.414848280116,4,0.333451291575,,,,,2018_may._23_1616,60.0161228121,Experimento Piloto1,001,125,
0.25,Stim\\02_078.jpg,Al78_22,Alegría,22,Enrique corre todas las mañanas.,Afirmación,Al78,78,,,,,,,,,0,50,50,50,,,,,,,,,1,0.301102322008,3,0.234337361764,,,,,2018_may._23_1616,60.0161228121,Experimento Piloto1,001,125,
2.5,Stim\\03_028.jpg,Tr28_23,Tristeza,23,Óscar consigue un nuevo departamento.,Afirmación,Tr28,28,,,,,,,,,0,51,51,51,,,,,,,,,1,0.61539573726,4,0.284800433396,,,,,2018_may._23_1616,60.0161228121,Experimento Piloto1,001,125,
0.25,Stim\\02_028.jpg,Al28_19,Alegría,19,Armando acompaña a Rodrígo a la tienda.,Afirmación,Al28,28,,,,,,,,,0,52,52,52,,,,,,,,,1,0.496533991162,3,0.350437724742,,,,,2018_may._23_1616,60.0161228121,Experimento Piloto1,001,125,
0.25,Stim\\03_028.jpg,Tr28_28,Tristeza,28,Antonio responde la pregunta.,Afirmación,Tr28,28,,,,,,,,,0,53,53,53,,,,,,,,,1,0.499187382246,4,0.350347136381,,,,,2018_may._23_1616,60.0161228121,Experimento Piloto1,001,125,
2.5,Stim\\05_075.jpg,En75_16,Enojo,16,Valeria modifica algunas imágenes.,Afirmación,En75,75,,,,,,,,,0,54,54,54,,,,,,,,,1,0.301142484334,2,0.383474808849,,,,,2018_may._23_1616,60.0161228121,Experimento Piloto1,001,125,
0.25,Stim\\03_019.jpg,Tr19_28,Tristeza,28,Antonio responde la pregunta.,Afirmación,Tr19,19,,,,,,,,,0,55,55,55,,,,,,,,,1,0.401050289482,3,0.300213395832,,,,,2018_may._23_1616,60.0161228121,Experimento Piloto1,001,125,
2.5,Stim\\03_019.jpg,Tr19_24,Tristeza,24,Guadalupe comenta los resultados con los compañeros.,Afirmación,Tr19,19,,,,,,,,,0,56,56,56,,,,,,,,,1,0.479950966261,3,0.350624256439,,,,,2018_may._23_1616,60.0161228121,Experimento Piloto1,001,125,
0.25,Stim\\03_019.jpg,Tr19_30,Tristeza,30,Marisol toma 2 litros de agua cada día.,Afirmación,Tr19,19,,,,,,,,,0,57,57,57,,,,,,,,,1,0.796172173219,3,0.550245748817,,,,,2018_may._23_1616,60.0161228121,Experimento Piloto1,001,125,
0.25,Stim\\02_075.jpg,Al75_23,Alegría,23,Óscar consigue un nuevo departamento.,Afirmación,Al75,75,,,,,,,,,0,58,58,58,,,,,,,,,1,0.597309748824,3,0.550095363214,,,,,2018_may._23_1616,60.0161228121,Experimento Piloto1,001,125,
2.5,Stim\\02_078.jpg,Al78_22,Alegría,22,Enrique corre todas las mañanas.,Afirmación,Al78,78,,,,,,,,,0,59,59,59,,,,,,,,,1,0.40217528089,3,0.300484714665,,,,,2018_may._23_1616,60.0161228121,Experimento Piloto1,001,125,
2.5,Stim\\05_075.jpg,En75_20,Enojo,20,Karen analiza la idea.,Afirmación,En75,75,,,,,,,,,0,60,60,60,,,,,,,,,1,0.356725360189,2,0.40028363528,,,,,2018_may._23_1616,60.0161228121,Experimento Piloto1,001,125,
2.5,Stim\\03_028.jpg,Tr28_18,Tristeza,18,Sofía escucha la música.,Afirmación,Tr28,28,,,,,,,,,0,61,61,61,,,,,,,,,1,0.0562602804403,4,1.86669097231,,,,,2018_may._23_1616,60.0161228121,Experimento Piloto1,001,125,
0.25,Stim\\02_028.jpg,Al28_22,Alegría,22,Enrique corre todas las mañanas.,Afirmación,Al28,28,,,,,,,,,0,62,62,62,,,,,,,,,1,0.917557898457,3,0.300133517426,,,,,2018_may._23_1616,60.0161228121,Experimento Piloto1,001,125,
2.5,Stim\\03_075.jpg,Tr75_29,Tristeza,29,Miriam mira la película.,Afirmación,Tr75,75,,,,,,,,,0,63,63,63,,,,,,,,,1,0.405921979771,4,0.283882054847,,,,,2018_may._23_1616,60.0161228121,Experimento Piloto1,001,125,
2.5,Stim\\05_075.jpg,En75_19,Enojo,19,Armando acompaña a Rodrígo a la tienda.,Afirmación,En75,75,,,,,,,,,0,64,64,64,,,,,,,,,1,0.363573036977,2,0.333583381007,,,,,2018_may._23_1616,60.0161228121,Experimento Piloto1,001,125,
0.25,Stim\\05_078.jpg,En78_27,Enojo,27,Claudia informa los avances en el reporte.,Afirmación,En78,78,,,,,,,,,0,65,65,65,,,,,,,,,1,0.3948635061,2,0.700786199867,,,,,2018_may._23_1616,60.0161228121,Experimento Piloto1,001,125,
0.25,Stim\\02_075.jpg,Al75_29,Alegría,29,Miriam mira la película.,Afirmación,Al75,75,,,,,,,,,0,66,66,66,,,,,,,,,1,0.405515001521,3,0.350057075129,,,,,2018_may._23_1616,60.0161228121,Experimento Piloto1,001,125,
2.5,Stim\\03_075.jpg,Tr75_19,Tristeza,19,Armando acompaña a Rodrígo a la tienda.,Afirmación,Tr75,75,,,,,,,,,0,67,67,67,,,,,,,,,1,0.247371821933,4,0.33370833047,,,,,2018_may._23_1616,60.0161228121,Experimento Piloto1,001,125,
2.5,Stim\\03_028.jpg,Tr28_22,Tristeza,22,Enrique corre todas las mañanas.,Afirmación,Tr28,28,,,,,,,,,0,68,68,68,,,,,,,,,1,0.567752507244,4,0.284247532025,,,,,2018_may._23_1616,60.0161228121,Experimento Piloto1,001,125,
0.25,Stim\\03_078.jpg,Tr78_25,Tristeza,25,Luis decide la comida siguiente.,Afirmación,Tr78,78,,,,,,,,,0,69,69,69,,,,,,,,,1,0.499065110273,4,0.300987190003,,,,,2018_may._23_1616,60.0161228121,Experimento Piloto1,001,125,
2.5,Stim\\02_028.jpg,Al28_19,Alegría,19,Armando acompaña a Rodrígo a la tienda.,Afirmación,Al28,28,,,,,,,,,0,70,70,70,,,,,,,,,1,0.146516632112,3,0.434123965932,,,,,2018_may._23_1616,60.0161228121,Experimento Piloto1,001,125,
0.25,Stim\\02_075.jpg,Al75_25,Alegría,25,Luis decide la comida siguiente.,Afirmación,Al75,75,,,,,,,,,0,71,71,71,,,,,,,,,1,0.449064797899,3,0.251039534903,,,,,2018_may._23_1616,60.0161228121,Experimento Piloto1,001,125,
2.5,Stim\\02_019.jpg,Al19_24,Alegría,24,Guadalupe comenta los resultados con los compañeros.,Afirmación,Al19,19,,,,,,,,,0,72,72,72,,,,,,,,,1,0.338534503455,3,0.234492209847,,,,,2018_may._23_1616,60.0161228121,Experimento Piloto1,001,125,
0.25,Stim\\03_028.jpg,Tr28_23,Tristeza,23,Óscar consigue un nuevo departamento.,Afirmación,Tr28,28,,,,,,,,,0,73,73,73,,,,,,,,,1,0.448089299595,4,0.350838455517,,,,,2018_may._23_1616,60.0161228121,Experimento Piloto1,001,125,
0.25,Stim\\03_028.jpg,Tr28_25,Tristeza,25,Luis decide la comida siguiente.,Afirmación,Tr28,28,,,,,,,,,0,74,74,74,,,,,,,,,1,0.551443924913,4,0.450290641375,,,,,2018_may._23_1616,60.0161228121,Experimento Piloto1,001,125,
0.25,Stim\\05_019.jpg,En19_23,Enojo,23,Óscar consigue un nuevo departamento.,Afirmación,En19,19,,,,,,,,,0,75,75,75,,,,,,,,,1,0.49637869683,2,0.383903653254,,,,,2018_may._23_1616,60.0161228121,Experimento Piloto1,001,125,
2.5,Stim\\03_019.jpg,Tr19_26,Tristeza,26,Víctor trae el café a Marco.,Afirmación,Tr19,19,,,,,,,,,0,76,76,76,,,,,,,,,1,0.520137837107,4,0.333703421741,,,,,2018_may._23_1616,60.0161228121,Experimento Piloto1,001,125,
0.25,Stim\\05_028.jpg,En28_30,Enojo,30,Marisol toma 2 litros de agua cada día.,Afirmación,En28,28,,,,,,,,,0,77,77,77,,,,,,,,,1,0.396369147122,4,0.550548305016,,,,,2018_may._23_1616,60.0161228121,Experimento Piloto1,001,125,
2.5,Stim\\02_019.jpg,Al19_26,Alegría,26,Víctor trae el café a Marco.,Afirmación,Al19,19,,,,,,,,,0,78,78,78,,,,,,,,,1,0.304366626712,3,0.300381185109,,,,,2018_may._23_1616,60.0161228121,Experimento Piloto1,001,125,
0.25,Stim\\03_075.jpg,Tr75_27,Tristeza,27,Claudia informa los avances en el reporte.,Afirmación,Tr75,75,,,,,,,,,0,79,79,79,,,,,,,,,1,0.445574245417,4,0.333710115463,,,,,2018_may._23_1616,60.0161228121,Experimento Piloto1,001,125,
2.5,Stim\\02_078.jpg,Al78_27,Alegría,27,Claudia informa los avances en el reporte.,Afirmación,Al78,78,,,,,,,,,0,80,80,80,,,,,,,,,1,0.534619926048,3,0.233823730224,,,,,2018_may._23_1616,60.0161228121,Experimento Piloto1,001,125,
0.25,Stim\\02_019.jpg,Al19_26,Alegría,26,Víctor trae el café a Marco.,Afirmación,Al19,19,,,,,,,,,0,81,81,81,,,,,,,,,1,0.503903778203,3,0.300257574392,,,,,2018_may._23_1616,60.0161228121,Experimento Piloto1,001,125,
0.25,Stim\\03_019.jpg,Tr19_29,Tristeza,29,Miriam mira la película.,Afirmación,Tr19,19,,,,,,,,,0,82,82,82,,,,,,,,,1,0.456292231803,3,0.750172474884,,,,,2018_may._23_1616,60.0161228121,Experimento Piloto1,001,125,
2.5,Stim\\05_075.jpg,En75_27,Enojo,27,Claudia informa los avances en el reporte.,Afirmación,En75,75,,,,,,,,,0,83,83,83,,,,,,,,,1,0.39264163691,2,0.350482795798,,,,,2018_may._23_1616,60.0161228121,Experimento Piloto1,001,125,
0.25,Stim\\05_019.jpg,En19_25,Enojo,25,Luis decide la comida siguiente.,Afirmación,En19,19,,,,,,,,,0,84,84,84,,,,,,,,,1,0.449850194519,2,0.283979336929,,,,,2018_may._23_1616,60.0161228121,Experimento Piloto1,001,125,
2.5,Stim\\03_028.jpg,Tr28_20,Tristeza,20,Karen analiza la idea.,Afirmación,Tr28,28,,,,,,,,,0,85,85,85,,,,,,,,,1,0.356741871367,4,0.450985003386,,,,,2018_may._23_1616,60.0161228121,Experimento Piloto1,001,125,
2.5,Stim\\05_028.jpg,En28_26,Enojo,26,Víctor trae el café a Marco.,Afirmación,En28,28,,,,,,,,,0,86,86,86,,,,,,,,,1,0.616887990839,2,0.483727563763,,,,,2018_may._23_1616,60.0161228121,Experimento Piloto1,001,125,
0.25,Stim\\05_028.jpg,En28_21,Enojo,21,Mauro anuncia la actividad.,Afirmación,En28,28,,,,,,,,,0,87,87,87,,,,,,,,,1,0.616535008608,2,0.233737604344,,,,,2018_may._23_1616,60.0161228121,Experimento Piloto1,001,125,
0.25,Stim\\03_075.jpg,Tr75_22,Tristeza,22,Enrique corre todas las mañanas.,Afirmación,Tr75,75,,,,,,,,,0,88,88,88,,,,,,,,,1,1.53450925652,2,0.28350274398,,,,,2018_may._23_1616,60.0161228121,Experimento Piloto1,001,125,
0.25,Stim\\05_028.jpg,En28_27,Enojo,27,Claudia informa los avances en el reporte.,Afirmación,En28,28,,,,,,,,,0,89,89,89,,,,,,,,,1,0.39442395174,2,0.284152927432,,,,,2018_may._23_1616,60.0161228121,Experimento Piloto1,001,125,
2.5,Stim\\03_075.jpg,Tr75_22,Tristeza,22,Enrique corre todas las mañanas.,Afirmación,Tr75,75,,,,,,,,,0,90,90,90,,,,,,,,,1,0.267698421977,4,0.384037527679,,,,,2018_may._23_1616,60.0161228121,Experimento Piloto1,001,125,
0.25,Stim\\05_019.jpg,En19_28,Enojo,28,Antonio responde la pregunta.,Afirmación,En19,19,,,,,,,,,0,91,91,91,,,,,,,,,1,0.453419732912,2,0.650693514141,,,,,2018_may._23_1616,60.0161228121,Experimento Piloto1,001,125,
2.5,Stim\\03_019.jpg,Tr19_17,Tristeza,17,Brenda sube el autobús en las mañanas.,Afirmación,Tr19,19,,,,,,,,,0,92,92,92,,,,,,,,,1,0.463914595258,4,0.333665936902,,,,,2018_may._23_1616,60.0161228121,Experimento Piloto1,001,125,
0.25,Stim\\05_028.jpg,En28_29,Enojo,29,Miriam mira la película.,Afirmación,En28,28,,,,,,,,,0,93,93,93,,,,,,,,,1,0.356120247793,2,0.800150921101,,,,,2018_may._23_1616,60.0161228121,Experimento Piloto1,001,125,
0.25,Stim\\05_028.jpg,En28_18,Enojo,18,Sofía escucha la música.,Afirmación,En28,28,,,,,,,,,0,94,94,94,,,,,,,,,1,0.40742360456,2,0.500017849923,,,,,2018_may._23_1616,60.0161228121,Experimento Piloto1,001,125,
0.25,Stim\\05_028.jpg,En28_25,Enojo,25,Luis decide la comida siguiente.,Afirmación,En28,28,,,,,,,,,0,95,95,95,,,,,,,,,1,0.449789951028,2,0.449931857917,,,,,2018_may._23_1616,60.0161228121,Experimento Piloto1,001,125,
2.5,Stim\\03_075.jpg,Tr75_16,Tristeza,16,Valeria modifica algunas imágenes.,Afirmación,Tr75,75,,,,,,,,,0,96,96,96,,,,,,,,,1,0.127843827452,4,0.400135927165,,,,,2018_may._23_1616,60.0161228121,Experimento Piloto1,001,125,
2.5,Stim\\05_019.jpg,En19_18,Enojo,18,Sofía escucha la música.,Afirmación,En19,19,,,,,,,,,0,97,97,97,,,,,,,,,1,0.157628655553,2,0.400137712157,,,,,2018_may._23_1616,60.0161228121,Experimento Piloto1,001,125,
0.25,Stim\\05_075.jpg,En75_28,Enojo,28,Antonio responde la pregunta.,Afirmación,En75,75,,,,,,,,,0,98,98,98,,,,,,,,,1,0.187088615051,2,1.63340943351,,,,,2018_may._23_1616,60.0161228121,Experimento Piloto1,001,125,
0.25,Stim\\03_019.jpg,Tr19_24,Tristeza,24,Guadalupe comenta los resultados con los compañeros.,Afirmación,Tr19,19,,,,,,,,,0,99,99,99,,,,,,,,,1,2.48487531382,2,0.383784505017,,,,,2018_may._23_1616,60.0161228121,Experimento Piloto1,001,125,
0.25,Stim\\02_075.jpg,Al75_21,Alegría,21,Mauro anuncia la actividad.,Afirmación,Al75,75,,,,,,,,,0,100,100,100,,,,,,,,,1,0.553841169598,3,0.250419696319,,,,,2018_may._23_1616,60.0161228121,Experimento Piloto1,001,125,
0.25,Stim\\03_019.jpg,Tr19_23,Tristeza,23,Óscar consigue un nuevo departamento.,Afirmación,Tr19,19,,,,,,,,,0,101,101,101,,,,,,,,,1,0.545619494973,4,0.283975320696,,,,,2018_may._23_1616,60.0161228121,Experimento Piloto1,001,125,
2.5,Stim\\05_028.jpg,En28_30,Enojo,30,Marisol toma 2 litros de agua cada día.,Afirmación,En28,28,,,,,,,,,0,102,102,102,,,,,,,,,1,0.0436698371104,2,0.550455485415,,,,,2018_may._23_1616,60.0161228121,Experimento Piloto1,001,125,
0.25,Stim\\02_078.jpg,Al78_19,Alegría,19,Armando acompaña a Rodrígo a la tienda.,Afirmación,Al78,78,,,,,,,,,0,103,103,103,,,,,,,,,1,0.913517122092,3,0.383667141772,,,,,2018_may._23_1616,60.0161228121,Experimento Piloto1,001,125,
2.5,Stim\\03_075.jpg,Tr75_25,Tristeza,25,Luis decide la comida siguiente.,Afirmación,Tr75,75,,,,,,,,,0,104,104,104,,,,,,,,,1,1.03403087858,4,0.283820026364,,,,,2018_may._23_1616,60.0161228121,Experimento Piloto1,001,125,
2.5,Stim\\03_028.jpg,Tr28_29,Tristeza,29,Miriam mira la película.,Afirmación,Tr28,28,,,,,,,,,0,105,105,105,,,,,,,,,1,1.53859867393,4,0.450817660357,,,,,2018_may._23_1616,60.0161228121,Experimento Piloto1,001,125,
0.25,Stim\\03_028.jpg,Tr28_24,Tristeza,24,Guadalupe comenta los resultados con los compañeros.,Afirmación,Tr28,28,,,,,,,,,0,106,106,106,,,,,,,,,1,0.588756511876,4,0.500380203364,,,,,2018_may._23_1616,60.0161228121,Experimento Piloto1,001,125,
0.25,Stim\\02_075.jpg,Al75_30,Alegría,30,Marisol toma 2 litros de agua cada día.,Afirmación,Al75,75,,,,,,,,,0,107,107,107,,,,,,,,,1,3.31249369675,3,0.300064348973,,,,,2018_may._23_1616,60.0161228121,Experimento Piloto1,001,125,
2.5,Stim\\05_019.jpg,En19_27,Enojo,27,Claudia informa los avances en el reporte.,Afirmación,En19,19,,,,,,,,,0,108,108,108,,,,,,,,,1,0.245501149981,2,0.384000489088,,,,,2018_may._23_1616,60.0161228121,Experimento Piloto1,001,125,
2.5,Stim\\05_075.jpg,En75_18,Enojo,18,Sofía escucha la música.,Afirmación,En75,75,,,,,,,,,0,109,109,109,,,,,,,,,1,0.0571353729247,2,0.450367396044,,,,,2018_may._23_1616,60.0161228121,Experimento Piloto1,001,125,
2.5,Stim\\02_028.jpg,Al28_23,Alegría,23,Óscar consigue un nuevo departamento.,Afirmación,Al28,28,,,,,,,,,0,110,110,110,,,,,,,,,1,0.348818290459,3,0.283799052704,,,,,2018_may._23_1616,60.0161228121,Experimento Piloto1,001,125,
2.5,Stim\\05_078.jpg,En78_29,Enojo,29,Miriam mira la película.,Afirmación,En78,78,,,,,,,,,0,111,111,111,,,,,,,,,1,0.622620493675,2,0.450179525603,,,,,2018_may._23_1616,60.0161228121,Experimento Piloto1,001,125,
0.25,Stim\\03_078.jpg,Tr78_20,Tristeza,20,Karen analiza la idea.,Afirmación,Tr78,78,,,,,,,,,0,112,112,112,,,,,,,,,1,3.89001502071,2,2.28330014735,,,,,2018_may._23_1616,60.0161228121,Experimento Piloto1,001,125,
0.25,Stim\\02_019.jpg,Al19_25,Alegría,25,Luis decide la comida siguiente.,Afirmación,Al19,19,,,,,,,,,0,113,113,113,,,,,,,,,1,0.600126020458,3,0.451049709359,,,,,2018_may._23_1616,60.0161228121,Experimento Piloto1,001,125,
2.5,Stim\\03_078.jpg,Tr78_16,Tristeza,16,Valeria modifica algunas imágenes.,Afirmación,Tr78,78,,,,,,,,,0,114,114,114,,,,,,,,,1,0.399566960863,4,0.450420053317,,,,,2018_may._23_1616,60.0161228121,Experimento Piloto1,001,125,
0.25,Stim\\02_028.jpg,Al28_21,Alegría,21,Mauro anuncia la actividad.,Afirmación,Al28,28,,,,,,,,,0,115,115,115,,,,,,,,,1,0.870893290481,3,0.383596634576,,,,,2018_may._23_1616,60.0161228121,Experimento Piloto1,001,125,
2.5,Stim\\05_019.jpg,En19_30,Enojo,30,Marisol toma 2 litros de agua cada día.,Afirmación,En19,19,,,,,,,,,0,116,116,116,,,,,,,,,1,0.313974794123,2,0.483545048297,,,,,2018_may._23_1616,60.0161228121,Experimento Piloto1,001,125,
0.25,Stim\\05_078.jpg,En78_26,Enojo,26,Víctor trae el café a Marco.,Afirmación,En78,78,,,,,,,,,0,117,117,117,,,,,,,,,1,0.767217366548,3,1.00026060888,,,,,2018_may._23_1616,60.0161228121,Experimento Piloto1,001,125,
0.25,Stim\\02_078.jpg,Al78_21,Alegría,21,Mauro anuncia la actividad.,Afirmación,Al78,78,,,,,,,,,0,118,118,118,,,,,,,,,1,1.06831522607,3,0.350366771297,,,,,2018_may._23_1616,60.0161228121,Experimento Piloto1,001,125,
0.25,Stim\\03_075.jpg,Tr75_30,Tristeza,30,Marisol toma 2 litros de agua cada día.,Afirmación,Tr75,75,,,,,,,,,0,119,119,119,,,,,,,,,1,0.445462683397,4,0.499777768457,,,,,2018_may._23_1616,60.0161228121,Experimento Piloto1,001,125,
2.5,Stim\\03_019.jpg,Tr19_16,Tristeza,16,Valeria modifica algunas imágenes.,Afirmación,Tr19,19,,,,,,,,,,,,,0,0,0,0,,,,,,,,,1,0.799157126627,4,0.500166896782,2018_may._23_1616,60.0161228121,Experimento Piloto1,001,125,
2.5,Stim\\05_078.jpg,En78_19,Enojo,19,Armando acompaña a Rodrígo a la tienda.,Afirmación,En78,78,,,,,,,,,,,,,0,1,1,1,,,,,,,,,1,0.290258047415,2,0.500703733223,2018_may._23_1616,60.0161228121,Experimento Piloto1,001,125,
2.5,Stim\\02_075.jpg,Al75_21,Alegría,21,Mauro anuncia la actividad.,Afirmación,Al75,75,,,,,,,,,,,,,0,2,2,2,,,,,,,,,1,0.770920333115,3,0.499810790814,2018_may._23_1616,60.0161228121,Experimento Piloto1,001,125,
0.25,Stim\\02_075.jpg,Al75_16,Alegría,16,Valeria modifica algunas imágenes.,Afirmación,Al75,75,,,,,,,,,,,,,0,3,3,3,,,,,,,,,1,1.26527841864,3,0.433711186458,2018_may._23_1616,60.0161228121,Experimento Piloto1,001,125,
0.25,Stim\\05_078.jpg,En78_30,Enojo,30,Marisol toma 2 litros de agua cada día.,Afirmación,En78,78,,,,,,,,,,,,,0,4,4,4,,,,,,,,,1,0.913185559769,2,1.5168864736,2018_may._23_1616,60.0161228121,Experimento Piloto1,001,125,
0.25,Stim\\02_019.jpg,Al19_22,Alegría,22,Enrique corre todas las mañanas.,Afirmación,Al19,19,,,,,,,,,,,,,0,5,5,5,,,,,,,,,1,1.38483363425,3,1.05014311176,2018_may._23_1616,60.0161228121,Experimento Piloto1,001,125,
2.5,Stim\\05_028.jpg,En28_23,Enojo,23,Óscar consigue un nuevo departamento.,Afirmación,En28,28,,,,,,,,,,,,,0,6,6,6,,,,,,,,,1,0.0475370229724,2,1.63325280043,2018_may._23_1616,60.0161228121,Experimento Piloto1,001,125,
0.25,Stim\\03_019.jpg,Tr19_16,Tristeza,16,Valeria modifica algunas imágenes.,Afirmación,Tr19,19,,,,,,,,,,,,,0,7,7,7,,,,,,,,,1,1.16600785575,4,0.550431388019,2018_may._23_1616,60.0161228121,Experimento Piloto1,001,125,
0.25,Stim\\02_078.jpg,Al78_17,Alegría,17,Brenda sube el autobús en las mañanas.,Afirmación,Al78,78,,,,,,,,,,,,,0,8,8,8,,,,,,,,,1,0.378931557148,3,0.450445935706,2018_may._23_1616,60.0161228121,Experimento Piloto1,001,125,
0.25,Stim\\02_078.jpg,Al78_16,Alegría,16,Valeria modifica algunas imágenes.,Afirmación,Al78,78,,,,,,,,,,,,,0,9,9,9,,,,,,,,,1,0.398850732694,3,0.400218036812,2018_may._23_1616,60.0161228121,Experimento Piloto1,001,125,
0.25,Stim\\05_075.jpg,En75_22,Enojo,22,Enrique corre todas las mañanas.,Afirmación,En75,75,,,,,,,,,,,,,0,10,10,10,,,,,,,,,1,0.547441972131,2,0.550987413127,2018_may._23_1616,60.0161228121,Experimento Piloto1,001,125,
0.25,Stim\\02_028.jpg,Al28_26,Alegría,26,Víctor trae el café a Marco.,Afirmación,Al28,28,,,,,,,,,,,,,0,11,11,11,,,,,,,,,1,0.503917165646,3,0.434526481699,2018_may._23_1616,60.0161228121,Experimento Piloto1,001,125,
2.5,Stim\\03_075.jpg,Tr75_28,Tristeza,28,Antonio responde la pregunta.,Afirmación,Tr75,75,,,,,,,,,,,,,0,12,12,12,,,,,,,,,1,0.320333829264,4,0.43389861065,2018_may._23_1616,60.0161228121,Experimento Piloto1,001,125,
0.25,Stim\\05_075.jpg,En75_23,Enojo,23,Óscar consigue un nuevo departamento.,Afirmación,En75,75,,,,,,,,,,,,,0,13,13,13,,,,,,,,,1,0.346815529077,2,0.750156409952,2018_may._23_1616,60.0161228121,Experimento Piloto1,001,125,
2.5,Stim\\02_078.jpg,Al78_28,Alegría,28,Antonio responde la pregunta.,Afirmación,Al78,78,,,,,,,,,,,,,0,14,14,14,,,,,,,,,1,0.254055279427,3,0.40025105917,2018_may._23_1616,60.0161228121,Experimento Piloto1,001,125,
2.5,Stim\\02_028.jpg,Al28_18,Alegría,18,Sofía escucha la música.,Afirmación,Al28,28,,,,,,,,,,,,,0,15,15,15,,,,,,,,,1,0.300950151413,3,0.400477753195,2018_may._23_1616,60.0161228121,Experimento Piloto1,001,125,
2.5,Stim\\02_019.jpg,Al19_22,Alegría,22,Enrique corre todas las mañanas.,Afirmación,Al19,19,,,,,,,,,,,,,0,16,16,16,,,,,,,,,1,0.302535224592,3,0.400051586278,2018_may._23_1616,60.0161228121,Experimento Piloto1,001,125,
2.5,Stim\\05_028.jpg,En28_28,Enojo,28,Antonio responde la pregunta.,Afirmación,En28,28,,,,,,,,,,,,,0,17,17,17,,,,,,,,,1,0.299602482211,2,0.700866078274,2018_may._23_1616,60.0161228121,Experimento Piloto1,001,125,
0.25,Stim\\03_078.jpg,Tr78_30,Tristeza,30,Marisol toma 2 litros de agua cada día.,Afirmación,Tr78,78,,,,,,,,,,,,,0,18,18,18,,,,,,,,,1,1.51365206751,4,0.967207906088,2018_may._23_1616,60.0161228121,Experimento Piloto1,001,125,
0.25,Stim\\03_019.jpg,Tr19_20,Tristeza,20,Karen analiza la idea.,Afirmación,Tr19,19,,,,,,,,,,,,,0,19,19,19,,,,,,,,,1,0.508601431742,4,1.366821723,2018_may._23_1616,60.0161228121,Experimento Piloto1,001,125,
0.25,Stim\\05_028.jpg,En28_19,Enojo,19,Armando acompaña a Rodrígo a la tienda.,Afirmación,En28,28,,,,,,,,,,,,,0,20,20,20,,,,,,,,,1,0.593353759596,2,1.58320027703,2018_may._23_1616,60.0161228121,Experimento Piloto1,001,125,
0.25,Stim\\05_019.jpg,En19_26,Enojo,26,Víctor trae el café a Marco.,Afirmación,En19,19,,,,,,,,,,,,,0,21,21,21,,,,,,,,,1,0.454481803342,2,0.700784414875,2018_may._23_1616,60.0161228121,Experimento Piloto1,001,125,
0.25,Stim\\02_028.jpg,Al28_16,Alegría,16,Valeria modifica algunas imágenes.,Afirmación,Al28,28,,,,,,,,,,,,,0,22,22,22,,,,,,,,,1,0.399138562706,4,0.533537774453,2018_may._23_1616,60.0161228121,Experimento Piloto1,001,125,
2.5,Stim\\02_075.jpg,Al75_17,Alegría,17,Brenda sube el autobús en las mañanas.,Afirmación,Al75,75,,,,,,,,,,,,,0,23,23,23,,,,,,,,,1,0.264084705026,4,0.383486857548,2018_may._23_1616,60.0161228121,Experimento Piloto1,001,125,
2.5,Stim\\05_075.jpg,En75_30,Enojo,30,Marisol toma 2 litros de agua cada día.,Afirmación,En75,75,,,,,,,,,,,,,0,24,24,24,,,,,,,,,1,0.296990145949,2,0.350350260118,2018_may._23_1616,60.0161228121,Experimento Piloto1,001,125,
2.5,Stim\\03_075.jpg,Tr75_27,Tristeza,27,Claudia informa los avances en el reporte.,Afirmación,Tr75,75,,,,,,,,,,,,,0,25,25,25,,,,,,,,,1,0.908522713581,4,0.600349590745,2018_may._23_1616,60.0161228121,Experimento Piloto1,001,125,
2.5,Stim\\03_028.jpg,Tr28_24,Tristeza,24,Guadalupe comenta los resultados con los compañeros.,Afirmación,Tr28,28,,,,,,,,,,,,,0,26,26,26,,,,,,,,,1,0.28709593352,4,0.33377794517,2018_may._23_1616,60.0161228121,Experimento Piloto1,001,125,
0.25,Stim\\05_028.jpg,En28_24,Enojo,24,Guadalupe comenta los resultados con los compañeros.,Afirmación,En28,28,,,,,,,,,,,,,0,27,27,27,,,,,,,,,1,0.633733409612,2,1.98334111292,2018_may._23_1616,60.0161228121,Experimento Piloto1,001,125,
0.25,Stim\\03_028.jpg,Tr28_17,Tristeza,17,Brenda sube el autobús en las mañanas.,Afirmación,Tr28,28,,,,,,,,,,,,,0,28,28,28,,,,,,,,,1,0.447500698378,4,0.499826409497,2018_may._23_1616,60.0161228121,Experimento Piloto1,001,125,
0.25,Stim\\02_028.jpg,Al28_28,Alegría,28,Antonio responde la pregunta.,Afirmación,Al28,28,,,,,,,,,,,,,0,29,29,29,,,,,,,,,1,0.336797705928,3,0.350329732706,2018_may._23_1616,60.0161228121,Experimento Piloto1,001,125,
2.5,Stim\\02_028.jpg,Al28_24,Alegría,24,Guadalupe comenta los resultados con los compañeros.,Afirmación,Al28,28,,,,,,,,,,,,,0,30,30,30,,,,,,,,,1,0.287711309622,3,0.350260118006,2018_may._23_1616,60.0161228121,Experimento Piloto1,001,125,
0.25,Stim\\02_078.jpg,Al78_29,Alegría,29,Miriam mira la película.,Afirmación,Al78,78,,,,,,,,,,,,,0,31,31,31,,,,,,,,,1,0.389496480441,3,0.350451558432,2018_may._23_1616,60.0161228121,Experimento Piloto1,001,125,
0.25,Stim\\05_078.jpg,En78_19,Enojo,19,Armando acompaña a Rodrígo a la tienda.,Afirmación,En78,78,,,,,,,,,,,,,0,32,32,32,,,,,,,,,1,0.446895585981,4,1.93312927896,2018_may._23_1616,60.0161228121,Experimento Piloto1,001,125,
0.25,Stim\\03_019.jpg,Tr19_21,Tristeza,21,Mauro anuncia la actividad.,Afirmación,Tr19,19,,,,,,,,,,,,,0,33,33,33,,,,,,,,,1,1.27043392271,4,2.13345628955,2018_may._23_1616,60.0161228121,Experimento Piloto1,001,125,
0.25,Stim\\02_028.jpg,Al28_25,Alegría,25,Luis decide la comida siguiente.,Afirmación,Al28,28,,,,,,,,,,,,,0,34,34,34,,,,,,,,,1,0.199915569863,3,0.750674503973,2018_may._23_1616,60.0161228121,Experimento Piloto1,001,125,
2.5,Stim\\03_078.jpg,Tr78_26,Tristeza,26,Víctor trae el café a Marco.,Afirmación,Tr78,78,,,,,,,,,,,,,0,35,35,35,,,,,,,,,1,0.403557311195,4,0.400452317053,2018_may._23_1616,60.0161228121,Experimento Piloto1,001,125,
2.5,Stim\\05_078.jpg,En78_20,Enojo,20,Karen analiza la idea.,Afirmación,En78,78,,,,,,,,,,,,,0,36,36,36,,,,,,,,,1,2.40758380762,3,0.400470166977,2018_may._23_1616,60.0161228121,Experimento Piloto1,001,125,
2.5,Stim\\02_078.jpg,Al78_23,Alegría,23,Óscar consigue un nuevo departamento.,Afirmación,Al78,78,,,,,,,,,,,,,0,37,37,37,,,,,,,,,1,0.246129913526,3,0.300112097518,2018_may._23_1616,60.0161228121,Experimento Piloto1,001,125,
0.25,Stim\\03_078.jpg,Tr78_21,Tristeza,21,Mauro anuncia la actividad.,Afirmación,Tr78,78,,,,,,,,,,,,,0,38,38,38,,,,,,,,,1,0.603365335271,4,0.900347895004,2018_may._23_1616,60.0161228121,Experimento Piloto1,001,125,
2.5,Stim\\03_075.jpg,Tr75_18,Tristeza,18,Sofía escucha la música.,Afirmación,Tr75,75,,,,,,,,,,,,,0,39,39,39,,,,,,,,,1,0.774355104588,4,1.73371484569,2018_may._23_1616,60.0161228121,Experimento Piloto1,001,125,
2.5,Stim\\03_019.jpg,Tr19_19,Tristeza,19,Armando acompaña a Rodrígo a la tienda.,Afirmación,Tr19,19,,,,,,,,,,,,,0,40,40,40,,,,,,,,,1,1.16321434277,4,0.400230531758,2018_may._23_1616,60.0161228121,Experimento Piloto1,001,125,
0.25,Stim\\03_019.jpg,Tr19_17,Tristeza,17,Brenda sube el autobús en las mañanas.,Afirmación,Tr19,19,,,,,,,,,,,,,0,41,41,41,,,,,,,,,1,0.23073792475,4,0.701314557594,2018_may._23_1616,60.0161228121,Experimento Piloto1,001,125,
2.5,Stim\\05_078.jpg,En78_18,Enojo,18,Sofía escucha la música.,Afirmación,En78,78,,,,,,,,,,,,,0,42,42,42,,,,,,,,,1,0.422460826112,2,0.434109239744,2018_may._23_1616,60.0161228121,Experimento Piloto1,001,125,
0.25,Stim\\05_019.jpg,En19_24,Enojo,24,Guadalupe comenta los resultados con los compañeros.,Afirmación,En19,19,,,,,,,,,,,,,0,43,43,43,,,,,,,,,1,1.4707488846,2,0.450506625445,2018_may._23_1616,60.0161228121,Experimento Piloto1,001,125,
0.25,Stim\\02_075.jpg,Al75_20,Alegría,20,Karen analiza la idea.,Afirmación,Al75,75,,,,,,,,,,,,,0,44,44,44,,,,,,,,,1,0.403596581025,3,0.650147306491,2018_may._23_1616,60.0161228121,Experimento Piloto1,001,125,
0.25,Stim\\03_075.jpg,Tr75_23,Tristeza,23,Óscar consigue un nuevo departamento.,Afirmación,Tr75,75,,,,,,,,,,,,,0,45,45,45,,,,,,,,,1,0.49736669008,4,0.800132178681,2018_may._23_1616,60.0161228121,Experimento Piloto1,001,125,
0.25,Stim\\05_078.jpg,En78_16,Enojo,16,Valeria modifica algunas imágenes.,Afirmación,En78,78,,,,,,,,,,,,,0,46,46,46,,,,,,,,,1,0.249076489598,2,0.533801060821,2018_may._23_1616,60.0161228121,Experimento Piloto1,001,125,
2.5,Stim\\02_019.jpg,Al19_20,Alegría,20,Karen analiza la idea.,Afirmación,Al19,19,,,,,,,,,,,,,0,47,47,47,,,,,,,,,1,0.0582398369233,3,0.450272345203,2018_may._23_1616,60.0161228121,Experimento Piloto1,001,125,
0.25,Stim\\03_075.jpg,Tr75_28,Tristeza,28,Antonio responde la pregunta.,Afirmación,Tr75,75,,,,,,,,,,,,,0,48,48,48,,,,,,,,,1,0.402867857911,4,0.500090142112,2018_may._23_1616,60.0161228121,Experimento Piloto1,001,125,
0.25,Stim\\05_078.jpg,En78_25,Enojo,25,Luis decide la comida siguiente.,Afirmación,En78,78,,,,,,,,,,,,,0,49,49,49,,,,,,,,,1,0.497156507235,3,0.383444910228,2018_may._23_1616,60.0161228121,Experimento Piloto1,001,125,
2.5,Stim\\03_019.jpg,Tr19_23,Tristeza,23,Óscar consigue un nuevo departamento.,Afirmación,Tr19,19,,,,,,,,,,,,,0,50,50,50,,,,,,,,,1,0.664734263731,4,2.64982957786,2018_may._23_1616,60.0161228121,Experimento Piloto1,001,125,
2.5,Stim\\03_075.jpg,Tr75_24,Tristeza,24,Guadalupe comenta los resultados con los compañeros.,Afirmación,Tr75,75,,,,,,,,,,,,,0,51,51,51,,,,,,,,,1,0.431147044989,4,0.300563700574,2018_may._23_1616,60.0161228121,Experimento Piloto1,001,125,
0.25,Stim\\02_078.jpg,Al78_20,Alegría,20,Karen analiza la idea.,Afirmación,Al78,78,,,,,,,,,,,,,0,52,52,52,,,,,,,,,1,0.407131758316,3,0.284223880877,2018_may._23_1616,60.0161228121,Experimento Piloto1,001,125,
2.5,Stim\\02_078.jpg,Al78_30,Alegría,30,Marisol toma 2 litros de agua cada día.,Afirmación,Al78,78,,,,,,,,,,,,,0,53,53,53,,,,,,,,,1,0.713904554676,3,0.600212592585,2018_may._23_1616,60.0161228121,Experimento Piloto1,001,125,
2.5,Stim\\03_028.jpg,Tr28_27,Tristeza,27,Claudia informa los avances en el reporte.,Afirmación,Tr28,28,,,,,,,,,,,,,0,54,54,54,,,,,,,,,1,0.861704150018,4,0.450374536013,2018_may._23_1616,60.0161228121,Experimento Piloto1,001,125,
2.5,Stim\\02_075.jpg,Al75_28,Alegría,28,Antonio responde la pregunta.,Afirmación,Al75,75,,,,,,,,,,,,,0,55,55,55,,,,,,,,,1,0.803323298702,3,0.500695700757,2018_may._23_1616,60.0161228121,Experimento Piloto1,001,125,
2.5,Stim\\03_078.jpg,Tr78_28,Tristeza,28,Antonio responde la pregunta.,Afirmación,Tr78,78,,,,,,,,,,,,,0,56,56,56,,,,,,,,,1,0.26734677849,4,0.300426702414,2018_may._23_1616,60.0161228121,Experimento Piloto1,001,125,
0.25,Stim\\03_028.jpg,Tr28_19,Tristeza,19,Armando acompaña a Rodrígo a la tienda.,Afirmación,Tr28,28,,,,,,,,,,,,,0,57,57,57,,,,,,,,,1,3.62632390649,4,2.43315248386,2018_may._23_1616,60.0161228121,Experimento Piloto1,001,125,
2.5,Stim\\05_078.jpg,En78_21,Enojo,21,Mauro anuncia la actividad.,Afirmación,En78,78,,,,,,,,,,,,,0,58,58,58,,,,,,,,,1,0.570299691286,2,0.600269266091,2018_may._23_1616,60.0161228121,Experimento Piloto1,001,125,
0.25,Stim\\05_028.jpg,En28_17,Enojo,17,Brenda sube el autobús en las mañanas.,Afirmación,En28,28,,,,,,,,,,,,,0,59,59,59,,,,,,,,,1,0.697955202048,4,0.650212458711,2018_may._23_1616,60.0161228121,Experimento Piloto1,001,125,
0.25,Stim\\03_075.jpg,Tr75_20,Tristeza,20,Karen analiza la idea.,Afirmación,Tr75,75,,,,,,,,,,,,,0,60,60,60,,,,,,,,,1,0.607627450683,4,0.400336292553,2018_may._23_1616,60.0161228121,Experimento Piloto1,001,125,
2.5,Stim\\03_078.jpg,Tr78_21,Tristeza,21,Mauro anuncia la actividad.,Afirmación,Tr78,78,,,,,,,,,,,,,0,61,61,61,,,,,,,,,1,1.1709246171,4,0.500317728633,2018_may._23_1616,60.0161228121,Experimento Piloto1,001,125,
0.25,Stim\\05_075.jpg,En75_17,Enojo,17,Brenda sube el autobús en las mañanas.,Afirmación,En75,75,,,,,,,,,,,,,0,62,62,62,,,,,,,,,1,8.86029445233,3,1.31669467617,2018_may._23_1616,60.0161228121,Experimento Piloto1,001,125,
0.25,Stim\\03_019.jpg,Tr19_26,Tristeza,26,Víctor trae el café a Marco.,Afirmación,Tr19,19,,,,,,,,,,,,,0,63,63,63,,,,,,,,,1,2.65354637812,4,0.400082377395,2018_may._23_1616,60.0161228121,Experimento Piloto1,001,125,
0.25,Stim\\05_019.jpg,En19_30,Enojo,30,Marisol toma 2 litros de agua cada día.,Afirmación,En19,19,,,,,,,,,,,,,0,64,64,64,,,,,,,,,1,0.444762520159,2,5.09948208448,2018_may._23_1616,60.0161228121,Experimento Piloto1,001,125,
0.25,Stim\\02_019.jpg,Al19_27,Alegría,27,Claudia informa los avances en el reporte.,Afirmación,Al19,19,,,,,,,,,,,,,0,65,65,65,,,,,,,,,1,0.495329121346,3,0.350854520449,2018_may._23_1616,60.0161228121,Experimento Piloto1,001,125,
0.25,Stim\\05_028.jpg,En28_23,Enojo,23,Óscar consigue un nuevo departamento.,Afirmación,En28,28,,,,,,,,,,,,,0,66,66,66,,,,,,,,,1,2.34630769876,2,3.21611437517,2018_may._23_1616,60.0161228121,Experimento Piloto1,001,125,
0.25,Stim\\05_019.jpg,En19_18,Enojo,18,Sofía escucha la música.,Afirmación,En19,19,,,,,,,,,,,,,0,67,67,67,,,,,,,,,1,3.6213129868,3,0.600676690588,2018_may._23_1616,60.0161228121,Experimento Piloto1,001,125,
0.25,Stim\\05_075.jpg,En75_25,Enojo,25,Luis decide la comida siguiente.,Afirmación,En75,75,,,,,,,,,,,,,0,68,68,68,,,,,,,,,1,0.350979023663,2,2.45028305516,2018_may._23_1616,60.0161228121,Experimento Piloto1,001,125,
0.25,Stim\\03_078.jpg,Tr78_16,Tristeza,16,Valeria modifica algunas imágenes.,Afirmación,Tr78,78,,,,,,,,,,,,,0,69,69,69,,,,,,,,,1,0.550678609456,4,0.450296888847,2018_may._23_1616,60.0161228121,Experimento Piloto1,001,125,
0.25,Stim\\05_019.jpg,En19_27,Enojo,27,Claudia informa los avances en el reporte.,Afirmación,En19,19,,,,,,,,,,,,,0,70,70,70,,,,,,,,,1,0.744740743253,2,0.450534292826,2018_may._23_1616,60.0161228121,Experimento Piloto1,001,125,
0.25,Stim\\05_075.jpg,En75_30,Enojo,30,Marisol toma 2 litros de agua cada día.,Afirmación,En75,75,,,,,,,,,,,,,0,71,71,71,,,,,,,,,1,1.06353992537,2,1.00015663308,2018_may._23_1616,60.0161228121,Experimento Piloto1,001,125,
2.5,Stim\\02_028.jpg,Al28_16,Alegría,16,Valeria modifica algunas imágenes.,Afirmación,Al28,28,,,,,,,,,,,,,0,72,72,72,,,,,,,,,1,0.866466509528,3,0.576461931022,2018_may._23_1616,60.0161228121,Experimento Piloto1,001,125,
0.25,Stim\\05_075.jpg,En75_29,Enojo,29,Miriam mira la película.,Afirmación,En75,75,,,,,,,,,,,,,0,73,73,73,,,,,,,,,1,0.539201108837,2,0.450324556229,2018_may._23_1616,60.0161228121,Experimento Piloto1,001,125,
2.5,Stim\\02_028.jpg,Al28_28,Alegría,28,Antonio responde la pregunta.,Afirmación,Al28,28,,,,,,,,,,,,,0,74,74,74,,,,,,,,,1,0.719669633621,3,0.283591547348,2018_may._23_1616,60.0161228121,Experimento Piloto1,001,125,
2.5,Stim\\03_019.jpg,Tr19_28,Tristeza,28,Antonio responde la pregunta.,Afirmación,Tr19,19,,,,,,,,,,,,,0,75,75,75,,,,,,,,,1,0.483876164373,4,2.13333446383,2018_may._23_1616,60.0161228121,Experimento Piloto1,001,125,
0.25,Stim\\02_028.jpg,Tr28_30,Tristeza,30,Marisol toma 2 litros de agua cada día.,Afirmación,Tr28,28,,,,,,,,,,,,,0,76,76,76,,,,,,,,,1,0.496924904481,3,0.383899190773,2018_may._23_1616,60.0161228121,Experimento Piloto1,001,125,
2.5,Stim\\02_075.jpg,Al75_27,Alegría,27,Claudia informa los avances en el reporte.,Afirmación,Al75,75,,,,,,,,,,,,,0,77,77,77,,,,,,,,,1,0.31114692004,3,0.283901689762,2018_may._23_1616,60.0161228121,Experimento Piloto1,001,125,
2.5,Stim\\02_075.jpg,Al75_20,Alegría,20,Karen analiza la idea.,Afirmación,Al75,75,,,,,,,,,,,,,0,78,78,78,,,,,,,,,1,0.307289551636,3,0.350815250617,2018_may._23_1616,60.0161228121,Experimento Piloto1,001,125,
2.5,Stim\\05_019.jpg,En19_28,Enojo,28,Antonio responde la pregunta.,Afirmación,En19,19,,,,,,,,,,,,,0,79,79,79,,,,,,,,,1,0.402650088848,2,0.966439020646,2018_may._23_1616,60.0161228121,Experimento Piloto1,001,125,
2.5,Stim\\02_078.jpg,Al78_21,Alegría,21,Mauro anuncia la actividad.,Afirmación,Al78,78,,,,,,,,,,,,,0,80,80,80,,,,,,,,,1,0.704170545307,3,0.700977640294,2018_may._23_1616,60.0161228121,Experimento Piloto1,001,125,
2.5,Stim\\03_078.jpg,Tr78_19,Tristeza,19,Armando acompaña a Rodrígo a la tienda.,Afirmación,Tr78,78,,,,,,,,,,,,,0,81,81,81,,,,,,,,,1,1.22899621849,4,0.450586057604,2018_may._23_1616,60.0161228121,Experimento Piloto1,001,125,
2.5,Stim\\05_075.jpg,En75_22,Enojo,22,Enrique corre todas las mañanas.,Afirmación,En75,75,,,,,,,,,,,,,0,82,82,82,,,,,,,,,1,0.501346776705,2,0.399942701746,2018_may._23_1616,60.0161228121,Experimento Piloto1,001,125,
0.25,Stim\\03_019.jpg,Tr19_19,Tristeza,19,Armando acompaña a Rodrígo a la tienda.,Afirmación,Tr19,19,,,,,,,,,,,,,0,83,83,83,,,,,,,,,1,0.645911519716,4,0.401098930522,2018_may._23_1616,60.0161228121,Experimento Piloto1,001,125,
2.5,Stim\\03_019.jpg,Tr19_27,Tristeza,27,Claudia informa los avances en el reporte.,Afirmación,Tr19,19,,,,,,,,,,,,,0,84,84,84,,,,,,,,,1,0.544941644139,4,0.301028244826,2018_may._23_1616,60.0161228121,Experimento Piloto1,001,125,
0.25,Stim\\05_078.jpg,En78_18,Enojo,18,Sofía escucha la música.,Afirmación,En78,78,,,,,,,,,,,,,0,85,85,85,,,,,,,,,1,0.606832682853,2,1.66674907381,2018_may._23_1616,60.0161228121,Experimento Piloto1,001,125,
2.5,Stim\\05_019.jpg,En19_25,Enojo,25,Luis decide la comida siguiente.,Afirmación,En19,19,,,,,,,,,,,,,0,86,86,86,,,,,,,,,1,0.46722620226,2,0.484563832664,2018_may._23_1616,60.0161228121,Experimento Piloto1,001,125,
0.25,Stim\\05_028.jpg,En28_16,Enojo,16,Valeria modifica algunas imágenes.,Afirmación,En28,28,,,,,,,,,,,,,0,87,87,87,,,,,,,,,1,0.399981971578,2,0.40069730725,2018_may._23_1616,60.0161228121,Experimento Piloto1,001,125,
2.5,Stim\\02_028.jpg,Al28_22,Alegría,22,Enrique corre todas las mañanas.,Afirmación,Al28,28,,,,,,,,,,,,,0,88,88,88,,,,,,,,,1,0.251695965828,3,0.349991030414,2018_may._23_1616,60.0161228121,Experimento Piloto1,001,125,
0.25,Stim\\03_078.jpg,Tr78_17,Tristeza,17,Brenda sube el autobús en las mañanas.,Afirmación,Tr78,78,,,,,,,,,,,,,0,89,89,89,,,,,,,,,1,0.697383558258,4,0.75036123782,2018_may._23_1616,60.0161228121,Experimento Piloto1,001,125,
2.5,Stim\\02_028.jpg,Al28_25,Alegría,25,Luis decide la comida siguiente.,Afirmación,Al28,28,,,,,,,,,,,,,0,90,90,90,,,,,,,,,1,0.462115322999,3,0.800183497211,2018_may._23_1616,60.0161228121,Experimento Piloto1,001,125,
0.25,Stim\\03_028.jpg,Tr28_18,Tristeza,18,Sofía escucha la música.,Afirmación,Tr28,28,,,,,,,,,,,,,0,91,91,91,,,,,,,,,1,0.456070892756,4,0.383719799045,2018_may._23_1616,60.0161228121,Experimento Piloto1,001,125,
2.5,Stim\\03_075.jpg,Tr75_26,Tristeza,26,Víctor trae el café a Marco.,Afirmación,Tr75,75,,,,,,,,,,,,,0,92,92,92,,,,,,,,,1,0.320639955446,4,0.283768707835,2018_may._23_1616,60.0161228121,Experimento Piloto1,001,125,
0.25,Stim\\02_019.jpg,Al19_19,Alegría,19,Armando acompaña a Rodrígo a la tienda.,Afirmación,Al19,19,,,,,,,,,,,,,0,93,93,93,,,,,,,,,1,0.596958997833,3,0.450254941528,2018_may._23_1616,60.0161228121,Experimento Piloto1,001,125,
0.25,Stim\\02_028.jpg,Al28_24,Alegría,24,Guadalupe comenta los resultados con los compañeros.,Afirmación,Al28,28,,,,,,,,,,,,,0,94,94,94,,,,,,,,,1,0.43839634505,3,0.500412333226,2018_may._23_1616,60.0161228121,Experimento Piloto1,001,125,
0.25,Stim\\05_078.jpg,En78_20,Enojo,20,Karen analiza la idea.,Afirmación,En78,78,,,,,,,,,,,,,0,95,95,95,,,,,,,,,1,0.357702643485,4,1.36663474505,2018_may._23_1616,60.0161228121,Experimento Piloto1,001,125,
2.5,Stim\\02_019.jpg,Al19_17,Alegría,17,Brenda sube el autobús en las mañanas.,Afirmación,Al19,19,,,,,,,,,,,,,0,96,96,96,,,,,,,,,1,0.964047130937,3,0.233753669275,2018_may._23_1616,60.0161228121,Experimento Piloto1,001,125,
0.25,Stim\\03_019.jpg,Tr19_18,Tristeza,18,Sofía escucha la música.,Afirmación,Tr19,19,,,,,,,,,,,,,0,97,97,97,,,,,,,,,1,0.454857097977,4,1.26664349152,2018_may._23_1616,60.0161228121,Experimento Piloto1,001,125,
0.25,Stim\\02_075.jpg,Al75_26,Alegría,26,Víctor trae el café a Marco.,Afirmación,Al75,75,,,,,,,,,,,,,0,98,98,98,,,,,,,,,1,0.40006051124,3,0.34994551311,2018_may._23_1616,60.0161228121,Experimento Piloto1,001,125,
2.5,Stim\\02_075.jpg,Al75_18,Alegría,18,Sofía escucha la música.,Afirmación,Al75,75,,,,,,,,,,,,,0,99,99,99,,,,,,,,,1,0.457228014026,3,0.283952115796,2018_may._23_1616,60.0161228121,Experimento Piloto1,001,125,
2.5,Stim\\05_019.jpg,En19_24,Enojo,24,Guadalupe comenta los resultados con los compañeros.,Afirmación,En19,19,,,,,,,,,,,,,0,100,100,100,,,,,,,,,1,0.35365026467,2,0.333506180089,2018_may._23_1616,60.0161228121,Experimento Piloto1,001,125,
2.5,Stim\\03_019.jpg,Tr19_30,Tristeza,30,Marisol toma 2 litros de agua cada día.,Afirmación,Tr19,19,,,,,,,,,,,,,0,101,101,101,,,,,,,,,1,0.397083144049,4,0.250350081618,2018_may._23_1616,60.0161228121,Experimento Piloto1,001,125,
2.5,Stim\\05_075.jpg,En75_17,Enojo,17,Brenda sube el autobús en las mañanas.,Afirmación,En75,75,,,,,,,,,,,,,0,102,102,102,,,,,,,,,1,0.348448797049,2,0.800842159377,2018_may._23_1616,60.0161228121,Experimento Piloto1,001,125,
0.25,Stim\\02_019.jpg,Al19_29,Alegría,29,Miriam mira la película.,Afirmación,Al19,19,,,,,,,,,,,,,0,103,103,103,,,,,,,,,1,0.455326104709,3,0.350770625809,2018_may._23_1616,60.0161228121,Experimento Piloto1,001,125,
0.25,Stim\\05_078.jpg,En78_22,Enojo,22,Enrique corre todas las mañanas.,Afirmación,En78,78,,,,,,,,,,,,,0,104,104,104,,,,,,,,,1,0.452429508422,2,1.71686541069,2018_may._23_1616,60.0161228121,Experimento Piloto1,001,125,
0.25,Stim\\03_028.jpg,Tr28_21,Tristeza,21,Mauro anuncia la actividad.,Afirmación,Tr28,28,,,,,,,,,,,,,0,105,105,105,,,,,,,,,1,0.350529205599,4,0.300346824008,2018_may._23_1616,60.0161228121,Experimento Piloto1,001,125,
2.5,Stim\\05_028.jpg,En28_19,Enojo,19,Armando acompaña a Rodrígo a la tienda.,Afirmación,En28,28,,,,,,,,,,,,,0,106,106,106,,,,,,,,,1,0.334135389883,2,0.850187825818,2018_may._23_1616,60.0161228121,Experimento Piloto1,001,125,
2.5,Stim\\03_019.jpg,Tr19_29,Tristeza,29,Miriam mira la película.,Afirmación,Tr19,19,,,,,,,,,,,,,0,107,107,107,,,,,,,,,1,0.305981598514,4,0.250836492026,2018_may._23_1616,60.0161228121,Experimento Piloto1,001,125,
2.5,Stim\\05_078.jpg,En78_17,Enojo,17,Brenda sube el autobús en las mañanas.,Afirmación,En78,78,,,,,,,,,,,,,0,108,108,108,,,,,,,,,1,0.247083991921,2,0.33384309739,2018_may._23_1616,60.0161228121,Experimento Piloto1,001,125,
2.5,Stim\\02_028.jpg,Al28_21,Alegría,21,Mauro anuncia la actividad.,Afirmación,Al28,28,,,,,,,,,,,,,0,109,109,109,,,,,,,,,1,0.617302555305,3,0.55017077914,2018_may._23_1616,60.0161228121,Experimento Piloto1,001,125,
0.25,Stim\\02_075.jpg,Al75_27,Alegría,27,Claudia informa los avances en el reporte.,Afirmación,Al75,75,,,,,,,,,,,,,0,110,110,110,,,,,,,,,1,0.644135452357,3,0.300307107929,2018_may._23_1616,60.0161228121,Experimento Piloto1,001,125,
0.25,Stim\\02_019.jpg,Al19_28,Alegría,28,Antonio responde la pregunta.,Afirmación,Al19,19,,,,,,,,,,,,,0,111,111,111,,,,,,,,,1,0.502415987105,3,0.283803068937,2018_may._23_1616,60.0161228121,Experimento Piloto1,001,125,
2.5,Stim\\05_019.jpg,En19_20,Enojo,20,Karen analiza la idea.,Afirmación,En19,19,,,,,,,,,,,,,0,112,112,112,,,,,,,,,1,0.256708670511,2,0.400559416594,2018_may._23_1616,60.0161228121,Experimento Piloto1,001,125,
2.5,Stim\\03_078.jpg,Tr78_22,Tristeza,22,Enrique corre todas las mañanas.,Afirmación,Tr78,78,,,,,,,,,,,,,0,113,113,113,,,,,,,,,1,0.0991697108229,4,1.26659663547,2018_may._23_1616,60.0161228121,Experimento Piloto1,001,125,
2.5,Stim\\05_028.jpg,En28_18,Enojo,18,Sofía escucha la música.,Afirmación,En28,28,,,,,,,,,,,,,0,114,114,114,,,,,,,,,1,0.971062597004,3,1.31739216192,2018_may._23_1616,60.0161228121,Experimento Piloto1,001,125,
0.25,Stim\\03_075.jpg,Tr75_29,Tristeza,29,Miriam mira la película.,Afirmación,Tr75,75,,,,,,,,,,,,,0,115,115,115,,,,,,,,,1,0.139953661599,4,0.500389574574,2018_may._23_1616,60.0161228121,Experimento Piloto1,001,125,
0.25,Stim\\03_078.jpg,Tr78_24,Tristeza,24,Guadalupe comenta los resultados con los compañeros.,Afirmación,Tr78,78,,,,,,,,,,,,,0,116,116,116,,,,,,,,,1,0.437284294834,4,0.400429558402,2018_may._23_1616,60.0161228121,Experimento Piloto1,001,125,
2.5,Stim\\05_075.jpg,En75_23,Enojo,23,Óscar consigue un nuevo departamento.,Afirmación,En75,75,,,,,,,,,,,,,0,117,117,117,,,,,,,,,1,0.446911650913,2,0.400575035276,2018_may._23_1616,60.0161228121,Experimento Piloto1,001,125,
2.5,Stim\\03_019.jpg,Tr19_21,Tristeza,21,Mauro anuncia la actividad.,Afirmación,Tr19,19,,,,,,,,,,,,,0,118,118,118,,,,,,,,,1,0.253556820322,4,0.283850817482,2018_may._23_1616,60.0161228121,Experimento Piloto1,001,125,
0.25,Stim\\03_078.jpg,Tr78_29,Tristeza,29,Miriam mira la película.,Afirmación,Tr78,78,,,,,,,,,,,,,0,119,119,119,,,,,,,,,1,0.405459220512,4,0.300956398884,2018_may._23_1616,60.0161228121,Experimento Piloto1,001,125,
