Tiempo,ImagenesE,ClaveEn,Emocion,NumEn,Enunciado,ActoHabla,Clave,Cara,trials.thisRepN,trials.thisTrialN,trials.thisN,trials.thisIndex,Bloque3.thisRepN,Bloque3.thisTrialN,Bloque3.thisN,Bloque3.thisIndex,Bloque1.thisRepN,Bloque1.thisTrialN,Bloque1.thisN,Bloque1.thisIndex,Bloque2.thisRepN,Bloque2.thisTrialN,Bloque2.thisN,Bloque2.thisIndex,Sig_B3.keys,Sig_B3.rt,Resp_Bloque3.keys,Resp_Bloque3.rt,Sig_B1.keys,Sig_B1.rt,Resp_Bloque1.keys,Resp_Bloque1.rt,Sig_B2.keys,Sig_B2.rt,Resp_Bloque2.keys,Resp_Bloque2.rt,date,frameRate,expName,session,participant,
2.5,Stim\\03_019.jpg,Tr19_16,Tristeza,16,Valeria modifica algunas imágenes.,Afirmación,Tr19,19,,,,,0,0,0,0,,,,,,,,,1,4.49924584075,3,1.31676875335,,,,,,,,,2018_may._25_1416,60.0063195383,Experimento Piloto1,001,126,
2.5,Stim\\05_078.jpg,En78_19,Enojo,19,Armando acompaña a Rodrígo a la tienda.,Afirmación,En78,78,,,,,0,1,1,1,,,,,,,,,1,2.69639110253,3,0.766850104377,,,,,,,,,2018_may._25_1416,60.0063195383,Experimento Piloto1,001,126,
2.5,Stim\\02_075.jpg,Al75_21,Alegría,21,Mauro anuncia la actividad.,Afirmación,Al75,75,,,,,0,2,2,2,,,,,,,,,1,3.27270978792,3,0.450288856382,,,,,,,,,2018_may._25_1416,60.0063195383,Experimento Piloto1,001,126,
0.25,Stim\\02_075.jpg,Al75_16,Alegría,16,Valeria modifica algunas imágenes.,Afirmación,Al75,75,,,,,0,3,3,3,,,,,,,,,1,2.13496907055,3,0.966808067808,,,,,,,,,2018_may._25_1416,60.0063195383,Experimento Piloto1,001,126,
0.25,Stim\\05_078.jpg,En78_30,Enojo,30,Marisol toma 2 litros de agua cada día.,Afirmación,En78,78,,,,,0,4,4,4,,,,,,,,,1,3.06473497773,3,0.383714890317,,,,,,,,,2018_may._25_1416,60.0063195383,Experimento Piloto1,001,126,
0.25,Stim\\02_019.jpg,Al19_22,Alegría,22,Enrique corre todas las mañanas.,Afirmación,Al19,19,,,,,0,5,5,5,,,,,,,,,1,2.30257315568,3,0.500299432461,,,,,,,,,2018_may._25_1416,60.0063195383,Experimento Piloto1,001,126,
2.5,Stim\\05_028.jpg,En28_23,Enojo,23,Óscar consigue un nuevo departamento.,Afirmación,En28,28,,,,,0,6,6,6,,,,,,,,,1,3.21454759816,3,0.766911686612,,,,,,,,,2018_may._25_1416,60.0063195383,Experimento Piloto1,001,126,
0.25,Stim\\03_019.jpg,Tr19_16,Tristeza,16,Valeria modifica algunas imágenes.,Afirmación,Tr19,19,,,,,0,7,7,7,,,,,,,,,1,5.83399928422,2,3.14947882687,,,,,,,,,2018_may._25_1416,60.0063195383,Experimento Piloto1,001,126,
0.25,Stim\\02_078.jpg,Al78_17,Alegría,17,Brenda sube el autobús en las mañanas.,Afirmación,Al78,78,,,,,0,8,8,8,,,,,,,,,1,1.94751408582,3,0.800269176842,,,,,,,,,2018_may._25_1416,60.0063195383,Experimento Piloto1,001,126,
0.25,Stim\\02_078.jpg,Al78_16,Alegría,16,Valeria modifica algunas imágenes.,Afirmación,Al78,78,,,,,0,9,9,9,,,,,,,,,1,1.9850542593,3,0.75033580168,,,,,,,,,2018_may._25_1416,60.0063195383,Experimento Piloto1,001,126,
0.25,Stim\\05_075.jpg,En75_22,Enojo,22,Enrique corre todas las mañanas.,Afirmación,En75,75,,,,,0,10,10,10,,,,,,,,,1,1.38714966179,3,0.850149002234,,,,,,,,,2018_may._25_1416,60.0063195383,Experimento Piloto1,001,126,
0.25,Stim\\02_028.jpg,Al28_26,Alegría,26,Víctor trae el café a Marco.,Afirmación,Al28,28,,,,,0,11,11,11,,,,,,,,,1,2.87179203412,2,1.76664215277,,,,,,,,,2018_may._25_1416,60.0063195383,Experimento Piloto1,001,126,
2.5,Stim\\03_075.jpg,Tr75_28,Tristeza,28,Antonio responde la pregunta.,Afirmación,Tr75,75,,,,,0,12,12,12,,,,,,,,,1,2.67166003393,3,0.500263286367,,,,,,,,,2018_may._25_1416,60.0063195383,Experimento Piloto1,001,126,
0.25,Stim\\05_075.jpg,En75_23,Enojo,23,Óscar consigue un nuevo departamento.,Afirmación,En75,75,,,,,0,13,13,13,,,,,,,,,1,2.4000462313,2,2.08312173737,,,,,,,,,2018_may._25_1416,60.0063195383,Experimento Piloto1,001,126,
2.5,Stim\\02_078.jpg,Al78_28,Alegría,28,Antonio responde la pregunta.,Afirmación,Al78,78,,,,,0,14,14,14,,,,,,,,,1,2.07749722657,3,0.483731133746,,,,,,,,,2018_may._25_1416,60.0063195383,Experimento Piloto1,001,126,
2.5,Stim\\02_028.jpg,Al28_18,Alegría,18,Sofía escucha la música.,Afirmación,Al28,28,,,,,0,15,15,15,,,,,,,,,1,1.85722694303,3,0.65012677908,,,,,,,,,2018_may._25_1416,60.0063195383,Experimento Piloto1,001,126,
2.5,Stim\\02_019.jpg,Al19_22,Alegría,22,Enrique corre todas las mañanas.,Afirmación,Al19,19,,,,,0,16,16,16,,,,,,,,,1,2.81968186082,3,0.383662233043,,,,,,,,,2018_may._25_1416,60.0063195383,Experimento Piloto1,001,126,
2.5,Stim\\05_028.jpg,En28_28,Enojo,28,Antonio responde la pregunta.,Afirmación,En28,28,,,,,0,17,17,17,,,,,,,,,1,2.57117389127,2,0.35012668983,,,,,,,,,2018_may._25_1416,60.0063195383,Experimento Piloto1,001,126,
0.25,Stim\\03_078.jpg,Tr78_30,Tristeza,30,Marisol toma 2 litros de agua cada día.,Afirmación,Tr78,78,,,,,0,18,18,18,,,,,,,,,1,1.88154210842,3,0.283653575831,,,,,,,,,2018_may._25_1416,60.0063195383,Experimento Piloto1,001,126,
0.25,Stim\\03_019.jpg,Tr19_20,Tristeza,20,Karen analiza la idea.,Afirmación,Tr19,19,,,,,0,19,19,19,,,,,,,,,1,3.22472294688,3,0.350401132399,,,,,,,,,2018_may._25_1416,60.0063195383,Experimento Piloto1,001,126,
0.25,Stim\\05_028.jpg,En28_19,Enojo,19,Armando acompaña a Rodrígo a la tienda.,Afirmación,En28,28,,,,,0,20,20,20,,,,,,,,,1,3.06352519918,2,1.10010772429,,,,,,,,,2018_may._25_1416,60.0063195383,Experimento Piloto1,001,126,
0.25,Stim\\05_019.jpg,En19_26,Enojo,26,Víctor trae el café a Marco.,Afirmación,En19,19,,,,,0,21,21,21,,,,,,,,,1,2.05514376774,2,1.0002200003,,,,,,,,,2018_may._25_1416,60.0063195383,Experimento Piloto1,001,126,
0.25,Stim\\02_028.jpg,Al28_16,Alegría,16,Valeria modifica algunas imágenes.,Afirmación,Al28,28,,,,,0,22,22,22,,,,,,,,,1,1.7356305887,2,1.26677558095,,,,,,,,,2018_may._25_1416,60.0063195383,Experimento Piloto1,001,126,
2.5,Stim\\02_075.jpg,Al75_17,Alegría,17,Brenda sube el autobús en las mañanas.,Afirmación,Al75,75,,,,,0,23,23,23,,,,,,,,,1,2.29956187364,3,0.500152616843,,,,,,,,,2018_may._25_1416,60.0063195383,Experimento Piloto1,001,126,
2.5,Stim\\05_075.jpg,En75_30,Enojo,30,Marisol toma 2 litros de agua cada día.,Afirmación,En75,75,,,,,0,24,24,24,,,,,,,,,1,1.38184689585,3,0.850313221527,,,,,,,,,2018_may._25_1416,60.0063195383,Experimento Piloto1,001,126,
2.5,Stim\\03_075.jpg,Tr75_27,Tristeza,27,Claudia informa los avances en el reporte.,Afirmación,Tr75,75,,,,,0,25,25,25,,,,,,,,,1,2.29466385471,3,0.350186933321,,,,,,,,,2018_may._25_1416,60.0063195383,Experimento Piloto1,001,126,
2.5,Stim\\03_028.jpg,Tr28_24,Tristeza,24,Guadalupe comenta los resultados con los compañeros.,Afirmación,Tr28,28,,,,,0,26,26,26,,,,,,,,,1,4.14066899727,2,0.900328706336,,,,,,,,,2018_may._25_1416,60.0063195383,Experimento Piloto1,001,126,
0.25,Stim\\05_028.jpg,En28_24,Enojo,24,Guadalupe comenta los resultados con los compañeros.,Afirmación,En28,28,,,,,0,27,27,27,,,,,,,,,1,2.61637168181,4,1.11675902514,,,,,,,,,2018_may._25_1416,60.0063195383,Experimento Piloto1,001,126,
0.25,Stim\\03_028.jpg,Tr28_17,Tristeza,17,Brenda sube el autobús en las mañanas.,Afirmación,Tr28,28,,,,,0,28,28,28,,,,,,,,,1,2.14893752795,4,2.33301976968,,,,,,,,,2018_may._25_1416,60.0063195383,Experimento Piloto1,001,126,
0.25,Stim\\02_028.jpg,Al28_28,Alegría,28,Antonio responde la pregunta.,Afirmación,Al28,28,,,,,0,29,29,29,,,,,,,,,1,4.30423542978,4,2.99950957336,,,,,,,,,2018_may._25_1416,60.0063195383,Experimento Piloto1,001,126,
2.5,Stim\\02_028.jpg,Al28_24,Alegría,24,Guadalupe comenta los resultados con los compañeros.,Afirmación,Al28,28,,,,,0,30,30,30,,,,,,,,,1,3.12428321402,2,1.21666995403,,,,,,,,,2018_may._25_1416,60.0063195383,Experimento Piloto1,001,126,
0.25,Stim\\02_078.jpg,Al78_29,Alegría,29,Miriam mira la película.,Afirmación,Al78,78,,,,,0,31,31,31,,,,,,,,,1,2.70749152352,3,1.11675010018,,,,,,,,,2018_may._25_1416,60.0063195383,Experimento Piloto1,001,126,
0.25,Stim\\05_078.jpg,En78_19,Enojo,19,Armando acompaña a Rodrígo a la tienda.,Afirmación,En78,78,,,,,0,32,32,32,,,,,,,,,1,3.3142474517,2,1.21684711452,,,,,,,,,2018_may._25_1416,60.0063195383,Experimento Piloto1,001,126,
0.25,Stim\\03_019.jpg,Tr19_21,Tristeza,21,Mauro anuncia la actividad.,Afirmación,Tr19,19,,,,,0,33,33,33,,,,,,,,,1,2.13909820403,3,0.916874692647,,,,,,,,,2018_may._25_1416,60.0063195383,Experimento Piloto1,001,126,
0.25,Stim\\02_028.jpg,Al28_25,Alegría,25,Luis decide la comida siguiente.,Afirmación,Al28,28,,,,,0,34,34,34,,,,,,,,,1,3.78199040924,2,1.36669231106,,,,,,,,,2018_may._25_1416,60.0063195383,Experimento Piloto1,001,126,
2.5,Stim\\03_078.jpg,Tr78_26,Tristeza,26,Víctor trae el café a Marco.,Afirmación,Tr78,78,,,,,0,35,35,35,,,,,,,,,1,2.55571630403,2,0.350362755064,,,,,,,,,2018_may._25_1416,60.0063195383,Experimento Piloto1,001,126,
2.5,Stim\\05_078.jpg,En78_20,Enojo,20,Karen analiza la idea.,Afirmación,En78,78,,,,,0,36,36,36,,,,,,,,,1,3.07528383609,3,0.35036141632,,,,,,,,,2018_may._25_1416,60.0063195383,Experimento Piloto1,001,126,
2.5,Stim\\02_078.jpg,Al78_23,Alegría,23,Óscar consigue un nuevo departamento.,Afirmación,Al78,78,,,,,0,37,37,37,,,,,,,,,1,3.68210357775,3,0.450238876597,,,,,,,,,2018_may._25_1416,60.0063195383,Experimento Piloto1,001,126,
0.25,Stim\\03_078.jpg,Tr78_21,Tristeza,21,Mauro anuncia la actividad.,Afirmación,Tr78,78,,,,,0,38,38,38,,,,,,,,,1,2.50670398491,3,0.483768172337,,,,,,,,,2018_may._25_1416,60.0063195383,Experimento Piloto1,001,126,
2.5,Stim\\03_075.jpg,Tr75_18,Tristeza,18,Sofía escucha la música.,Afirmación,Tr75,75,,,,,0,39,39,39,,,,,,,,,1,3.55765525194,4,0.434025345106,,,,,,,,,2018_may._25_1416,60.0063195383,Experimento Piloto1,001,126,
2.5,Stim\\03_019.jpg,Tr19_19,Tristeza,19,Armando acompaña a Rodrígo a la tienda.,Afirmación,Tr19,19,,,,,0,40,40,40,,,,,,,,,1,5.8969657808,3,0.499904949159,,,,,,,,,2018_may._25_1416,60.0063195383,Experimento Piloto1,001,126,
0.25,Stim\\03_019.jpg,Tr19_17,Tristeza,17,Brenda sube el autobús en las mañanas.,Afirmación,Tr19,19,,,,,0,41,41,41,,,,,,,,,1,1.93271337575,3,0.383767547591,,,,,,,,,2018_may._25_1416,60.0063195383,Experimento Piloto1,001,126,
2.5,Stim\\05_078.jpg,En78_18,Enojo,18,Sofía escucha la música.,Afirmación,En78,78,,,,,0,42,42,42,,,,,,,,,1,1.75647394402,3,0.333785977636,,,,,,,,,2018_may._25_1416,60.0063195383,Experimento Piloto1,001,126,
0.25,Stim\\05_019.jpg,En19_24,Enojo,24,Guadalupe comenta los resultados con los compañeros.,Afirmación,En19,19,,,,,0,43,43,43,,,,,,,,,1,5.72326728564,3,0.850248961803,,,,,,,,,2018_may._25_1416,60.0063195383,Experimento Piloto1,001,126,
0.25,Stim\\02_075.jpg,Al75_20,Alegría,20,Karen analiza la idea.,Afirmación,Al75,75,,,,,0,44,44,44,,,,,,,,,1,1.79311626637,3,0.350276182937,,,,,,,,,2018_may._25_1416,60.0063195383,Experimento Piloto1,001,126,
0.25,Stim\\03_075.jpg,Tr75_23,Tristeza,23,Óscar consigue un nuevo departamento.,Afirmación,Tr75,75,,,,,0,45,45,45,,,,,,,,,1,2.19989504245,3,0.384072335029,,,,,,,,,2018_may._25_1416,60.0063195383,Experimento Piloto1,001,126,
0.25,Stim\\05_078.jpg,En78_16,Enojo,16,Valeria modifica algunas imágenes.,Afirmación,En78,78,,,,,0,46,46,46,,,,,,,,,1,2.96803971251,2,0.450294657608,,,,,,,,,2018_may._25_1416,60.0063195383,Experimento Piloto1,001,126,
2.5,Stim\\02_019.jpg,Al19_20,Alegría,20,Karen analiza la idea.,Afirmación,Al19,19,,,,,0,47,47,47,,,,,,,,,1,1.99215674375,3,0.250511177176,,,,,,,,,2018_may._25_1416,60.0063195383,Experimento Piloto1,001,126,
0.25,Stim\\03_075.jpg,Tr75_28,Tristeza,28,Antonio responde la pregunta.,Afirmación,Tr75,75,,,,,0,48,48,48,,,,,,,,,1,3.37038769141,3,0.233796062842,,,,,,,,,2018_may._25_1416,60.0063195383,Experimento Piloto1,001,126,
0.25,Stim\\05_078.jpg,En78_25,Enojo,25,Luis decide la comida siguiente.,Afirmación,En78,78,,,,,0,49,49,49,,,,,,,,,1,1.53373903234,3,1.06675335779,,,,,,,,,2018_may._25_1416,60.0063195383,Experimento Piloto1,001,126,
2.5,Stim\\03_019.jpg,Tr19_23,Tristeza,23,Óscar consigue un nuevo departamento.,Afirmación,Tr19,19,,,,,0,50,50,50,,,,,,,,,1,2.19970226328,3,0.383698379138,,,,,,,,,2018_may._25_1416,60.0063195383,Experimento Piloto1,001,126,
2.5,Stim\\03_075.jpg,Tr75_24,Tristeza,24,Guadalupe comenta los resultados con los compañeros.,Afirmación,Tr75,75,,,,,0,51,51,51,,,,,,,,,1,3.22375369605,4,0.500332008572,,,,,,,,,2018_may._25_1416,60.0063195383,Experimento Piloto1,001,126,
0.25,Stim\\02_078.jpg,Al78_20,Alegría,20,Karen analiza la idea.,Afirmación,Al78,78,,,,,0,52,52,52,,,,,,,,,1,1.32663440591,3,0.450358471082,,,,,,,,,2018_may._25_1416,60.0063195383,Experimento Piloto1,001,126,
2.5,Stim\\02_078.jpg,Al78_30,Alegría,30,Marisol toma 2 litros de agua cada día.,Afirmación,Al78,78,,,,,0,53,53,53,,,,,,,,,1,1.5822319187,3,0.383774687559,,,,,,,,,2018_may._25_1416,60.0063195383,Experimento Piloto1,001,126,
2.5,Stim\\03_028.jpg,Tr28_27,Tristeza,27,Claudia informa los avances en el reporte.,Afirmación,Tr28,28,,,,,0,54,54,54,,,,,,,,,1,2.4131329025,2,0.533762683486,,,,,,,,,2018_may._25_1416,60.0063195383,Experimento Piloto1,001,126,
2.5,Stim\\02_075.jpg,Al75_28,Alegría,28,Antonio responde la pregunta.,Afirmación,Al75,75,,,,,0,55,55,55,,,,,,,,,1,2.57124127473,3,0.400315765141,,,,,,,,,2018_may._25_1416,60.0063195383,Experimento Piloto1,001,126,
2.5,Stim\\03_078.jpg,Tr78_28,Tristeza,28,Antonio responde la pregunta.,Afirmación,Tr78,78,,,,,0,56,56,56,,,,,,,,,1,2.76635833899,2,0.45037765975,,,,,,,,,2018_may._25_1416,60.0063195383,Experimento Piloto1,001,126,
0.25,Stim\\03_028.jpg,Tr28_19,Tristeza,19,Armando acompaña a Rodrígo a la tienda.,Afirmación,Tr28,28,,,,,0,57,57,57,,,,,,,,,1,3.58105114628,3,0.500026328637,,,,,,,,,2018_may._25_1416,60.0063195383,Experimento Piloto1,001,126,
2.5,Stim\\05_078.jpg,En78_21,Enojo,21,Mauro anuncia la actividad.,Afirmación,En78,78,,,,,0,58,58,58,,,,,,,,,1,1.59062763007,2,0.533837653164,,,,,,,,,2018_may._25_1416,60.0063195383,Experimento Piloto1,001,126,
0.25,Stim\\05_028.jpg,En28_17,Enojo,17,Brenda sube el autobús en las mañanas.,Afirmación,En28,28,,,,,0,59,59,59,,,,,,,,,1,1.68310406595,2,0.500077647166,,,,,,,,,2018_may._25_1416,60.0063195383,Experimento Piloto1,001,126,
0.25,Stim\\03_075.jpg,Tr75_20,Tristeza,20,Karen analiza la idea.,Afirmación,Tr75,75,,,,,0,60,60,60,,,,,,,,,1,2.04239713759,3,0.450397294665,,,,,,,,,2018_may._25_1416,60.0063195383,Experimento Piloto1,001,126,
2.5,Stim\\03_078.jpg,Tr78_21,Tristeza,21,Mauro anuncia la actividad.,Afirmación,Tr78,78,,,,,0,61,61,61,,,,,,,,,1,1.3399196575,3,1.31637516255,,,,,,,,,2018_may._25_1416,60.0063195383,Experimento Piloto1,001,126,
0.25,Stim\\05_075.jpg,En75_17,Enojo,17,Brenda sube el autobús en las mañanas.,Afirmación,En75,75,,,,,0,62,62,62,,,,,,,,,1,1.26322835496,2,0.450446381954,,,,,,,,,2018_may._25_1416,60.0063195383,Experimento Piloto1,001,126,
0.25,Stim\\03_019.jpg,Tr19_26,Tristeza,26,Víctor trae el café a Marco.,Afirmación,Tr19,19,,,,,0,63,63,63,,,,,,,,,1,1.5223476576,3,0.45028930263,,,,,,,,,2018_may._25_1416,60.0063195383,Experimento Piloto1,001,126,
0.25,Stim\\05_019.jpg,En19_30,Enojo,30,Marisol toma 2 litros de agua cada día.,Afirmación,En19,19,,,,,0,64,64,64,,,,,,,,,1,1.06571047603,3,0.283706679352,,,,,,,,,2018_may._25_1416,60.0063195383,Experimento Piloto1,001,126,
0.25,Stim\\02_019.jpg,Al19_27,Alegría,27,Claudia informa los avances en el reporte.,Afirmación,Al19,19,,,,,0,65,65,65,,,,,,,,,1,2.61303999365,2,0.433601409431,,,,,,,,,2018_may._25_1416,60.0063195383,Experimento Piloto1,001,126,
0.25,Stim\\05_028.jpg,En28_23,Enojo,23,Óscar consigue un nuevo departamento.,Afirmación,En28,28,,,,,0,66,66,66,,,,,,,,,1,1.33322549005,2,0.483650362844,,,,,,,,,2018_may._25_1416,60.0063195383,Experimento Piloto1,001,126,
0.25,Stim\\05_019.jpg,En19_18,Enojo,18,Sofía escucha la música.,Afirmación,En19,19,,,,,0,67,67,67,,,,,,,,,1,2.72422582652,3,0.500014726187,,,,,,,,,2018_may._25_1416,60.0063195383,Experimento Piloto1,001,126,
0.25,Stim\\05_075.jpg,En75_25,Enojo,25,Luis decide la comida siguiente.,Afirmación,En75,75,,,,,0,68,68,68,,,,,,,,,1,1.46819634559,2,0.450395955922,,,,,,,,,2018_may._25_1416,60.0063195383,Experimento Piloto1,001,126,
0.25,Stim\\03_078.jpg,Tr78_16,Tristeza,16,Valeria modifica algunas imágenes.,Afirmación,Tr78,78,,,,,0,69,69,69,,,,,,,,,1,1.88484300546,2,0.400159132065,,,,,,,,,2018_may._25_1416,60.0063195383,Experimento Piloto1,001,126,
0.25,Stim\\05_019.jpg,En19_27,Enojo,27,Claudia informa los avances en el reporte.,Afirmación,En19,19,,,,,0,70,70,70,,,,,,,,,1,1.41430698119,2,0.550219866429,,,,,,,,,2018_may._25_1416,60.0063195383,Experimento Piloto1,001,126,
0.25,Stim\\05_075.jpg,En75_30,Enojo,30,Marisol toma 2 litros de agua cada día.,Afirmación,En75,75,,,,,0,71,71,71,,,,,,,,,1,1.06575242335,3,0.600267034852,,,,,,,,,2018_may._25_1416,60.0063195383,Experimento Piloto1,001,126,
2.5,Stim\\02_028.jpg,Al28_16,Alegría,16,Valeria modifica algunas imágenes.,Afirmación,Al28,28,,,,,0,72,72,72,,,,,,,,,1,1.68470877404,2,1.00017760674,,,,,,,,,2018_may._25_1416,60.0063195383,Experimento Piloto1,001,126,
0.25,Stim\\05_075.jpg,En75_29,Enojo,29,Miriam mira la película.,Afirmación,En75,75,,,,,0,73,73,73,,,,,,,,,1,1.79115768354,2,0.400403229764,,,,,,,,,2018_may._25_1416,60.0063195383,Experimento Piloto1,001,126,
2.5,Stim\\02_028.jpg,Al28_28,Alegría,28,Antonio responde la pregunta.,Afirmación,Al28,28,,,,,0,74,74,74,,,,,,,,,1,2.35563428363,3,0.816514838195,,,,,,,,,2018_may._25_1416,60.0063195383,Experimento Piloto1,001,126,
2.5,Stim\\03_019.jpg,Tr19_28,Tristeza,28,Antonio responde la pregunta.,Afirmación,Tr19,19,,,,,0,75,75,75,,,,,,,,,1,1.6498420728,3,0.850290909123,,,,,,,,,2018_may._25_1416,60.0063195383,Experimento Piloto1,001,126,
0.25,Stim\\02_028.jpg,Tr28_30,Tristeza,30,Marisol toma 2 litros de agua cada día.,Afirmación,Tr28,28,,,,,0,76,76,76,,,,,,,,,1,1.58236490063,3,0.383449818957,,,,,,,,,2018_may._25_1416,60.0063195383,Experimento Piloto1,001,126,
2.5,Stim\\02_075.jpg,Al75_27,Alegría,27,Claudia informa los avances en el reporte.,Afirmación,Al75,75,,,,,0,77,77,77,,,,,,,,,1,1.63097738147,3,0.400092194854,,,,,,,,,2018_may._25_1416,60.0063195383,Experimento Piloto1,001,126,
2.5,Stim\\02_075.jpg,Al75_20,Alegría,20,Karen analiza la idea.,Afirmación,Al75,75,,,,,0,78,78,78,,,,,,,,,1,1.39292857442,3,0.55034749338,,,,,,,,,2018_may._25_1416,60.0063195383,Experimento Piloto1,001,126,
2.5,Stim\\05_019.jpg,En19_28,Enojo,28,Antonio responde la pregunta.,Afirmación,En19,19,,,,,0,79,79,79,,,,,,,,,1,1.43829013801,2,0.483599936812,,,,,,,,,2018_may._25_1416,60.0063195383,Experimento Piloto1,001,126,
2.5,Stim\\02_078.jpg,Al78_21,Alegría,21,Mauro anuncia la actividad.,Afirmación,Al78,78,,,,,0,80,80,80,,,,,,,,,1,1.58866235353,3,0.350266365479,,,,,,,,,2018_may._25_1416,60.0063195383,Experimento Piloto1,001,126,
2.5,Stim\\03_078.jpg,Tr78_19,Tristeza,19,Armando acompaña a Rodrígo a la tienda.,Afirmación,Tr78,78,,,,,0,81,81,81,,,,,,,,,1,1.73212798752,4,0.400406799749,,,,,,,,,2018_may._25_1416,60.0063195383,Experimento Piloto1,001,126,
2.5,Stim\\05_075.jpg,En75_22,Enojo,22,Enrique corre todas las mañanas.,Afirmación,En75,75,,,,,0,82,82,82,,,,,,,,,1,2.402731306,2,0.400283189032,,,,,,,,,2018_may._25_1416,60.0063195383,Experimento Piloto1,001,126,
0.25,Stim\\03_019.jpg,Tr19_19,Tristeza,19,Armando acompaña a Rodrígo a la tienda.,Afirmación,Tr19,19,,,,,0,83,83,83,,,,,,,,,1,3.01490022339,3,0.233706366978,,,,,,,,,2018_may._25_1416,60.0063195383,Experimento Piloto1,001,126,
2.5,Stim\\03_019.jpg,Tr19_27,Tristeza,27,Claudia informa los avances en el reporte.,Afirmación,Tr19,19,,,,,0,84,84,84,,,,,,,,,1,1.62981535147,3,0.35038238998,,,,,,,,,2018_may._25_1416,60.0063195383,Experimento Piloto1,001,126,
0.25,Stim\\05_078.jpg,En78_18,Enojo,18,Sofía escucha la música.,Afirmación,En78,78,,,,,0,85,85,85,,,,,,,,,1,1.74157059689,3,0.750203712249,,,,,,,,,2018_may._25_1416,60.0063195383,Experimento Piloto1,001,126,
2.5,Stim\\05_019.jpg,En19_25,Enojo,25,Luis decide la comida siguiente.,Afirmación,En19,19,,,,,0,86,86,86,,,,,,,,,1,1.26970475334,2,1.11689245332,,,,,,,,,2018_may._25_1416,60.0063195383,Experimento Piloto1,001,126,
0.25,Stim\\05_028.jpg,En28_16,Enojo,16,Valeria modifica algunas imágenes.,Afirmación,En28,28,,,,,0,87,87,87,,,,,,,,,1,1.41787161086,2,0.500535051448,,,,,,,,,2018_may._25_1416,60.0063195383,Experimento Piloto1,001,126,
2.5,Stim\\02_028.jpg,Al28_22,Alegría,22,Enrique corre todas las mañanas.,Afirmación,Al28,28,,,,,0,88,88,88,,,,,,,,,1,1.28663005052,3,1.61691967445,,,,,,,,,2018_may._25_1416,60.0063195383,Experimento Piloto1,001,126,
0.25,Stim\\03_078.jpg,Tr78_17,Tristeza,17,Brenda sube el autobús en las mañanas.,Afirmación,Tr78,78,,,,,0,89,89,89,,,,,,,,,1,2.30011477501,3,0.550260475005,,,,,,,,,2018_may._25_1416,60.0063195383,Experimento Piloto1,001,126,
2.5,Stim\\02_028.jpg,Al28_25,Alegría,25,Luis decide la comida siguiente.,Afirmación,Al28,28,,,,,0,90,90,90,,,,,,,,,1,1.06950938594,2,0.500263732615,,,,,,,,,2018_may._25_1416,60.0063195383,Experimento Piloto1,001,126,
0.25,Stim\\03_028.jpg,Tr28_18,Tristeza,18,Sofía escucha la música.,Afirmación,Tr28,28,,,,,0,91,91,91,,,,,,,,,1,2.50775445289,3,0.450311615034,,,,,,,,,2018_may._25_1416,60.0063195383,Experimento Piloto1,001,126,
2.5,Stim\\03_075.jpg,Tr75_26,Tristeza,26,Víctor trae el café a Marco.,Afirmación,Tr75,75,,,,,0,92,92,92,,,,,,,,,1,1.5389083701,3,0.483668212767,,,,,,,,,2018_may._25_1416,60.0063195383,Experimento Piloto1,001,126,
0.25,Stim\\02_019.jpg,Al19_19,Alegría,19,Armando acompaña a Rodrígo a la tienda.,Afirmación,Al19,19,,,,,0,93,93,93,,,,,,,,,1,2.14614981619,3,0.450339728663,,,,,,,,,2018_may._25_1416,60.0063195383,Experimento Piloto1,001,126,
0.25,Stim\\02_028.jpg,Al28_24,Alegría,24,Guadalupe comenta los resultados con los compañeros.,Afirmación,Al28,28,,,,,0,94,94,94,,,,,,,,,1,2.54104857589,3,0.450051006156,,,,,,,,,2018_may._25_1416,60.0063195383,Experimento Piloto1,001,126,
0.25,Stim\\05_078.jpg,En78_20,Enojo,20,Karen analiza la idea.,Afirmación,En78,78,,,,,0,95,95,95,,,,,,,,,1,2.19256988022,2,0.450373643518,,,,,,,,,2018_may._25_1416,60.0063195383,Experimento Piloto1,001,126,
2.5,Stim\\02_019.jpg,Al19_17,Alegría,17,Brenda sube el autobús en las mañanas.,Afirmación,Al19,19,,,,,0,96,96,96,,,,,,,,,1,3.11527569653,3,0.450381675983,,,,,,,,,2018_may._25_1416,60.0063195383,Experimento Piloto1,001,126,
0.25,Stim\\03_019.jpg,Tr19_18,Tristeza,18,Sofía escucha la música.,Afirmación,Tr19,19,,,,,0,97,97,97,,,,,,,,,1,1.12499854969,3,0.233829531448,,,,,,,,,2018_may._25_1416,60.0063195383,Experimento Piloto1,001,126,
0.25,Stim\\02_075.jpg,Al75_26,Alegría,26,Víctor trae el café a Marco.,Afirmación,Al75,75,,,,,0,98,98,98,,,,,,,,,1,1.33982326791,3,0.23360596116,,,,,,,,,2018_may._25_1416,60.0063195383,Experimento Piloto1,001,126,
2.5,Stim\\02_075.jpg,Al75_18,Alegría,18,Sofía escucha la música.,Afirmación,Al75,75,,,,,0,99,99,99,,,,,,,,,1,1.17549776742,3,0.500442231847,,,,,,,,,2018_may._25_1416,60.0063195383,Experimento Piloto1,001,126,
2.5,Stim\\05_019.jpg,En19_24,Enojo,24,Guadalupe comenta los resultados con los compañeros.,Afirmación,En19,19,,,,,0,100,100,100,,,,,,,,,1,1.17497744216,2,0.433729482628,,,,,,,,,2018_may._25_1416,60.0063195383,Experimento Piloto1,001,126,
2.5,Stim\\03_019.jpg,Tr19_30,Tristeza,30,Marisol toma 2 litros de agua cada día.,Afirmación,Tr19,19,,,,,0,101,101,101,,,,,,,,,1,1.64802852061,3,0.900165379539,,,,,,,,,2018_may._25_1416,60.0063195383,Experimento Piloto1,001,126,
2.5,Stim\\05_075.jpg,En75_17,Enojo,17,Brenda sube el autobús en las mañanas.,Afirmación,En75,75,,,,,0,102,102,102,,,,,,,,,1,2.39771458508,3,0.450309383794,,,,,,,,,2018_may._25_1416,60.0063195383,Experimento Piloto1,001,126,
0.25,Stim\\02_019.jpg,Al19_29,Alegría,29,Miriam mira la película.,Afirmación,Al19,19,,,,,0,103,103,103,,,,,,,,,1,2.1815564776,3,0.250293408112,,,,,,,,,2018_may._25_1416,60.0063195383,Experimento Piloto1,001,126,
0.25,Stim\\05_078.jpg,En78_22,Enojo,22,Enrique corre todas las mañanas.,Afirmación,En78,78,,,,,0,104,104,104,,,,,,,,,1,2.45361786706,2,1.26669213256,,,,,,,,,2018_may._25_1416,60.0063195383,Experimento Piloto1,001,126,
0.25,Stim\\03_028.jpg,Tr28_21,Tristeza,21,Mauro anuncia la actividad.,Afirmación,Tr28,28,,,,,0,105,105,105,,,,,,,,,1,3.02289743523,3,0.483767279841,,,,,,,,,2018_may._25_1416,60.0063195383,Experimento Piloto1,001,126,
2.5,Stim\\05_028.jpg,En28_19,Enojo,19,Armando acompaña a Rodrígo a la tienda.,Afirmación,En28,28,,,,,0,106,106,106,,,,,,,,,1,1.74336094419,2,0.383787628753,,,,,,,,,2018_may._25_1416,60.0063195383,Experimento Piloto1,001,126,
2.5,Stim\\03_019.jpg,Tr19_29,Tristeza,29,Miriam mira la película.,Afirmación,Tr19,19,,,,,0,107,107,107,,,,,,,,,1,2.57429673534,3,0.700487213654,,,,,,,,,2018_may._25_1416,60.0063195383,Experimento Piloto1,001,126,
2.5,Stim\\05_078.jpg,En78_17,Enojo,17,Brenda sube el autobús en las mañanas.,Afirmación,En78,78,,,,,0,108,108,108,,,,,,,,,1,1.78270351367,2,0.400395643548,,,,,,,,,2018_may._25_1416,60.0063195383,Experimento Piloto1,001,126,
2.5,Stim\\02_028.jpg,Al28_21,Alegría,21,Mauro anuncia la actividad.,Afirmación,Al28,28,,,,,0,109,109,109,,,,,,,,,1,2.306739774,3,1.11672600279,,,,,,,,,2018_may._25_1416,60.0063195383,Experimento Piloto1,001,126,
0.25,Stim\\02_075.jpg,Al75_27,Alegría,27,Claudia informa los avances en el reporte.,Afirmación,Al75,75,,,,,0,110,110,110,,,,,,,,,1,2.08046700754,3,0.400291221497,,,,,,,,,2018_may._25_1416,60.0063195383,Experimento Piloto1,001,126,
0.25,Stim\\02_019.jpg,Al19_28,Alegría,28,Antonio responde la pregunta.,Afirmación,Al19,19,,,,,0,111,111,111,,,,,,,,,1,1.27182309298,3,0.350354722599,,,,,,,,,2018_may._25_1416,60.0063195383,Experimento Piloto1,001,126,
2.5,Stim\\05_019.jpg,En19_20,Enojo,20,Karen analiza la idea.,Afirmación,En19,19,,,,,0,112,112,112,,,,,,,,,1,1.79217646791,3,0.500381988356,,,,,,,,,2018_may._25_1416,60.0063195383,Experimento Piloto1,001,126,
2.5,Stim\\03_078.jpg,Tr78_22,Tristeza,22,Enrique corre todas las mañanas.,Afirmación,Tr78,78,,,,,0,113,113,113,,,,,,,,,1,3.58636506842,3,0.383766208846,,,,,,,,,2018_may._25_1416,60.0063195383,Experimento Piloto1,001,126,
2.5,Stim\\05_028.jpg,En28_18,Enojo,18,Sofía escucha la música.,Afirmación,En28,28,,,,,0,114,114,114,,,,,,,,,1,1.65576824731,2,0.333658796932,,,,,,,,,2018_may._25_1416,60.0063195383,Experimento Piloto1,001,126,
0.25,Stim\\03_075.jpg,Tr75_29,Tristeza,29,Miriam mira la película.,Afirmación,Tr75,75,,,,,0,115,115,115,,,,,,,,,1,1.7396521764,3,0.133715559689,,,,,,,,,2018_may._25_1416,60.0063195383,Experimento Piloto1,001,126,
0.25,Stim\\03_078.jpg,Tr78_24,Tristeza,24,Guadalupe comenta los resultados con los compañeros.,Afirmación,Tr78,78,,,,,0,116,116,116,,,,,,,,,1,1.47509355591,4,0.333671738127,,,,,,,,,2018_may._25_1416,60.0063195383,Experimento Piloto1,001,126,
2.5,Stim\\05_075.jpg,En75_23,Enojo,23,Óscar consigue un nuevo departamento.,Afirmación,En75,75,,,,,0,117,117,117,,,,,,,,,1,1.38325837853,2,0.500281582538,,,,,,,,,2018_may._25_1416,60.0063195383,Experimento Piloto1,001,126,
2.5,Stim\\03_019.jpg,Tr19_21,Tristeza,21,Mauro anuncia la actividad.,Afirmación,Tr19,19,,,,,0,118,118,118,,,,,,,,,1,1.73979319079,3,0.650282519659,,,,,,,,,2018_may._25_1416,60.0063195383,Experimento Piloto1,001,126,
0.25,Stim\\03_078.jpg,Tr78_29,Tristeza,29,Miriam mira la película.,Afirmación,Tr78,78,,,,,0,119,119,119,,,,,,,,,1,1.17268372703,4,0.866578071548,,,,,,,,,2018_may._25_1416,60.0063195383,Experimento Piloto1,001,126,
2.5,Stim\\05_028.jpg,En28_16,Enojo,16,Valeria modifica algunas imágenes.,Afirmación,En28,28,,,,,,,,,0,0,0,0,,,,,,,,,1,3.46847882062,2,0.383745681434,,,,,2018_may._25_1416,60.0063195383,Experimento Piloto1,001,126,
2.5,Stim\\05_028.jpg,En28_29,Enojo,29,Miriam mira la película.,Afirmación,En28,28,,,,,,,,,0,1,1,1,,,,,,,,,1,1.14145394764,2,0.433681734084,,,,,2018_may._25_1416,60.0063195383,Experimento Piloto1,001,126,
0.25,Stim\\03_028.jpg,Tr28_29,Tristeza,29,Miriam mira la película.,Afirmación,Tr28,28,,,,,,,,,0,2,2,2,,,,,,,,,1,1.79994520074,3,0.250294746857,,,,,2018_may._25_1416,60.0063195383,Experimento Piloto1,001,126,
2.5,Stim\\02_075.jpg,Al75_22,Alegría,22,Enrique corre todas las mañanas.,Afirmación,Al75,75,,,,,,,,,0,3,3,3,,,,,,,,,1,1.7367109553,3,0.300290150501,,,,,2018_may._25_1416,60.0063195383,Experimento Piloto1,001,126,
2.5,Stim\\05_019.jpg,En19_17,Enojo,17,Brenda sube el autobús en las mañanas.,Afirmación,En19,19,,,,,,,,,0,4,4,4,,,,,,,,,1,2.39977669746,2,1.06648159271,,,,,2018_may._25_1416,60.0063195383,Experimento Piloto1,001,126,
2.5,Stim\\02_028.jpg,Al28_17,Alegría,17,Brenda sube el autobús en las mañanas.,Afirmación,Al28,28,,,,,,,,,0,5,5,5,,,,,,,,,1,1.53337132392,3,0.350177562111,,,,,2018_may._25_1416,60.0063195383,Experimento Piloto1,001,126,
0.25,Stim\\05_075.jpg,En75_24,Enojo,24,Guadalupe comenta los resultados con los compañeros.,Afirmación,En75,75,,,,,,,,,0,6,6,6,,,,,,,,,1,1.92358447878,2,0.916884956352,,,,,2018_may._25_1416,60.0063195383,Experimento Piloto1,001,126,
2.5,Stim\\03_078.jpg,Tr78_23,Tristeza,23,Óscar consigue un nuevo departamento.,Afirmación,Tr78,78,,,,,,,,,0,7,7,7,,,,,,,,,1,1.733875495,3,1.06656325611,,,,,2018_may._25_1416,60.0063195383,Experimento Piloto1,001,126,
0.25,Stim\\05_075.jpg,En75_16,Enojo,16,Valeria modifica algunas imágenes.,Afirmación,En75,75,,,,,,,,,0,8,8,8,,,,,,,,,1,2.50185460702,2,0.383665803028,,,,,2018_may._25_1416,60.0063195383,Experimento Piloto1,001,126,
0.25,Stim\\02_078.jpg,Al78_23,Alegría,23,Óscar consigue un nuevo departamento.,Afirmación,Al78,78,,,,,,,,,0,9,9,9,,,,,,,,,1,3.43123183212,3,0.2836375109,,,,,2018_may._25_1416,60.0063195383,Experimento Piloto1,001,126,
2.5,Stim\\05_078.jpg,En78_24,Enojo,24,Guadalupe comenta los resultados con los compañeros.,Afirmación,En78,78,,,,,,,,,0,10,10,10,,,,,,,,,1,1.52399832925,2,0.350455574665,,,,,2018_may._25_1416,60.0063195383,Experimento Piloto1,001,126,
2.5,Stim\\03_028.jpg,Tr28_28,Tristeza,28,Antonio responde la pregunta.,Afirmación,Tr28,28,,,,,,,,,0,11,11,11,,,,,,,,,1,1.53882536795,2,1.31684818551,,,,,2018_may._25_1416,60.0063195383,Experimento Piloto1,001,126,
0.25,Stim\\02_019.jpg,Al19_20,Alegría,20,Karen analiza la idea.,Afirmación,Al19,19,,,,,,,,,0,12,12,12,,,,,,,,,1,2.65888529015,2,1.1167344815,,,,,2018_may._25_1416,60.0063195383,Experimento Piloto1,001,126,
2.5,Stim\\05_078.jpg,En78_27,Enojo,27,Claudia informa los avances en el reporte.,Afirmación,En78,78,,,,,,,,,0,13,13,13,,,,,,,,,1,3.11304579487,2,0.350405594881,,,,,2018_may._25_1416,60.0063195383,Experimento Piloto1,001,126,
0.25,Stim\\05_028.jpg,En28_28,Enojo,28,Antonio responde la pregunta.,Afirmación,En28,28,,,,,,,,,0,14,14,14,,,,,,,,,1,2.45529709858,3,0.483662411542,,,,,2018_may._25_1416,60.0063195383,Experimento Piloto1,001,126,
2.5,Stim\\03_078.jpg,Tr78_30,Tristeza,30,Marisol toma 2 litros de agua cada día.,Afirmación,Tr78,78,,,,,,,,,0,15,15,15,,,,,,,,,1,2.91539225652,3,0.550360880822,,,,,2018_may._25_1416,60.0063195383,Experimento Piloto1,001,126,
0.25,Stim\\03_028.jpg,Tr28_27,Tristeza,27,Claudia informa los avances en el reporte.,Afirmación,Tr28,28,,,,,,,,,0,16,16,16,,,,,,,,,1,3.67557898457,4,0.450279038925,,,,,2018_may._25_1416,60.0063195383,Experimento Piloto1,001,126,
0.25,Stim\\02_075.jpg,Al75_24,Alegría,24,Guadalupe comenta los resultados con los compañeros.,Afirmación,Al75,75,,,,,,,,,0,17,17,17,,,,,,,,,1,2.4901330087,3,0.45031027629,,,,,2018_may._25_1416,60.0063195383,Experimento Piloto1,001,126,
0.25,Stim\\02_019.jpg,Al19_16,Alegría,16,Valeria modifica algunas imágenes.,Afirmación,Al19,19,,,,,,,,,0,18,18,18,,,,,,,,,1,2.40176562515,3,0.383593510839,,,,,2018_may._25_1416,60.0063195383,Experimento Piloto1,001,126,
2.5,Stim\\02_028.jpg,Al28_30,Alegría,30,Marisol toma 2 litros de agua cada día.,Afirmación,Al28,28,,,,,,,,,0,19,19,19,,,,,,,,,1,1.33233254764,3,0.333784192644,,,,,2018_may._25_1416,60.0063195383,Experimento Piloto1,001,126,
2.5,Stim\\05_078.jpg,En78_16,Enojo,16,Valeria modifica algunas imágenes.,Afirmación,En78,78,,,,,,,,,0,20,20,20,,,,,,,,,1,1.73775205207,2,0.600307197178,,,,,2018_may._25_1416,60.0063195383,Experimento Piloto1,001,126,
0.25,Stim\\02_075.jpg,Al75_28,Alegría,28,Antonio responde la pregunta.,Afirmación,Al75,75,,,,,,,,,0,21,21,21,,,,,,,,,1,3.73733748761,3,0.433809807283,,,,,2018_may._25_1416,60.0063195383,Experimento Piloto1,001,126,
2.5,Stim\\03_075.jpg,Tr75_17,Tristeza,17,Brenda sube el autobús en las mañanas.,Afirmación,Tr75,75,,,,,,,,,0,22,22,22,,,,,,,,,1,1.53088884585,3,0.450282608909,,,,,2018_may._25_1416,60.0063195383,Experimento Piloto1,001,126,
0.25,Stim\\05_075.jpg,En75_18,Enojo,18,Sofía escucha la música.,Afirmación,En75,75,,,,,,,,,0,23,23,23,,,,,,,,,1,1.32553351189,3,0.350310990287,,,,,2018_may._25_1416,60.0063195383,Experimento Piloto1,001,126,
2.5,Stim\\02_075.jpg,Al75_25,Alegría,25,Luis decide la comida siguiente.,Afirmación,Al75,75,,,,,,,,,0,24,24,24,,,,,,,,,1,2.30133124727,3,0.450618633713,,,,,2018_may._25_1416,60.0063195383,Experimento Piloto1,001,126,
0.25,Stim\\02_028.jpg,Al28_18,Alegría,18,Sofía escucha la música.,Afirmación,Al28,28,,,,,,,,,0,25,25,25,,,,,,,,,1,2.35799939846,3,0.283720513043,,,,,2018_may._25_1416,60.0063195383,Experimento Piloto1,001,126,
0.25,Stim\\02_028.jpg,Al28_23,Alegría,23,Óscar consigue un nuevo departamento.,Afirmación,Al28,28,,,,,,,,,0,26,26,26,,,,,,,,,1,1.21750443794,3,0.350405148632,,,,,2018_may._25_1416,60.0063195383,Experimento Piloto1,001,126,
0.25,Stim\\02_075.jpg,Al75_19,Alegría,19,Armando acompaña a Rodrígo a la tienda.,Afirmación,Al75,75,,,,,,,,,0,27,27,27,,,,,,,,,1,1.6816622384,3,0.283762460363,,,,,2018_may._25_1416,60.0063195383,Experimento Piloto1,001,126,
2.5,Stim\\05_019.jpg,En19_16,Enojo,16,Valeria modifica algunas imágenes.,Afirmación,En19,19,,,,,,,,,0,28,28,28,,,,,,,,,1,1.33313088545,2,0.483574946918,,,,,2018_may._25_1416,60.0063195383,Experimento Piloto1,001,126,
2.5,Stim\\02_019.jpg,Al19_25,Alegría,25,Luis decide la comida siguiente.,Afirmación,Al19,19,,,,,,,,,0,29,29,29,,,,,,,,,1,0.986316695123,3,0.3838929433,,,,,2018_may._25_1416,60.0063195383,Experimento Piloto1,001,126,
0.25,Stim\\02_078.jpg,Al78_27,Alegría,27,Claudia informa los avances en el reporte.,Afirmación,Al78,78,,,,,,,,,0,30,30,30,,,,,,,,,1,1.16420144352,3,0.300269176842,,,,,2018_may._25_1416,60.0063195383,Experimento Piloto1,001,126,
0.25,Stim\\03_019.jpg,Tr19_22,Tristeza,22,Enrique corre todas las mañanas.,Afirmación,Tr19,19,,,,,,,,,0,31,31,31,,,,,,,,,1,1.32037533034,3,0.283868221157,,,,,2018_may._25_1416,60.0063195383,Experimento Piloto1,001,126,
2.5,Stim\\05_019.jpg,En19_26,Enojo,26,Víctor trae el café a Marco.,Afirmación,En19,19,,,,,,,,,0,32,32,32,,,,,,,,,1,1.70586093303,2,0.500048194793,,,,,2018_may._25_1416,60.0063195383,Experimento Piloto1,001,126,
2.5,Stim\\02_078.jpg,Al78_26,Alegría,26,Víctor trae el café a Marco.,Afirmación,Al78,78,,,,,,,,,0,33,33,33,,,,,,,,,1,1.8497848638,3,0.333624882079,,,,,2018_may._25_1416,60.0063195383,Experimento Piloto1,001,126,
0.25,Stim\\05_078.jpg,En78_17,Enojo,17,Brenda sube el autobús en las mañanas.,Afirmación,En78,78,,,,,,,,,0,34,34,34,,,,,,,,,1,1.72937463687,2,0.450214332953,,,,,2018_may._25_1416,60.0063195383,Experimento Piloto1,001,126,
0.25,Stim\\05_078.jpg,En78_21,Enojo,21,Mauro anuncia la actividad.,Afirmación,En78,78,,,,,,,,,0,35,35,35,,,,,,,,,1,1.43959005866,2,0.333711007958,,,,,2018_may._25_1416,60.0063195383,Experimento Piloto1,001,126,
2.5,Stim\\03_078.jpg,Tr78_20,Tristeza,20,Karen analiza la idea.,Afirmación,Tr78,78,,,,,,,,,0,36,36,36,,,,,,,,,1,1.39315883843,4,1.11641853786,,,,,2018_may._25_1416,60.0063195383,Experimento Piloto1,001,126,
0.25,Stim\\03_078.jpg,Tr78_28,Tristeza,28,Antonio responde la pregunta.,Afirmación,Tr78,78,,,,,,,,,0,37,37,37,,,,,,,,,1,2.95432338527,2,0.500413671971,,,,,2018_may._25_1416,60.0063195383,Experimento Piloto1,001,126,
2.5,Stim\\03_028.jpg,Tr28_17,Tristeza,17,Brenda sube el autobús en las mañanas.,Afirmación,Tr28,28,,,,,,,,,0,38,38,38,,,,,,,,,1,2.1489129843,3,0.40031621139,,,,,2018_may._25_1416,60.0063195383,Experimento Piloto1,001,126,
0.25,Stim\\02_028.jpg,Al28_27,Alegría,27,Claudia informa los avances en el reporte.,Afirmación,Al28,28,,,,,,,,,0,39,39,39,,,,,,,,,1,4.22895694866,2,0.550402828141,,,,,2018_may._25_1416,60.0063195383,Experimento Piloto1,001,126,
2.5,Stim\\02_019.jpg,Al19_28,Alegría,28,Antonio responde la pregunta.,Afirmación,Al19,19,,,,,,,,,0,40,40,40,,,,,,,,,1,1.23824872619,3,0.43377812367,,,,,2018_may._25_1416,60.0063195383,Experimento Piloto1,001,126,
0.25,Stim\\02_019.jpg,Al19_17,Alegría,17,Brenda sube el autobús en las mañanas.,Afirmación,Al19,19,,,,,,,,,0,41,41,41,,,,,,,,,1,1.9988491262,3,0.333893523423,,,,,2018_may._25_1416,60.0063195383,Experimento Piloto1,001,126,
2.5,Stim\\03_075.jpg,Tr75_21,Tristeza,21,Mauro anuncia la actividad.,Afirmación,Tr75,75,,,,,,,,,0,42,42,42,,,,,,,,,1,1.23983870809,4,1.10019072643,,,,,2018_may._25_1416,60.0063195383,Experimento Piloto1,001,126,
0.25,Stim\\03_075.jpg,Tr75_26,Tristeza,26,Víctor trae el café a Marco.,Afirmación,Tr75,75,,,,,,,,,0,43,43,43,,,,,,,,,1,2.30616902271,4,1.58336137259,,,,,2018_may._25_1416,60.0063195383,Experimento Piloto1,001,126,
0.25,Stim\\02_075.jpg,Al75_18,Alegría,18,Sofía escucha la música.,Afirmación,Al75,75,,,,,,,,,0,44,44,44,,,,,,,,,1,1.32514706105,3,0.333686018066,,,,,2018_may._25_1416,60.0063195383,Experimento Piloto1,001,126,
2.5,Stim\\05_028.jpg,En28_27,Enojo,27,Claudia informa los avances en el reporte.,Afirmación,En28,28,,,,,,,,,0,45,45,45,,,,,,,,,1,2.36430265259,2,0.433797758585,,,,,2018_may._25_1416,60.0063195383,Experimento Piloto1,001,126,
0.25,Stim\\02_019.jpg,Al19_23,Alegría,23,Óscar consigue un nuevo departamento.,Afirmación,Al19,19,,,,,,,,,0,46,46,46,,,,,,,,,1,1.16661966187,3,0.350265919231,,,,,2018_may._25_1416,60.0063195383,Experimento Piloto1,001,126,
0.25,Stim\\03_075.jpg,Tr75_21,Tristeza,21,Mauro anuncia la actividad.,Afirmación,Tr75,75,,,,,,,,,0,47,47,47,,,,,,,,,1,1.63892729102,4,1.31678392579,,,,,2018_may._25_1416,60.0063195383,Experimento Piloto1,001,126,
0.25,Stim\\02_078.jpg,Al78_28,Alegría,28,Antonio responde la pregunta.,Afirmación,Al78,78,,,,,,,,,0,48,48,48,,,,,,,,,1,2.35490332928,3,0.38376977883,,,,,2018_may._25_1416,60.0063195383,Experimento Piloto1,001,126,
2.5,Stim\\03_075.jpg,Tr75_23,Tristeza,23,Óscar consigue un nuevo departamento.,Afirmación,Tr75,75,,,,,,,,,0,49,49,49,,,,,,,,,1,1.53224454752,3,0.75048484854,,,,,2018_may._25_1416,60.0063195383,Experimento Piloto1,001,126,
0.25,Stim\\02_078.jpg,Al78_22,Alegría,22,Enrique corre todas las mañanas.,Afirmación,Al78,78,,,,,,,,,0,50,50,50,,,,,,,,,1,2.96924502857,3,0.450182203091,,,,,2018_may._25_1416,60.0063195383,Experimento Piloto1,001,126,
2.5,Stim\\03_028.jpg,Tr28_23,Tristeza,23,Óscar consigue un nuevo departamento.,Afirmación,Tr28,28,,,,,,,,,0,51,51,51,,,,,,,,,1,2.39959864448,3,0.450432102016,,,,,2018_may._25_1416,60.0063195383,Experimento Piloto1,001,126,
0.25,Stim\\02_028.jpg,Al28_19,Alegría,19,Armando acompaña a Rodrígo a la tienda.,Afirmación,Al28,28,,,,,,,,,0,52,52,52,,,,,,,,,1,3.41538422406,3,0.300363781434,,,,,2018_may._25_1416,60.0063195383,Experimento Piloto1,001,126,
0.25,Stim\\03_028.jpg,Tr28_28,Tristeza,28,Antonio responde la pregunta.,Afirmación,Tr28,28,,,,,,,,,0,53,53,53,,,,,,,,,1,1.98808606876,2,1.68295278785,,,,,2018_may._25_1416,60.0063195383,Experimento Piloto1,001,126,
2.5,Stim\\05_075.jpg,En75_16,Enojo,16,Valeria modifica algunas imágenes.,Afirmación,En75,75,,,,,,,,,0,54,54,54,,,,,,,,,1,1.2180015583,2,0.450300012584,,,,,2018_may._25_1416,60.0063195383,Experimento Piloto1,001,126,
0.25,Stim\\03_019.jpg,Tr19_28,Tristeza,28,Antonio responde la pregunta.,Afirmación,Tr19,19,,,,,,,,,0,55,55,55,,,,,,,,,1,2.55477338184,2,0.900210896843,,,,,2018_may._25_1416,60.0063195383,Experimento Piloto1,001,126,
2.5,Stim\\03_019.jpg,Tr19_24,Tristeza,24,Guadalupe comenta los resultados con los compañeros.,Afirmación,Tr19,19,,,,,,,,,0,56,56,56,,,,,,,,,1,3.88960893496,3,1.41663773492,,,,,2018_may._25_1416,60.0063195383,Experimento Piloto1,001,126,
0.25,Stim\\03_019.jpg,Tr19_30,Tristeza,30,Marisol toma 2 litros de agua cada día.,Afirmación,Tr19,19,,,,,,,,,0,57,57,57,,,,,,,,,1,1.36556241092,3,0.350365432552,,,,,2018_may._25_1416,60.0063195383,Experimento Piloto1,001,126,
0.25,Stim\\02_075.jpg,Al75_23,Alegría,23,Óscar consigue un nuevo departamento.,Afirmación,Al75,75,,,,,,,,,0,58,58,58,,,,,,,,,1,1.68324418784,3,0.433662545417,,,,,2018_may._25_1416,60.0063195383,Experimento Piloto1,001,126,
2.5,Stim\\02_078.jpg,Al78_22,Alegría,22,Enrique corre todas las mañanas.,Afirmación,Al78,78,,,,,,,,,0,59,59,59,,,,,,,,,1,1.90357382237,3,0.400085501132,,,,,2018_may._25_1416,60.0063195383,Experimento Piloto1,001,126,
2.5,Stim\\05_075.jpg,En75_20,Enojo,20,Karen analiza la idea.,Afirmación,En75,75,,,,,,,,,0,60,60,60,,,,,,,,,1,1.79194977389,3,0.450323663733,,,,,2018_may._25_1416,60.0063195383,Experimento Piloto1,001,126,
2.5,Stim\\03_028.jpg,Tr28_18,Tristeza,18,Sofía escucha la música.,Afirmación,Tr28,28,,,,,,,,,0,61,61,61,,,,,,,,,1,3.49044002738,3,0.583650095095,,,,,2018_may._25_1416,60.0063195383,Experimento Piloto1,001,126,
0.25,Stim\\02_028.jpg,Al28_22,Alegría,22,Enrique corre todas las mañanas.,Afirmación,Al28,28,,,,,,,,,0,62,62,62,,,,,,,,,1,1.63642919426,3,0.400333615064,,,,,2018_may._25_1416,60.0063195383,Experimento Piloto1,001,126,
2.5,Stim\\03_075.jpg,Tr75_29,Tristeza,29,Miriam mira la película.,Afirmación,Tr75,75,,,,,,,,,0,63,63,63,,,,,,,,,1,2.2086236549,4,0.38375594514,,,,,2018_may._25_1416,60.0063195383,Experimento Piloto1,001,126,
2.5,Stim\\05_075.jpg,En75_19,Enojo,19,Armando acompaña a Rodrígo a la tienda.,Afirmación,En75,75,,,,,,,,,0,64,64,64,,,,,,,,,1,2.31461025139,2,0.483744521189,,,,,2018_may._25_1416,60.0063195383,Experimento Piloto1,001,126,
0.25,Stim\\05_078.jpg,En78_27,Enojo,27,Claudia informa los avances en el reporte.,Afirmación,En78,78,,,,,,,,,0,65,65,65,,,,,,,,,1,1.94669789808,2,0.700210986092,,,,,2018_may._25_1416,60.0063195383,Experimento Piloto1,001,126,
0.25,Stim\\02_075.jpg,Al75_29,Alegría,29,Miriam mira la película.,Afirmación,Al75,75,,,,,,,,,0,66,66,66,,,,,,,,,1,1.94089399555,3,0.399901200675,,,,,2018_may._25_1416,60.0063195383,Experimento Piloto1,001,126,
2.5,Stim\\03_075.jpg,Tr75_19,Tristeza,19,Armando acompaña a Rodrígo a la tienda.,Afirmación,Tr75,75,,,,,,,,,0,67,67,67,,,,,,,,,1,1.11619095134,4,0.450273683948,,,,,2018_may._25_1416,60.0063195383,Experimento Piloto1,001,126,
2.5,Stim\\03_028.jpg,Tr28_22,Tristeza,22,Enrique corre todas las mañanas.,Afirmación,Tr28,28,,,,,,,,,0,68,68,68,,,,,,,,,1,1.78666887411,3,0.800168771024,,,,,2018_may._25_1416,60.0063195383,Experimento Piloto1,001,126,
0.25,Stim\\03_078.jpg,Tr78_25,Tristeza,25,Luis decide la comida siguiente.,Afirmación,Tr78,78,,,,,,,,,0,69,69,69,,,,,,,,,1,2.35277963467,3,1.46690758113,,,,,2018_may._25_1416,60.0063195383,Experimento Piloto1,001,126,
2.5,Stim\\02_028.jpg,Al28_19,Alegría,19,Armando acompaña a Rodrígo a la tienda.,Afirmación,Al28,28,,,,,,,,,0,70,70,70,,,,,,,,,1,3.67874645344,3,0.300387432583,,,,,2018_may._25_1416,60.0063195383,Experimento Piloto1,001,126,
0.25,Stim\\02_075.jpg,Al75_25,Alegría,25,Luis decide la comida siguiente.,Afirmación,Al75,75,,,,,,,,,0,71,71,71,,,,,,,,,1,1.11971764992,3,0.233873263761,,,,,2018_may._25_1416,60.0063195383,Experimento Piloto1,001,126,
2.5,Stim\\02_019.jpg,Al19_24,Alegría,24,Guadalupe comenta los resultados con los compañeros.,Afirmación,Al19,19,,,,,,,,,0,72,72,72,,,,,,,,,1,1.52468689003,3,0.600289347255,,,,,2018_may._25_1416,60.0063195383,Experimento Piloto1,001,126,
0.25,Stim\\03_028.jpg,Tr28_23,Tristeza,23,Óscar consigue un nuevo departamento.,Afirmación,Tr28,28,,,,,,,,,0,73,73,73,,,,,,,,,1,2.34978352506,3,0.400198848145,,,,,2018_may._25_1416,60.0063195383,Experimento Piloto1,001,126,
0.25,Stim\\03_028.jpg,Tr28_25,Tristeza,25,Luis decide la comida siguiente.,Afirmación,Tr28,28,,,,,,,,,0,74,74,74,,,,,,,,,1,1.93632887769,3,1.26674255859,,,,,2018_may._25_1416,60.0063195383,Experimento Piloto1,001,126,
0.25,Stim\\05_019.jpg,En19_23,Enojo,23,Óscar consigue un nuevo departamento.,Afirmación,En19,19,,,,,,,,,0,75,75,75,,,,,,,,,1,1.83275425207,2,0.400061849984,,,,,2018_may._25_1416,60.0063195383,Experimento Piloto1,001,126,
2.5,Stim\\03_019.jpg,Tr19_26,Tristeza,26,Víctor trae el café a Marco.,Afirmación,Tr19,19,,,,,,,,,0,76,76,76,,,,,,,,,1,1.78835346061,3,0.400009638958,,,,,2018_may._25_1416,60.0063195383,Experimento Piloto1,001,126,
0.25,Stim\\05_028.jpg,En28_30,Enojo,30,Marisol toma 2 litros de agua cada día.,Afirmación,En28,28,,,,,,,,,0,77,77,77,,,,,,,,,1,2.54854598988,2,0.70023463724,,,,,2018_may._25_1416,60.0063195383,Experimento Piloto1,001,126,
2.5,Stim\\02_019.jpg,Al19_26,Alegría,26,Víctor trae el café a Marco.,Afirmación,Al19,19,,,,,,,,,0,78,78,78,,,,,,,,,1,1.63971536513,2,1.5171055814,,,,,2018_may._25_1416,60.0063195383,Experimento Piloto1,001,126,
0.25,Stim\\03_075.jpg,Tr75_27,Tristeza,27,Claudia informa los avances en el reporte.,Afirmación,Tr75,75,,,,,,,,,0,79,79,79,,,,,,,,,1,2.49618502516,3,1.06684930113,,,,,2018_may._25_1416,60.0063195383,Experimento Piloto1,001,126,
2.5,Stim\\02_078.jpg,Al78_27,Alegría,27,Claudia informa los avances en el reporte.,Afirmación,Al78,78,,,,,,,,,0,80,80,80,,,,,,,,,1,2.26644624987,2,0.750202819752,,,,,2018_may._25_1416,60.0063195383,Experimento Piloto1,001,126,
0.25,Stim\\02_019.jpg,Al19_26,Alegría,26,Víctor trae el café a Marco.,Afirmación,Al19,19,,,,,,,,,0,81,81,81,,,,,,,,,1,2.25483085859,3,0.383629656933,,,,,2018_may._25_1416,60.0063195383,Experimento Piloto1,001,126,
0.25,Stim\\03_019.jpg,Tr19_29,Tristeza,29,Miriam mira la película.,Afirmación,Tr19,19,,,,,,,,,0,82,82,82,,,,,,,,,1,3.38649144587,2,0.383736756473,,,,,2018_may._25_1416,60.0063195383,Experimento Piloto1,001,126,
2.5,Stim\\05_075.jpg,En75_27,Enojo,27,Claudia informa los avances en el reporte.,Afirmación,En75,75,,,,,,,,,0,83,83,83,,,,,,,,,1,1.58009528289,2,0.35034490514,,,,,2018_may._25_1416,60.0063195383,Experimento Piloto1,001,126,
0.25,Stim\\05_019.jpg,En19_25,Enojo,25,Luis decide la comida siguiente.,Afirmación,En19,19,,,,,,,,,0,84,84,84,,,,,,,,,1,1.43430112642,2,0.383649291849,,,,,2018_may._25_1416,60.0063195383,Experimento Piloto1,001,126,
2.5,Stim\\03_028.jpg,Tr28_20,Tristeza,20,Karen analiza la idea.,Afirmación,Tr28,28,,,,,,,,,0,85,85,85,,,,,,,,,1,2.20856296516,3,0.350369895034,,,,,2018_may._25_1416,60.0063195383,Experimento Piloto1,001,126,
2.5,Stim\\05_028.jpg,En28_26,Enojo,26,Víctor trae el café a Marco.,Afirmación,En28,28,,,,,,,,,0,86,86,86,,,,,,,,,1,1.32303139891,2,0.450320539996,,,,,2018_may._25_1416,60.0063195383,Experimento Piloto1,001,126,
0.25,Stim\\05_028.jpg,En28_21,Enojo,21,Mauro anuncia la actividad.,Afirmación,En28,28,,,,,,,,,0,87,87,87,,,,,,,,,1,2.55648965195,3,0.300361550195,,,,,2018_may._25_1416,60.0063195383,Experimento Piloto1,001,126,
0.25,Stim\\03_075.jpg,Tr75_22,Tristeza,22,Enrique corre todas las mañanas.,Afirmación,Tr75,75,,,,,,,,,0,88,88,88,,,,,,,,,1,2.13668712565,2,0.450340621159,,,,,2018_may._25_1416,60.0063195383,Experimento Piloto1,001,126,
0.25,Stim\\05_028.jpg,En28_27,Enojo,27,Claudia informa los avances en el reporte.,Afirmación,En28,28,,,,,,,,,0,89,89,89,,,,,,,,,1,2.34657232387,2,0.433467981255,,,,,2018_may._25_1416,60.0063195383,Experimento Piloto1,001,126,
2.5,Stim\\03_075.jpg,Tr75_22,Tristeza,22,Enrique corre todas las mañanas.,Afirmación,Tr75,75,,,,,,,,,0,90,90,90,,,,,,,,,1,3.48634347001,4,0.700259627133,,,,,2018_may._25_1416,60.0063195383,Experimento Piloto1,001,126,
0.25,Stim\\05_019.jpg,En19_28,Enojo,28,Antonio responde la pregunta.,Afirmación,En19,19,,,,,,,,,0,91,91,91,,,,,,,,,1,1.68916188363,2,0.550252888787,,,,,2018_may._25_1416,60.0063195383,Experimento Piloto1,001,126,
2.5,Stim\\03_019.jpg,Tr19_17,Tristeza,17,Brenda sube el autobús en las mañanas.,Afirmación,Tr19,19,,,,,,,,,0,92,92,92,,,,,,,,,1,1.6322723934,3,0.350284215402,,,,,2018_may._25_1416,60.0063195383,Experimento Piloto1,001,126,
0.25,Stim\\05_028.jpg,En28_29,Enojo,29,Miriam mira la película.,Afirmación,En28,28,,,,,,,,,0,93,93,93,,,,,,,,,1,1.47461740921,2,0.450291533871,,,,,2018_may._25_1416,60.0063195383,Experimento Piloto1,001,126,
0.25,Stim\\05_028.jpg,En28_18,Enojo,18,Sofía escucha la música.,Afirmación,En28,28,,,,,,,,,0,94,94,94,,,,,,,,,1,1.12475623699,2,0.450401310898,,,,,2018_may._25_1416,60.0063195383,Experimento Piloto1,001,126,
0.25,Stim\\05_028.jpg,En28_25,Enojo,25,Luis decide la comida siguiente.,Afirmación,En28,28,,,,,,,,,0,95,95,95,,,,,,,,,1,1.01937832288,2,0.433767859963,,,,,2018_may._25_1416,60.0063195383,Experimento Piloto1,001,126,
2.5,Stim\\03_075.jpg,Tr75_16,Tristeza,16,Valeria modifica algunas imágenes.,Afirmación,Tr75,75,,,,,,,,,0,96,96,96,,,,,,,,,1,1.73404953175,4,0.400339862537,,,,,2018_may._25_1416,60.0063195383,Experimento Piloto1,001,126,
2.5,Stim\\05_019.jpg,En19_18,Enojo,18,Sofía escucha la música.,Afirmación,En19,19,,,,,,,,,0,97,97,97,,,,,,,,,1,0.974001586858,2,0.50027890505,,,,,2018_may._25_1416,60.0063195383,Experimento Piloto1,001,126,
0.25,Stim\\05_075.jpg,En75_28,Enojo,28,Antonio responde la pregunta.,Afirmación,En75,75,,,,,,,,,0,98,98,98,,,,,,,,,1,1.32129683262,2,0.400386718586,,,,,2018_may._25_1416,60.0063195383,Experimento Piloto1,001,126,
0.25,Stim\\03_019.jpg,Tr19_24,Tristeza,24,Guadalupe comenta los resultados con los compañeros.,Afirmación,Tr19,19,,,,,,,,,0,99,99,99,,,,,,,,,1,2.12372942015,4,0.400336738801,,,,,2018_may._25_1416,60.0063195383,Experimento Piloto1,001,126,
0.25,Stim\\02_075.jpg,Al75_21,Alegría,21,Mauro anuncia la actividad.,Afirmación,Al75,75,,,,,,,,,0,100,100,100,,,,,,,,,1,1.49015665985,3,1.31657731293,,,,,2018_may._25_1416,60.0063195383,Experimento Piloto1,001,126,
0.25,Stim\\03_019.jpg,Tr19_23,Tristeza,23,Óscar consigue un nuevo departamento.,Afirmación,Tr19,19,,,,,,,,,0,101,101,101,,,,,,,,,1,1.73266393146,3,0.38379298373,,,,,2018_may._25_1416,60.0063195383,Experimento Piloto1,001,126,
2.5,Stim\\05_028.jpg,En28_30,Enojo,30,Marisol toma 2 litros de agua cada día.,Afirmación,En28,28,,,,,,,,,0,102,102,102,,,,,,,,,1,1.18297108402,2,0.43374554756,,,,,2018_may._25_1416,60.0063195383,Experimento Piloto1,001,126,
0.25,Stim\\02_078.jpg,Al78_19,Alegría,19,Armando acompaña a Rodrígo a la tienda.,Afirmación,Al78,78,,,,,,,,,0,103,103,103,,,,,,,,,1,1.73258226807,3,0.400339862537,,,,,2018_may._25_1416,60.0063195383,Experimento Piloto1,001,126,
2.5,Stim\\03_075.jpg,Tr75_25,Tristeza,25,Luis decide la comida siguiente.,Afirmación,Tr75,75,,,,,,,,,0,104,104,104,,,,,,,,,1,2.25191864362,3,1.56660475718,,,,,2018_may._25_1416,60.0063195383,Experimento Piloto1,001,126,
2.5,Stim\\03_028.jpg,Tr28_29,Tristeza,29,Miriam mira la película.,Afirmación,Tr28,28,,,,,,,,,0,105,105,105,,,,,,,,,1,3.39076650248,4,0.950296442599,,,,,2018_may._25_1416,60.0063195383,Experimento Piloto1,001,126,
0.25,Stim\\03_028.jpg,Tr28_24,Tristeza,24,Guadalupe comenta los resultados con los compañeros.,Afirmación,Tr28,28,,,,,,,,,0,106,106,106,,,,,,,,,1,2.19040022205,3,0.966978980823,,,,,2018_may._25_1416,60.0063195383,Experimento Piloto1,001,126,
0.25,Stim\\02_075.jpg,Al75_30,Alegría,30,Marisol toma 2 litros de agua cada día.,Afirmación,Al75,75,,,,,,,,,0,107,107,107,,,,,,,,,1,1.46561480044,3,0.40048578566,,,,,2018_may._25_1416,60.0063195383,Experimento Piloto1,001,126,
2.5,Stim\\05_019.jpg,En19_27,Enojo,27,Claudia informa los avances en el reporte.,Afirmación,En19,19,,,,,,,,,0,108,108,108,,,,,,,,,1,1.26437878251,2,0.450301351329,,,,,2018_may._25_1416,60.0063195383,Experimento Piloto1,001,126,
2.5,Stim\\05_075.jpg,En75_18,Enojo,18,Sofía escucha la música.,Afirmación,En75,75,,,,,,,,,0,109,109,109,,,,,,,,,1,1.5912376512,2,0.40032290511,,,,,2018_may._25_1416,60.0063195383,Experimento Piloto1,001,126,
2.5,Stim\\02_028.jpg,Al28_23,Alegría,23,Óscar consigue un nuevo departamento.,Afirmación,Al28,28,,,,,,,,,0,110,110,110,,,,,,,,,1,1.78175657524,3,0.450355793594,,,,,2018_may._25_1416,60.0063195383,Experimento Piloto1,001,126,
2.5,Stim\\05_078.jpg,En78_29,Enojo,29,Miriam mira la película.,Afirmación,En78,78,,,,,,,,,0,111,111,111,,,,,,,,,1,1.32533984023,2,0.500347181006,,,,,2018_may._25_1416,60.0063195383,Experimento Piloto1,001,126,
0.25,Stim\\03_078.jpg,Tr78_20,Tristeza,20,Karen analiza la idea.,Afirmación,Tr78,78,,,,,,,,,0,112,112,112,,,,,,,,,1,2.92527709775,4,0.399961890414,,,,,2018_may._25_1416,60.0063195383,Experimento Piloto1,001,126,
0.25,Stim\\02_019.jpg,Al19_25,Alegría,25,Luis decide la comida siguiente.,Afirmación,Al19,19,,,,,,,,,0,113,113,113,,,,,,,,,1,1.11770194734,3,0.433770091205,,,,,2018_may._25_1416,60.0063195383,Experimento Piloto1,001,126,
2.5,Stim\\03_078.jpg,Tr78_16,Tristeza,16,Valeria modifica algunas imágenes.,Afirmación,Tr78,78,,,,,,,,,0,114,114,114,,,,,,,,,1,1.53496130583,4,0.400311748908,,,,,2018_may._25_1416,60.0063195383,Experimento Piloto1,001,126,
0.25,Stim\\02_028.jpg,Al28_21,Alegría,21,Mauro anuncia la actividad.,Afirmación,Al28,28,,,,,,,,,0,115,115,115,,,,,,,,,1,1.47302162607,3,0.450313846274,,,,,2018_may._25_1416,60.0063195383,Experimento Piloto1,001,126,
2.5,Stim\\05_019.jpg,En19_30,Enojo,30,Marisol toma 2 litros de agua cada día.,Afirmación,En19,19,,,,,,,,,0,116,116,116,,,,,,,,,1,2.5146431845,2,0.533596232953,,,,,2018_may._25_1416,60.0063195383,Experimento Piloto1,001,126,
0.25,Stim\\05_078.jpg,En78_26,Enojo,26,Víctor trae el café a Marco.,Afirmación,En78,78,,,,,,,,,0,117,117,117,,,,,,,,,1,1.48881925435,2,0.450493238003,,,,,2018_may._25_1416,60.0063195383,Experimento Piloto1,001,126,
0.25,Stim\\02_078.jpg,Al78_21,Alegría,21,Mauro anuncia la actividad.,Afirmación,Al78,78,,,,,,,,,0,118,118,118,,,,,,,,,1,1.00736130833,3,0.350334195187,,,,,2018_may._25_1416,60.0063195383,Experimento Piloto1,001,126,
0.25,Stim\\03_075.jpg,Tr75_30,Tristeza,30,Marisol toma 2 litros de agua cada día.,Afirmación,Tr75,75,,,,,,,,,0,119,119,119,,,,,,,,,1,2.3976869177,4,0.450304475065,,,,,2018_may._25_1416,60.0063195383,Experimento Piloto1,001,126,
2.5,Stim\\02_078.jpg,Al78_17,Alegría,17,Brenda sube el autobús en las mañanas.,Afirmación,Al78,78,,,,,,,,,,,,,0,0,0,0,,,,,,,,,1,1.24896715882,3,0.350331963947,2018_may._25_1416,60.0063195383,Experimento Piloto1,001,126,
2.5,Stim\\05_019.jpg,En19_23,Enojo,23,Óscar consigue un nuevo departamento.,Afirmación,En19,19,,,,,,,,,,,,,0,1,1,1,,,,,,,,,1,1.38358458588,2,0.433563032096,2018_may._25_1416,60.0063195383,Experimento Piloto1,001,126,
0.25,Stim\\02_075.jpg,Al75_17,Alegría,17,Brenda sube el autobús en las mañanas.,Afirmación,Al75,75,,,,,,,,,,,,,0,2,2,2,,,,,,,,,1,1.5306563506,3,0.283914630957,2018_may._25_1416,60.0063195383,Experimento Piloto1,001,126,
2.5,Stim\\02_075.jpg,Al75_24,Alegría,24,Guadalupe comenta los resultados con los compañeros.,Afirmación,Al75,75,,,,,,,,,,,,,0,3,3,3,,,,,,,,,1,2.40683901958,2,1.56662751584,2018_may._25_1416,60.0063195383,Experimento Piloto1,001,126,
0.25,Stim\\05_075.jpg,En75_19,Enojo,19,Armando acompaña a Rodrígo a la tienda.,Afirmación,En75,75,,,,,,,,,,,,,0,4,4,4,,,,,,,,,1,3.9814177837,2,0.350264580487,2018_may._25_1416,60.0063195383,Experimento Piloto1,001,126,
2.5,Stim\\02_019.jpg,Al19_29,Alegría,29,Miriam mira la película.,Afirmación,Al19,19,,,,,,,,,,,,,0,5,5,5,,,,,,,,,1,2.05836344764,4,1.51659462735,2018_may._25_1416,60.0063195383,Experimento Piloto1,001,126,
2.5,Stim\\02_078.jpg,Al78_24,Alegría,24,Guadalupe comenta los resultados con los compañeros.,Afirmación,Al78,78,,,,,,,,,,,,,0,6,6,6,,,,,,,,,1,2.9565010759,2,0.550253781283,2018_may._25_1416,60.0063195383,Experimento Piloto1,001,126,
0.25,Stim\\05_028.jpg,En28_20,Enojo,20,Karen analiza la idea.,Afirmación,En28,28,,,,,,,,,,,,,0,7,7,7,,,,,,,,,1,2.558511602,2,0.400455440791,2018_may._25_1416,60.0063195383,Experimento Piloto1,001,126,
0.25,Stim\\03_078.jpg,Tr78_27,Tristeza,27,Claudia informa los avances en el reporte.,Afirmación,Tr78,78,,,,,,,,,,,,,0,8,8,8,,,,,,,,,1,1.68010527885,4,0.383680529214,2018_may._25_1416,60.0063195383,Experimento Piloto1,001,126,
0.25,Stim\\02_019.jpg,Al19_30,Alegría,30,Marisol toma 2 litros de agua cada día.,Afirmación,Al19,19,,,,,,,,,,,,,0,9,9,9,,,,,,,,,1,1.68194292844,3,0.400392966059,2018_may._25_1416,60.0063195383,Experimento Piloto1,001,126,
2.5,Stim\\02_019.jpg,Al19_19,Alegría,19,Armando acompaña a Rodrígo a la tienda.,Afirmación,Al19,19,,,,,,,,,,,,,0,10,10,10,,,,,,,,,1,3.2158390401,3,0.700317639383,2018_may._25_1416,60.0063195383,Experimento Piloto1,001,126,
0.25,Stim\\02_028.jpg,Al28_30,Alegría,30,Marisol toma 2 litros de agua cada día.,Afirmación,Al28,28,,,,,,,,,,,,,0,11,11,11,,,,,,,,,1,1.88230162265,3,0.550402381894,2018_may._25_1416,60.0063195383,Experimento Piloto1,001,126,
2.5,Stim\\02_019.jpg,Al19_16,Alegría,16,Valeria modifica algunas imágenes.,Afirmación,Al19,19,,,,,,,,,,,,,0,12,12,12,,,,,,,,,1,1.85130389226,3,0.333872996011,2018_may._25_1416,60.0063195383,Experimento Piloto1,001,126,
2.5,Stim\\03_075.jpg,Tr75_30,Tristeza,30,Marisol toma 2 litros de agua cada día.,Afirmación,Tr75,75,,,,,,,,,,,,,0,13,13,13,,,,,,,,,1,1.23262198414,4,1.46654522769,2018_may._25_1416,60.0063195383,Experimento Piloto1,001,126,
2.5,Stim\\02_078.jpg,Al78_19,Alegría,19,Armando acompaña a Rodrígo a la tienda.,Afirmación,Al78,78,,,,,,,,,,,,,0,14,14,14,,,,,,,,,1,1.55551549239,3,0.783598687317,2018_may._25_1416,60.0063195383,Experimento Piloto1,001,126,
2.5,Stim\\05_075.jpg,En75_25,Enojo,25,Luis decide la comida siguiente.,Afirmación,En75,75,,,,,,,,,,,,,0,15,15,15,,,,,,,,,1,1.43474246577,2,0.500307911175,2018_may._25_1416,60.0063195383,Experimento Piloto1,001,126,
0.25,Stim\\03_075.jpg,Tr75_24,Tristeza,24,Guadalupe comenta los resultados con los compañeros.,Afirmación,Tr75,75,,,,,,,,,,,,,0,16,16,16,,,,,,,,,1,2.8399642823,2,0.450288856382,2018_may._25_1416,60.0063195383,Experimento Piloto1,001,126,
2.5,Stim\\05_078.jpg,En78_25,Enojo,25,Luis decide la comida siguiente.,Afirmación,En78,78,,,,,,,,,,,,,0,17,17,17,,,,,,,,,1,1.38632365659,2,0.450083136017,2018_may._25_1416,60.0063195383,Experimento Piloto1,001,126,
2.5,Stim\\05_028.jpg,En28_17,Enojo,17,Brenda sube el autobús en las mañanas.,Afirmación,En28,28,,,,,,,,,,,,,0,18,18,18,,,,,,,,,1,1.2672280765,2,0.45031473877,2018_may._25_1416,60.0063195383,Experimento Piloto1,001,126,
0.25,Stim\\02_078.jpg,Al78_26,Alegría,26,Víctor trae el café a Marco.,Afirmación,Al78,78,,,,,,,,,,,,,0,19,19,19,,,,,,,,,1,1.88967899591,3,0.450308045049,2018_may._25_1416,60.0063195383,Experimento Piloto1,001,126,
2.5,Stim\\03_075.jpg,Tr75_20,Tristeza,20,Karen analiza la idea.,Afirmación,Tr75,75,,,,,,,,,,,,,0,20,20,20,,,,,,,,,1,1.94271558022,4,0.500217769063,2018_may._25_1416,60.0063195383,Experimento Piloto1,001,126,
2.5,Stim\\05_028.jpg,En28_21,Enojo,21,Mauro anuncia la actividad.,Afirmación,En28,28,,,,,,,,,,,,,0,21,21,21,,,,,,,,,1,1.2405803724,2,0.48368160021,2018_may._25_1416,60.0063195383,Experimento Piloto1,001,126,
0.25,Stim\\05_019.jpg,En19_21,Enojo,21,Mauro anuncia la actividad.,Afirmación,En19,19,,,,,,,,,,,,,0,22,22,22,,,,,,,,,1,1.24982440138,2,0.283703109367,2018_may._25_1416,60.0063195383,Experimento Piloto1,001,126,
0.25,Stim\\03_028.jpg,Tr28_16,Tristeza,16,Valeria modifica algunas imágenes.,Afirmación,Tr28,28,,,,,,,,,,,,,0,23,23,23,,,,,,,,,1,1.8349921862,4,0.350379266243,2018_may._25_1416,60.0063195383,Experimento Piloto1,001,126,
0.25,Stim\\05_075.jpg,En75_27,Enojo,27,Claudia informa los avances en el reporte.,Afirmación,En75,75,,,,,,,,,,,,,0,24,24,24,,,,,,,,,1,1.61391999486,2,0.400293898985,2018_may._25_1416,60.0063195383,Experimento Piloto1,001,126,
2.5,Stim\\02_078.jpg,Al78_18,Alegría,18,Sofía escucha la música.,Afirmación,Al78,78,,,,,,,,,,,,,0,25,25,25,,,,,,,,,1,1.02504835098,3,0.400338077546,2018_may._25_1416,60.0063195383,Experimento Piloto1,001,126,
2.5,Stim\\03_028.jpg,Tr28_25,Tristeza,25,Luis decide la comida siguiente.,Afirmación,Tr28,28,,,,,,,,,,,,,0,26,26,26,,,,,,,,,1,2.71931218891,3,0.333617295862,2018_may._25_1416,60.0063195383,Experimento Piloto1,001,126,
0.25,Stim\\03_075.jpg,Tr75_18,Tristeza,18,Sofía escucha la música.,Afirmación,Tr75,75,,,,,,,,,,,,,0,27,27,27,,,,,,,,,1,3.43762478212,3,2.28301633357,2018_may._25_1416,60.0063195383,Experimento Piloto1,001,126,
2.5,Stim\\02_028.jpg,Al28_27,Alegría,27,Claudia informa los avances en el reporte.,Afirmación,Al28,28,,,,,,,,,,,,,0,28,28,28,,,,,,,,,1,2.4463908794,3,0.350160158436,2018_may._25_1416,60.0063195383,Experimento Piloto1,001,126,
2.5,Stim\\02_028.jpg,Al28_20,Alegría,20,Karen analiza la idea.,Afirmación,Al28,28,,,,,,,,,,,,,0,29,29,29,,,,,,,,,1,1.39230248837,3,0.433747778799,2018_may._25_1416,60.0063195383,Experimento Piloto1,001,126,
0.25,Stim\\05_078.jpg,En78_29,Enojo,29,Miriam mira la película.,Afirmación,En78,78,,,,,,,,,,,,,0,30,30,30,,,,,,,,,1,0.921911048477,2,0.400286759016,2018_may._25_1416,60.0063195383,Experimento Piloto1,001,126,
0.25,Stim\\05_019.jpg,En19_22,Enojo,22,Enrique corre todas las mañanas.,Afirmación,En19,19,,,,,,,,,,,,,0,31,31,31,,,,,,,,,1,0.95367364807,2,0.300347270256,2018_may._25_1416,60.0063195383,Experimento Piloto1,001,126,
2.5,Stim\\03_019.jpg,Tr19_20,Tristeza,20,Karen analiza la idea.,Afirmación,Tr19,19,,,,,,,,,,,,,0,32,32,32,,,,,,,,,1,1.84287158854,4,0.450237984101,2018_may._25_1416,60.0063195383,Experimento Piloto1,001,126,
2.5,Stim\\05_078.jpg,En78_22,Enojo,22,Enrique corre todas las mañanas.,Afirmación,En78,78,,,,,,,,,,,,,0,33,33,33,,,,,,,,,1,1.95347729891,3,0.750192109799,2018_may._25_1416,60.0063195383,Experimento Piloto1,001,126,
2.5,Stim\\02_078.jpg,Al78_16,Alegría,16,Valeria modifica algunas imágenes.,Afirmación,Al78,78,,,,,,,,,,,,,0,34,34,34,,,,,,,,,1,2.55157646059,3,0.400143959631,2018_may._25_1416,60.0063195383,Experimento Piloto1,001,126,
2.5,Stim\\05_028.jpg,En28_24,Enojo,24,Guadalupe comenta los resultados con los compañeros.,Afirmación,En28,28,,,,,,,,,,,,,0,35,35,35,,,,,,,,,1,1.27348715207,2,0.433577312034,2018_may._25_1416,60.0063195383,Experimento Piloto1,001,126,
2.5,Stim\\02_075.jpg,Al75_16,Alegría,16,Valeria modifica algunas imágenes.,Afirmación,Al75,75,,,,,,,,,,,,,0,36,36,36,,,,,,,,,1,1.80166147085,2,0.383599758312,2018_may._25_1416,60.0063195383,Experimento Piloto1,001,126,
0.25,Stim\\02_019.jpg,Al19_18,Alegría,18,Sofía escucha la música.,Afirmación,Al19,19,,,,,,,,,,,,,0,37,37,37,,,,,,,,,1,1.64038696849,3,0.600180462723,2018_may._25_1416,60.0063195383,Experimento Piloto1,001,126,
2.5,Stim\\02_028.jpg,Al28_26,Alegría,26,Víctor trae el café a Marco.,Afirmación,Al28,28,,,,,,,,,,,,,0,38,38,38,,,,,,,,,1,1.33953945413,3,0.54997086,2018_may._25_1416,60.0063195383,Experimento Piloto1,001,126,
2.5,Stim\\02_078.jpg,Al78_29,Alegría,29,Miriam mira la película.,Afirmación,Al78,78,,,,,,,,,,,,,0,39,39,39,,,,,,,,,1,1.27211761671,3,0.300039805328,2018_may._25_1416,60.0063195383,Experimento Piloto1,001,126,
0.25,Stim\\05_078.jpg,En78_24,Enojo,24,Guadalupe comenta los resultados con los compañeros.,Afirmación,En78,78,,,,,,,,,,,,,0,40,40,40,,,,,,,,,1,1.30737880125,2,0.450067517334,2018_may._25_1416,60.0063195383,Experimento Piloto1,001,126,
0.25,Stim\\03_075.jpg,Tr75_19,Tristeza,19,Armando acompaña a Rodrígo a la tienda.,Afirmación,Tr75,75,,,,,,,,,,,,,0,41,41,41,,,,,,,,,1,1.87560076148,4,0.383749251419,2018_may._25_1416,60.0063195383,Experimento Piloto1,001,126,
0.25,Stim\\02_028.jpg,Al28_17,Alegría,17,Brenda sube el autobús en las mañanas.,Afirmación,Al28,28,,,,,,,,,,,,,0,42,42,42,,,,,,,,,1,2.61580673174,3,0.33365031822,2018_may._25_1416,60.0063195383,Experimento Piloto1,001,126,
2.5,Stim\\05_075.jpg,En75_21,Enojo,21,Mauro anuncia la actividad.,Afirmación,En75,75,,,,,,,,,,,,,0,43,43,43,,,,,,,,,1,3.95551843763,2,0.433709401465,2018_may._25_1416,60.0063195383,Experimento Piloto1,001,126,
0.25,Stim\\03_019.jpg,Tr19_27,Tristeza,27,Claudia informa los avances en el reporte.,Afirmación,Tr19,19,,,,,,,,,,,,,0,44,44,44,,,,,,,,,1,1.8297630512,3,0.450344191145,2018_may._25_1416,60.0063195383,Experimento Piloto1,001,126,
2.5,Stim\\02_075.jpg,Al75_19,Alegría,19,Armando acompaña a Rodrígo a la tienda.,Afirmación,Al75,75,,,,,,,,,,,,,0,45,45,45,,,,,,,,,1,2.24920188531,3,0.400209111851,2018_may._25_1416,60.0063195383,Experimento Piloto1,001,126,
2.5,Stim\\03_019.jpg,Tr19_22,Tristeza,22,Enrique corre todas las mañanas.,Afirmación,Tr19,19,,,,,,,,,,,,,0,46,46,46,,,,,,,,,1,1.27044374017,3,0.400157793321,2018_may._25_1416,60.0063195383,Experimento Piloto1,001,126,
2.5,Stim\\02_075.jpg,Al75_23,Alegría,23,Óscar consigue un nuevo departamento.,Afirmación,Al75,75,,,,,,,,,,,,,0,47,47,47,,,,,,,,,1,1.1815350577,3,0.483699896381,2018_may._25_1416,60.0063195383,Experimento Piloto1,001,126,
2.5,Stim\\02_019.jpg,Al19_27,Alegría,27,Claudia informa los avances en el reporte.,Afirmación,Al19,19,,,,,,,,,,,,,0,48,48,48,,,,,,,,,1,2.14650636841,3,0.400267570349,2018_may._25_1416,60.0063195383,Experimento Piloto1,001,126,
2.5,Stim\\03_028.jpg,Tr28_16,Tristeza,16,Valeria modifica algunas imágenes.,Afirmación,Tr28,28,,,,,,,,,,,,,0,49,49,49,,,,,,,,,1,4.30195867207,3,0.333912712091,2018_may._25_1416,60.0063195383,Experimento Piloto1,001,126,
2.5,Stim\\02_078.jpg,Al78_20,Alegría,20,Karen analiza la idea.,Afirmación,Al78,78,,,,,,,,,,,,,0,50,50,50,,,,,,,,,1,3.19182821591,3,1.51672894802,2018_may._25_1416,60.0063195383,Experimento Piloto1,001,126,
2.5,Stim\\05_075.jpg,En75_24,Enojo,24,Guadalupe comenta los resultados con los compañeros.,Afirmación,En75,75,,,,,,,,,,,,,0,51,51,51,,,,,,,,,1,1.79034194205,2,0.383736756473,2018_may._25_1416,60.0063195383,Experimento Piloto1,001,126,
0.25,Stim\\03_028.jpg,Tr28_26,Tristeza,26,Víctor trae el café a Marco.,Afirmación,Tr28,28,,,,,,,,,,,,,0,52,52,52,,,,,,,,,1,3.43887829298,4,0.433742423823,2018_may._25_1416,60.0063195383,Experimento Piloto1,001,126,
2.5,Stim\\03_028.jpg,Tr28_21,Tristeza,21,Mauro anuncia la actividad.,Afirmación,Tr28,28,,,,,,,,,,,,,0,53,53,53,,,,,,,,,1,1.70627103502,4,0.900042661317,2018_may._25_1416,60.0063195383,Experimento Piloto1,001,126,
2.5,Stim\\02_075.jpg,Al75_29,Alegría,29,Miriam mira la película.,Afirmación,Al75,75,,,,,,,,,,,,,0,54,54,54,,,,,,,,,1,1.17539513036,3,0.650306170808,2018_may._25_1416,60.0063195383,Experimento Piloto1,001,126,
0.25,Stim\\03_078.jpg,Tr78_26,Tristeza,26,Víctor trae el café a Marco.,Afirmación,Tr78,78,,,,,,,,,,,,,0,55,55,55,,,,,,,,,1,2.72240334936,4,0.449789951029,2018_may._25_1416,60.0063195383,Experimento Piloto1,001,126,
0.25,Stim\\05_019.jpg,En19_19,Enojo,19,Armando acompaña a Rodrígo a la tienda.,Afirmación,En19,19,,,,,,,,,,,,,0,56,56,56,,,,,,,,,1,2.13237904669,2,0.400219821805,2018_may._25_1416,60.0063195383,Experimento Piloto1,001,126,
0.25,Stim\\03_078.jpg,Tr78_19,Tristeza,19,Armando acompaña a Rodrígo a la tienda.,Afirmación,Tr78,78,,,,,,,,,,,,,0,57,57,57,,,,,,,,,1,1.94985911948,4,0.650259761008,2018_may._25_1416,60.0063195383,Experimento Piloto1,001,126,
2.5,Stim\\03_078.jpg,Tr78_18,Tristeza,18,Sofía escucha la música.,Afirmación,Tr78,78,,,,,,,,,,,,,0,58,58,58,,,,,,,,,1,1.39135911993,4,0.433725466396,2018_may._25_1416,60.0063195383,Experimento Piloto1,001,126,
2.5,Stim\\05_075.jpg,En75_26,Enojo,26,Víctor trae el café a Marco.,Afirmación,En75,75,,,,,,,,,,,,,0,59,59,59,,,,,,,,,1,1.1396046956,2,0.433766967468,2018_may._25_1416,60.0063195383,Experimento Piloto1,001,126,
2.5,Stim\\02_075.jpg,Al75_30,Alegría,30,Marisol toma 2 litros de agua cada día.,Afirmación,Al75,75,,,,,,,,,,,,,0,60,60,60,,,,,,,,,1,1.8480882286,3,0.900089963613,2018_may._25_1416,60.0063195383,Experimento Piloto1,001,126,
2.5,Stim\\03_019.jpg,Tr19_18,Tristeza,18,Sofía escucha la música.,Afirmación,Tr19,19,,,,,,,,,,,,,0,61,61,61,,,,,,,,,1,1.09127692103,3,0.333709222966,2018_may._25_1416,60.0063195383,Experimento Piloto1,001,126,
0.25,Stim\\03_078.jpg,Tr78_23,Tristeza,23,Óscar consigue un nuevo departamento.,Afirmación,Tr78,78,,,,,,,,,,,,,0,62,62,62,,,,,,,,,1,2.34958360592,3,0.450323663732,2018_may._25_1416,60.0063195383,Experimento Piloto1,001,126,
2.5,Stim\\03_019.jpg,Tr19_25,Tristeza,25,Luis decide la comida siguiente.,Afirmación,Tr19,19,,,,,,,,,,,,,0,63,63,63,,,,,,,,,1,1.58611650823,3,0.383835377298,2018_may._25_1416,60.0063195383,Experimento Piloto1,001,126,
0.25,Stim\\02_028.jpg,Al28_29,Alegría,29,Miriam mira la película.,Afirmación,Al28,28,,,,,,,,,,,,,0,64,64,64,,,,,,,,,1,1.02445127105,3,0.300289704253,2018_may._25_1416,60.0063195383,Experimento Piloto1,001,126,
2.5,Stim\\02_019.jpg,Al19_21,Alegría,21,Mauro anuncia la actividad.,Afirmación,Al19,19,,,,,,,,,,,,,0,65,65,65,,,,,,,,,1,1.58936430176,3,0.800281671788,2018_may._25_1416,60.0063195383,Experimento Piloto1,001,126,
2.5,Stim\\02_078.jpg,Al78_25,Alegría,25,Luis decide la comida siguiente.,Afirmación,Al78,78,,,,,,,,,,,,,0,66,66,66,,,,,,,,,1,3.95066816725,3,0.800166093535,2018_may._25_1416,60.0063195383,Experimento Piloto1,001,126,
2.5,Stim\\05_075.jpg,En75_29,Enojo,29,Miriam mira la película.,Afirmación,En75,75,,,,,,,,,,,,,0,67,67,67,,,,,,,,,1,0.874108507898,2,0.433786602382,2018_may._25_1416,60.0063195383,Experimento Piloto1,001,126,
0.25,Stim\\03_028.jpg,Tr28_20,Tristeza,20,Karen analiza la idea.,Afirmación,Tr28,28,,,,,,,,,,,,,0,68,68,68,,,,,,,,,1,3.79186320176,3,0.866885090227,2018_may._25_1416,60.0063195383,Experimento Piloto1,001,126,
2.5,Stim\\02_075.jpg,Al75_26,Alegría,26,Víctor trae el café a Marco.,Afirmación,Al75,75,,,,,,,,,,,,,0,69,69,69,,,,,,,,,1,1.63953195716,3,0.850116872372,2018_may._25_1416,60.0063195383,Experimento Piloto1,001,126,
0.25,Stim\\05_019.jpg,En19_20,Enojo,20,Karen analiza la idea.,Afirmación,En19,19,,,,,,,,,,,,,0,70,70,70,,,,,,,,,1,1.94199087333,2,0.450275915188,2018_may._25_1416,60.0063195383,Experimento Piloto1,001,126,
0.25,Stim\\05_028.jpg,En28_22,Enojo,22,Enrique corre todas las mañanas.,Afirmación,En28,28,,,,,,,,,,,,,0,71,71,71,,,,,,,,,1,1.53377294719,2,0.500233387746,2018_may._25_1416,60.0063195383,Experimento Piloto1,001,126,
2.5,Stim\\05_028.jpg,En28_22,Enojo,22,Enrique corre todas las mañanas.,Afirmación,En28,28,,,,,,,,,,,,,0,72,72,72,,,,,,,,,1,1.08335021639,2,0.333816322505,2018_may._25_1416,60.0063195383,Experimento Piloto1,001,126,
0.25,Stim\\05_019.jpg,En19_17,Enojo,17,Brenda sube el autobús en las mañanas.,Afirmación,En19,19,,,,,,,,,,,,,0,73,73,73,,,,,,,,,1,0.965049404124,2,0.300034450352,2018_may._25_1416,60.0063195383,Experimento Piloto1,001,126,
2.5,Stim\\05_078.jpg,En78_26,Enojo,26,Víctor trae el café a Marco.,Afirmación,En78,78,,,,,,,,,,,,,0,74,74,74,,,,,,,,,1,1.07223863919,2,0.333765896473,2018_may._25_1416,60.0063195383,Experimento Piloto1,001,126,
2.5,Stim\\03_078.jpg,Tr78_29,Tristeza,29,Miriam mira la película.,Afirmación,Tr78,78,,,,,,,,,,,,,0,75,75,75,,,,,,,,,1,1.65857202399,4,0.483509348452,2018_may._25_1416,60.0063195383,Experimento Piloto1,001,126,
0.25,Stim\\02_075.jpg,Al75_22,Alegría,22,Enrique corre todas las mañanas.,Afirmación,Al75,75,,,,,,,,,,,,,0,76,76,76,,,,,,,,,1,1.43566843054,3,0.449949707841,2018_may._25_1416,60.0063195383,Experimento Piloto1,001,126,
2.5,Stim\\02_019.jpg,Al19_23,Alegría,23,Óscar consigue un nuevo departamento.,Afirmación,Al19,19,,,,,,,,,,,,,0,77,77,77,,,,,,,,,1,2.24869227,3,0.333637823273,2018_may._25_1416,60.0063195383,Experimento Piloto1,001,126,
0.25,Stim\\05_075.jpg,En75_21,Enojo,21,Mauro anuncia la actividad.,Afirmación,En75,75,,,,,,,,,,,,,0,78,78,78,,,,,,,,,1,1.07352918864,2,0.400325136351,2018_may._25_1416,60.0063195383,Experimento Piloto1,001,126,
0.25,Stim\\02_078.jpg,Al78_25,Alegría,25,Luis decide la comida siguiente.,Afirmación,Al78,78,,,,,,,,,,,,,0,79,79,79,,,,,,,,,1,1.83541746062,3,0.333867194787,2018_may._25_1416,60.0063195383,Experimento Piloto1,001,126,
0.25,Stim\\03_078.jpg,Tr78_22,Tristeza,22,Enrique corre todas las mañanas.,Afirmación,Tr78,78,,,,,,,,,,,,,0,80,80,80,,,,,,,,,1,2.05353013469,3,2.18309915722,2018_may._25_1416,60.0063195383,Experimento Piloto1,001,126,
0.25,Stim\\05_028.jpg,En28_26,Enojo,26,Víctor trae el café a Marco.,Afirmación,En28,28,,,,,,,,,,,,,0,81,81,81,,,,,,,,,1,0.922469304826,2,0.43384996961,2018_may._25_1416,60.0063195383,Experimento Piloto1,001,126,
2.5,Stim\\05_019.jpg,En19_29,Enojo,29,Miriam mira la película.,Afirmación,En19,19,,,,,,,,,,,,,0,82,82,82,,,,,,,,,1,0.772412586694,2,0.400413939719,2018_may._25_1416,60.0063195383,Experimento Piloto1,001,126,
0.25,Stim\\02_019.jpg,Al19_21,Alegría,21,Mauro anuncia la actividad.,Afirmación,Al19,19,,,,,,,,,,,,,0,83,83,83,,,,,,,,,1,0.971710549215,3,0.333982326792,2018_may._25_1416,60.0063195383,Experimento Piloto1,001,126,
2.5,Stim\\05_078.jpg,En78_30,Enojo,30,Marisol toma 2 litros de agua cada día.,Afirmación,En78,78,,,,,,,,,,,,,0,84,84,84,,,,,,,,,1,1.78250270203,2,0.500535943944,2018_may._25_1416,60.0063195383,Experimento Piloto1,001,126,
0.25,Stim\\02_078.jpg,Al78_30,Alegría,30,Marisol toma 2 litros de agua cada día.,Afirmación,Al78,78,,,,,,,,,,,,,0,85,85,85,,,,,,,,,1,1.13349243565,3,0.350409611113,2018_may._25_1416,60.0063195383,Experimento Piloto1,001,126,
0.25,Stim\\03_075.jpg,Tr75_16,Tristeza,16,Valeria modifica algunas imágenes.,Afirmación,Tr75,75,,,,,,,,,,,,,0,86,86,86,,,,,,,,,1,2.08561894162,2,1.16699629525,2018_may._25_1416,60.0063195383,Experimento Piloto1,001,126,
0.25,Stim\\02_019.jpg,Al19_24,Alegría,24,Guadalupe comenta los resultados con los compañeros.,Afirmación,Al19,19,,,,,,,,,,,,,0,87,87,87,,,,,,,,,1,2.02429686921,3,0.350329286458,2018_may._25_1416,60.0063195383,Experimento Piloto1,001,126,
2.5,Stim\\02_028.jpg,Al28_29,Alegría,29,Miriam mira la película.,Afirmación,Al28,28,,,,,,,,,,,,,0,88,88,88,,,,,,,,,1,1.2242293965,3,0.500421258188,2018_may._25_1416,60.0063195383,Experimento Piloto1,001,126,
0.25,Stim\\03_019.jpg,Tr19_25,Tristeza,25,Luis decide la comida siguiente.,Afirmación,Tr19,19,,,,,,,,,,,,,0,89,89,89,,,,,,,,,1,1.11982341071,3,0.450395509673,2018_may._25_1416,60.0063195383,Experimento Piloto1,001,126,
0.25,Stim\\03_075.jpg,Tr75_25,Tristeza,25,Luis decide la comida siguiente.,Afirmación,Tr75,75,,,,,,,,,,,,,0,90,90,90,,,,,,,,,1,1.08348721455,3,0.383606898282,2018_may._25_1416,60.0063195383,Experimento Piloto1,001,126,
2.5,Stim\\03_078.jpg,Tr78_25,Tristeza,25,Luis decide la comida siguiente.,Afirmación,Tr78,78,,,,,,,,,,,,,0,91,91,91,,,,,,,,,1,2.16652327228,3,0.450256726521,2018_may._25_1416,60.0063195383,Experimento Piloto1,001,126,
2.5,Stim\\02_019.jpg,Al19_18,Alegría,18,Sofía escucha la música.,Afirmación,Al19,19,,,,,,,,,,,,,0,92,92,92,,,,,,,,,1,1.3908307622,3,0.333704760485,2018_may._25_1416,60.0063195383,Experimento Piloto1,001,126,
2.5,Stim\\03_028.jpg,Tr28_19,Tristeza,19,Armando acompaña a Rodrígo a la tienda.,Afirmación,Tr28,28,,,,,,,,,,,,,0,93,93,93,,,,,,,,,1,3.38119358866,2,0.400405907254,2018_may._25_1416,60.0063195383,Experimento Piloto1,001,126,
0.25,Stim\\03_078.jpg,Tr78_18,Tristeza,18,Sofía escucha la música.,Afirmación,Tr78,78,,,,,,,,,,,,,0,94,94,94,,,,,,,,,1,1.8916799723,3,0.283624123457,2018_may._25_1416,60.0063195383,Experimento Piloto1,001,126,
0.25,Stim\\05_019.jpg,En19_29,Enojo,29,Miriam mira la película.,Afirmación,En19,19,,,,,,,,,,,,,0,95,95,95,,,,,,,,,1,1.53903688954,2,0.450315631268,2018_may._25_1416,60.0063195383,Experimento Piloto1,001,126,
2.5,Stim\\03_078.jpg,Tr78_24,Tristeza,24,Guadalupe comenta los resultados con los compañeros.,Afirmación,Tr78,78,,,,,,,,,,,,,0,96,96,96,,,,,,,,,1,2.23094587636,4,0.383556918497,2018_may._25_1416,60.0063195383,Experimento Piloto1,001,126,
2.5,Stim\\05_019.jpg,En19_22,Enojo,22,Enrique corre todas las mañanas.,Afirmación,En19,19,,,,,,,,,,,,,0,97,97,97,,,,,,,,,1,1.28687147074,2,0.399963675406,2018_may._25_1416,60.0063195383,Experimento Piloto1,001,126,
0.25,Stim\\02_028.jpg,Al28_20,Alegría,20,Karen analiza la idea.,Afirmación,Al28,28,,,,,,,,,,,,,0,98,98,98,,,,,,,,,1,1.42660066955,3,0.450258065265,2018_may._25_1416,60.0063195383,Experimento Piloto1,001,126,
2.5,Stim\\03_078.jpg,Tr78_27,Tristeza,27,Claudia informa los avances en el reporte.,Afirmación,Tr78,78,,,,,,,,,,,,,0,99,99,99,,,,,,,,,1,1.98052037881,4,0.400302377699,2018_may._25_1416,60.0063195383,Experimento Piloto1,001,126,
0.25,Stim\\03_075.jpg,Tr75_17,Tristeza,17,Brenda sube el autobús en las mañanas.,Afirmación,Tr75,75,,,,,,,,,,,,,0,100,100,100,,,,,,,,,1,1.732190016,4,0.333581596015,2018_may._25_1416,60.0063195383,Experimento Piloto1,001,126,
2.5,Stim\\05_028.jpg,En28_25,Enojo,25,Luis decide la comida siguiente.,Afirmación,En28,28,,,,,,,,,,,,,0,101,101,101,,,,,,,,,1,1.48632829757,2,0.399823553509,2018_may._25_1416,60.0063195383,Experimento Piloto1,001,126,
2.5,Stim\\02_028.jpg,Tr28_30,Tristeza,30,Marisol toma 2 litros de agua cada día.,Afirmación,Tr28,28,,,,,,,,,,,,,0,102,102,102,,,,,,,,,1,1.28250091704,3,0.333227721288,2018_may._25_1416,60.0063195383,Experimento Piloto1,001,126,
0.25,Stim\\02_078.jpg,Al78_18,Alegría,18,Sofía escucha la música.,Afirmación,Al78,78,,,,,,,,,,,,,0,103,103,103,,,,,,,,,1,1.12489992887,3,0.400415278464,2018_may._25_1416,60.0063195383,Experimento Piloto1,001,126,
0.25,Stim\\02_078.jpg,Al78_24,Alegría,24,Guadalupe comenta los resultados con los compañeros.,Afirmación,Al78,78,,,,,,,,,,,,,0,104,104,104,,,,,,,,,1,1.00714800175,3,0.383594849583,2018_may._25_1416,60.0063195383,Experimento Piloto1,001,126,
0.25,Stim\\05_075.jpg,En75_26,Enojo,26,Víctor trae el café a Marco.,Afirmación,En75,75,,,,,,,,,,,,,0,105,105,105,,,,,,,,,1,1.68835328211,2,0.449990316417,2018_may._25_1416,60.0063195383,Experimento Piloto1,001,126,
0.25,Stim\\05_019.jpg,En19_16,Enojo,16,Valeria modifica algunas imágenes.,Afirmación,En19,19,,,,,,,,,,,,,0,106,106,106,,,,,,,,,1,2.95123936479,2,0.400401891021,2018_may._25_1416,60.0063195383,Experimento Piloto1,001,126,
2.5,Stim\\05_019.jpg,En19_21,Enojo,21,Mauro anuncia la actividad.,Afirmación,En19,19,,,,,,,,,,,,,0,107,107,107,,,,,,,,,1,0.973324628521,2,0.350410057361,2018_may._25_1416,60.0063195383,Experimento Piloto1,001,126,
0.25,Stim\\03_028.jpg,Tr28_22,Tristeza,22,Enrique corre todas las mañanas.,Afirmación,Tr28,28,,,,,,,,,,,,,0,108,108,108,,,,,,,,,1,2.08581529078,4,0.50025570015,2018_may._25_1416,60.0063195383,Experimento Piloto1,001,126,
2.5,Stim\\05_075.jpg,En75_28,Enojo,28,Antonio responde la pregunta.,Afirmación,En75,75,,,,,,,,,,,,,0,109,109,109,,,,,,,,,1,0.922012793039,2,0.700250255923,2018_may._25_1416,60.0063195383,Experimento Piloto1,001,126,
2.5,Stim\\05_078.jpg,En78_28,Enojo,28,Antonio responde la pregunta.,Afirmación,En78,78,,,,,,,,,,,,,0,110,110,110,,,,,,,,,1,1.15039854416,2,0.383826898586,2018_may._25_1416,60.0063195383,Experimento Piloto1,001,126,
2.5,Stim\\03_028.jpg,Tr28_26,Tristeza,26,Víctor trae el café a Marco.,Afirmación,Tr28,28,,,,,,,,,,,,,0,111,111,111,,,,,,,,,1,1.3893077175,4,0.450411128356,2018_may._25_1416,60.0063195383,Experimento Piloto1,001,126,
2.5,Stim\\05_028.jpg,En28_20,Enojo,20,Karen analiza la idea.,Afirmación,En28,28,,,,,,,,,,,,,0,112,112,112,,,,,,,,,1,1.79268831446,2,0.40033227632,2018_may._25_1416,60.0063195383,Experimento Piloto1,001,126,
2.5,Stim\\02_019.jpg,Al19_30,Alegría,30,Marisol toma 2 litros de agua cada día.,Afirmación,Al19,19,,,,,,,,,,,,,0,113,113,113,,,,,,,,,1,1.26414539476,3,0.400351911236,2018_may._25_1416,60.0063195383,Experimento Piloto1,001,126,
2.5,Stim\\05_078.jpg,En78_23,Enojo,23,Óscar consigue un nuevo departamento.,Afirmación,En78,78,,,,,,,,,,,,,0,114,114,114,,,,,,,,,1,1.0160836733,2,0.400315765141,2018_may._25_1416,60.0063195383,Experimento Piloto1,001,126,
0.25,Stim\\05_078.jpg,En78_23,Enojo,23,Óscar consigue un nuevo departamento.,Afirmación,En78,78,,,,,,,,,,,,,0,115,115,115,,,,,,,,,1,1.01658748738,2,0.350330625202,2018_may._25_1416,60.0063195383,Experimento Piloto1,001,126,
2.5,Stim\\05_019.jpg,En19_19,Enojo,19,Armando acompaña a Rodrígo a la tienda.,Afirmación,En19,19,,,,,,,,,,,,,0,116,116,116,,,,,,,,,1,0.915821547178,2,0.400336292553,2018_may._25_1416,60.0063195383,Experimento Piloto1,001,126,
2.5,Stim\\03_078.jpg,Tr78_17,Tristeza,17,Brenda sube el autobús en las mañanas.,Afirmación,Tr78,78,,,,,,,,,,,,,0,117,117,117,,,,,,,,,1,2.95426805051,4,0.383722030286,2018_may._25_1416,60.0063195383,Experimento Piloto1,001,126,
0.25,Stim\\05_075.jpg,En75_20,Enojo,20,Karen analiza la idea.,Afirmación,En75,75,,,,,,,,,,,,,0,118,118,118,,,,,,,,,1,0.876159464074,2,0.450349992369,2018_may._25_1416,60.0063195383,Experimento Piloto1,001,126,
0.25,Stim\\05_078.jpg,En78_28,Enojo,28,Antonio responde la pregunta.,Afirmación,En78,78,,,,,,,,,,,,,0,119,119,119,,,,,,,,,1,0.971888155951,2,0.283773616564,2018_may._25_1416,60.0063195383,Experimento Piloto1,001,126,
