Tiempo,ImagenesE,ClaveEn,Emocion,NumEn,Enunciado,ActoHabla,Clave,Cara,trials.thisRepN,trials.thisTrialN,trials.thisN,trials.thisIndex,Bloque1.thisRepN,Bloque1.thisTrialN,Bloque1.thisN,Bloque1.thisIndex,Bloque3.thisRepN,Bloque3.thisTrialN,Bloque3.thisN,Bloque3.thisIndex,Bloque2.thisRepN,Bloque2.thisTrialN,Bloque2.thisN,Bloque2.thisIndex,Sig_B1.keys,Sig_B1.rt,Resp_Bloque1.keys,Resp_Bloque1.rt,Sig_B3.keys,Sig_B3.rt,Resp_Bloque3.keys,Resp_Bloque3.rt,Sig_B2.keys,Sig_B2.rt,Resp_Bloque2.keys,Resp_Bloque2.rt,date,frameRate,expName,session,participant,
2.5,Stim\\05_028.jpg,En28_16,Enojo,16,Valeria modifica algunas imágenes.,Afirmación,En28,28,,,,,0,0,0,0,,,,,,,,,1,6.79832755145,2,0.850334641435,,,,,,,,,2018_may._25_1529,60.0116225511,Experimento Piloto1,001,127,
2.5,Stim\\05_028.jpg,En28_29,Enojo,29,Miriam mira la película.,Afirmación,En28,28,,,,,0,1,1,1,,,,,,,,,1,2.77395660505,2,2.13306136,,,,,,,,,2018_may._25_1529,60.0116225511,Experimento Piloto1,001,127,
0.25,Stim\\03_028.jpg,Tr28_29,Tristeza,29,Miriam mira la película.,Afirmación,Tr28,28,,,,,0,2,2,2,,,,,,,,,1,1.89989272196,4,0.966742469342,,,,,,,,,2018_may._25_1529,60.0116225511,Experimento Piloto1,001,127,
2.5,Stim\\02_075.jpg,Al75_22,Alegría,22,Enrique corre todas las mañanas.,Afirmación,Al75,75,,,,,0,3,3,3,,,,,,,,,1,3.68392739365,3,0.850223971911,,,,,,,,,2018_may._25_1529,60.0116225511,Experimento Piloto1,001,127,
2.5,Stim\\05_019.jpg,En19_17,Enojo,17,Brenda sube el autobús en las mañanas.,Afirmación,En19,19,,,,,0,4,4,4,,,,,,,,,1,5.99474319762,2,7.21484792312,,,,,,,,,2018_may._25_1529,60.0116225511,Experimento Piloto1,001,127,
2.5,Stim\\02_028.jpg,Al28_17,Alegría,17,Brenda sube el autobús en las mañanas.,Afirmación,Al28,28,,,,,0,5,5,5,,,,,,,,,1,0.833511981315,3,2.08314047979,,,,,,,,,2018_may._25_1529,60.0116225511,Experimento Piloto1,001,127,
0.25,Stim\\05_075.jpg,En75_24,Enojo,24,Guadalupe comenta los resultados con los compañeros.,Afirmación,En75,75,,,,,0,6,6,6,,,,,,,,,1,2.78995549122,2,1.63333937256,,,,,,,,,2018_may._25_1529,60.0116225511,Experimento Piloto1,001,127,
2.5,Stim\\03_078.jpg,Tr78_23,Tristeza,23,Óscar consigue un nuevo departamento.,Afirmación,Tr78,78,,,,,0,7,7,7,,,,,,,,,1,2.34804583503,4,1.68331291005,,,,,,,,,2018_may._25_1529,60.0116225511,Experimento Piloto1,001,127,
0.25,Stim\\05_075.jpg,En75_16,Enojo,16,Valeria modifica algunas imágenes.,Afirmación,En75,75,,,,,0,8,8,8,,,,,,,,,1,2.084194964,2,1.88315306398,,,,,,,,,2018_may._25_1529,60.0116225511,Experimento Piloto1,001,127,
0.25,Stim\\02_078.jpg,Al78_23,Alegría,23,Óscar consigue un nuevo departamento.,Afirmación,Al78,78,,,,,0,9,9,9,,,,,,,,,1,1.09944638463,3,0.550421124313,,,,,,,,,2018_may._25_1529,60.0116225511,Experimento Piloto1,001,127,
2.5,Stim\\05_078.jpg,En78_24,Enojo,24,Guadalupe comenta los resultados con los compañeros.,Afirmación,En78,78,,,,,0,10,10,10,,,,,,,,,1,2.14067078226,2,0.650144182755,,,,,,,,,2018_may._25_1529,60.0116225511,Experimento Piloto1,001,127,
2.5,Stim\\03_028.jpg,Tr28_28,Tristeza,28,Antonio responde la pregunta.,Afirmación,Tr28,28,,,,,0,11,11,11,,,,,,,,,1,2.35424689835,4,0.850253870532,,,,,,,,,2018_may._25_1529,60.0116225511,Experimento Piloto1,001,127,
0.25,Stim\\02_019.jpg,Al19_20,Alegría,20,Karen analiza la idea.,Afirmación,Al19,19,,,,,0,12,12,12,,,,,,,,,1,2.25680639884,3,2.44945794246,,,,,,,,,2018_may._25_1529,60.0116225511,Experimento Piloto1,001,127,
2.5,Stim\\05_078.jpg,En78_27,Enojo,27,Claudia informa los avances en el reporte.,Afirmación,En78,78,,,,,0,13,13,13,,,,,,,,,1,0.125328773272,2,4.14903793376,,,,,,,,,2018_may._25_1529,60.0116225511,Experimento Piloto1,001,127,
0.25,Stim\\05_028.jpg,En28_28,Enojo,28,Antonio responde la pregunta.,Afirmación,En28,28,,,,,0,14,14,14,,,,,,,,,1,2.03762406812,2,1.26689339044,,,,,,,,,2018_may._25_1529,60.0116225511,Experimento Piloto1,001,127,
2.5,Stim\\03_078.jpg,Tr78_30,Tristeza,30,Marisol toma 2 litros de agua cada día.,Afirmación,Tr78,78,,,,,0,15,15,15,,,,,,,,,1,3.52806721924,4,0.75025904701,,,,,,,,,2018_may._25_1529,60.0116225511,Experimento Piloto1,001,127,
0.25,Stim\\03_028.jpg,Tr28_27,Tristeza,27,Claudia informa los avances en el reporte.,Afirmación,Tr28,28,,,,,0,16,16,16,,,,,,,,,1,3.67913647427,4,0.800174126001,,,,,,,,,2018_may._25_1529,60.0116225511,Experimento Piloto1,001,127,
0.25,Stim\\02_075.jpg,Al75_24,Alegría,24,Guadalupe comenta los resultados con los compañeros.,Afirmación,Al75,75,,,,,0,17,17,17,,,,,,,,,1,3.10754846477,3,3.63259503076,,,,,,,,,2018_may._25_1529,60.0116225511,Experimento Piloto1,001,127,
0.25,Stim\\02_019.jpg,Al19_16,Alegría,16,Valeria modifica algunas imágenes.,Afirmación,Al19,19,,,,,0,18,18,18,,,,,,,,,1,1.51529872293,3,3.98255482381,,,,,,,,,2018_may._25_1529,60.0116225511,Experimento Piloto1,001,127,
2.5,Stim\\02_028.jpg,Al28_30,Alegría,30,Marisol toma 2 litros de agua cada día.,Afirmación,Al28,28,,,,,0,19,19,19,,,,,,,,,1,1.74871279741,3,0.800208933351,,,,,,,,,2018_may._25_1529,60.0116225511,Experimento Piloto1,001,127,
2.5,Stim\\05_078.jpg,En78_16,Enojo,16,Valeria modifica algunas imágenes.,Afirmación,En78,78,,,,,0,20,20,20,,,,,,,,,1,2.34885622155,2,0.900224284285,,,,,,,,,2018_may._25_1529,60.0116225511,Experimento Piloto1,001,127,
0.25,Stim\\02_075.jpg,Al75_28,Alegría,28,Antonio responde la pregunta.,Afirmación,Al75,75,,,,,0,21,21,21,,,,,,,,,1,1.73764450628,2,2.76599063057,,,,,,,,,2018_may._25_1529,60.0116225511,Experimento Piloto1,001,127,
2.5,Stim\\03_075.jpg,Tr75_17,Tristeza,17,Brenda sube el autobús en las mañanas.,Afirmación,Tr75,75,,,,,0,22,22,22,,,,,,,,,1,2.91531862559,3,2.69963130984,,,,,,,,,2018_may._25_1529,60.0116225511,Experimento Piloto1,001,127,
0.25,Stim\\05_075.jpg,En75_18,Enojo,18,Sofía escucha la música.,Afirmación,En75,75,,,,,0,23,23,23,,,,,,,,,1,1.6739568728,4,0.966817439019,,,,,,,,,2018_may._25_1529,60.0116225511,Experimento Piloto1,001,127,
2.5,Stim\\02_075.jpg,Al75_25,Alegría,25,Luis decide la comida siguiente.,Afirmación,Al75,75,,,,,0,24,24,24,,,,,,,,,1,2.7136783069,3,1.61656490723,,,,,,,,,2018_may._25_1529,60.0116225511,Experimento Piloto1,001,127,
0.25,Stim\\02_028.jpg,Al28_18,Alegría,18,Sofía escucha la música.,Afirmación,Al28,28,,,,,0,25,25,25,,,,,,,,,1,1.02253865178,3,0.900082823644,,,,,,,,,2018_may._25_1529,60.0116225511,Experimento Piloto1,001,127,
0.25,Stim\\02_028.jpg,Al28_23,Alegría,23,Óscar consigue un nuevo departamento.,Afirmación,Al28,28,,,,,0,26,26,26,,,,,,,,,1,1.28319974153,3,0.850332856442,,,,,,,,,2018_may._25_1529,60.0116225511,Experimento Piloto1,001,127,
0.25,Stim\\02_075.jpg,Al75_19,Alegría,19,Armando acompaña a Rodrígo a la tienda.,Afirmación,Al75,75,,,,,0,27,27,27,,,,,,,,,1,1.98147267221,3,1.63319612692,,,,,,,,,2018_may._25_1529,60.0116225511,Experimento Piloto1,001,127,
2.5,Stim\\05_019.jpg,En19_16,Enojo,16,Valeria modifica algunas imágenes.,Afirmación,En19,19,,,,,0,28,28,28,,,,,,,,,1,1.83403676906,2,1.88363099568,,,,,,,,,2018_may._25_1529,60.0116225511,Experimento Piloto1,001,127,
2.5,Stim\\02_019.jpg,Al19_25,Alegría,25,Luis decide la comida siguiente.,Afirmación,Al19,19,,,,,0,29,29,29,,,,,,,,,1,3.48448261551,3,1.83318755896,,,,,,,,,2018_may._25_1529,60.0116225511,Experimento Piloto1,001,127,
0.25,Stim\\02_078.jpg,Al78_27,Alegría,27,Claudia informa los avances en el reporte.,Afirmación,Al78,78,,,,,0,30,30,30,,,,,,,,,1,1.41355282194,3,1.93314489764,,,,,,,,,2018_may._25_1529,60.0116225511,Experimento Piloto1,001,127,
0.25,Stim\\03_019.jpg,Tr19_22,Tristeza,22,Enrique corre todas las mañanas.,Afirmación,Tr19,19,,,,,0,31,31,31,,,,,,,,,1,1.93612047984,2,3.01648931281,,,,,,,,,2018_may._25_1529,60.0116225511,Experimento Piloto1,001,127,
2.5,Stim\\05_019.jpg,En19_26,Enojo,26,Víctor trae el café a Marco.,Afirmación,En19,19,,,,,0,32,32,32,,,,,,,,,1,1.68635810694,2,1.2666934713,,,,,,,,,2018_may._25_1529,60.0116225511,Experimento Piloto1,001,127,
2.5,Stim\\02_078.jpg,Al78_26,Alegría,26,Víctor trae el café a Marco.,Afirmación,Al78,78,,,,,0,33,33,33,,,,,,,,,1,1.54985662049,3,2.7495990461,,,,,,,,,2018_may._25_1529,60.0116225511,Experimento Piloto1,001,127,
0.25,Stim\\05_078.jpg,En78_17,Enojo,17,Brenda sube el autobús en las mañanas.,Afirmación,En78,78,,,,,0,34,34,34,,,,,,,,,1,1.93169816137,4,2.64974702196,,,,,,,,,2018_may._25_1529,60.0116225511,Experimento Piloto1,001,127,
0.25,Stim\\05_078.jpg,En78_21,Enojo,21,Mauro anuncia la actividad.,Afirmación,En78,78,,,,,0,35,35,35,,,,,,,,,1,2.50436430622,4,1.06676897648,,,,,,,,,2018_may._25_1529,60.0116225511,Experimento Piloto1,001,127,
2.5,Stim\\03_078.jpg,Tr78_20,Tristeza,20,Karen analiza la idea.,Afirmación,Tr78,78,,,,,0,36,36,36,,,,,,,,,1,1.02548656659,4,0.700272568327,,,,,,,,,2018_may._25_1529,60.0116225511,Experimento Piloto1,001,127,
0.25,Stim\\03_078.jpg,Tr78_28,Tristeza,28,Antonio responde la pregunta.,Afirmación,Tr78,78,,,,,0,37,37,37,,,,,,,,,1,1.22080444249,4,1.633178277,,,,,,,,,2018_may._25_1529,60.0116225511,Experimento Piloto1,001,127,
2.5,Stim\\03_028.jpg,Tr28_17,Tristeza,17,Brenda sube el autobús en las mañanas.,Afirmación,Tr28,28,,,,,0,38,38,38,,,,,,,,,1,1.99867018072,4,2.74948926907,,,,,,,,,2018_may._25_1529,60.0116225511,Experimento Piloto1,001,127,
0.25,Stim\\02_028.jpg,Al28_27,Alegría,27,Claudia informa los avances en el reporte.,Afirmación,Al28,28,,,,,0,39,39,39,,,,,,,,,1,1.0641370053,3,2.13300513275,,,,,,,,,2018_may._25_1529,60.0116225511,Experimento Piloto1,001,127,
2.5,Stim\\02_019.jpg,Al19_28,Alegría,28,Antonio responde la pregunta.,Afirmación,Al19,19,,,,,0,40,40,40,,,,,,,,,1,1.17127402934,3,2.08324757933,,,,,,,,,2018_may._25_1529,60.0116225511,Experimento Piloto1,001,127,
0.25,Stim\\02_019.jpg,Al19_17,Alegría,17,Brenda sube el autobús en las mañanas.,Afirmación,Al19,19,,,,,0,41,41,41,,,,,,,,,1,1.28221710326,3,1.66665223798,,,,,,,,,2018_may._25_1529,60.0116225511,Experimento Piloto1,001,127,
2.5,Stim\\03_075.jpg,Tr75_21,Tristeza,21,Mauro anuncia la actividad.,Afirmación,Tr75,75,,,,,0,42,42,42,,,,,,,,,1,2.05621431689,4,2.54964777639,,,,,,,,,2018_may._25_1529,60.0116225511,Experimento Piloto1,001,127,
0.25,Stim\\03_075.jpg,Tr75_26,Tristeza,26,Víctor trae el café a Marco.,Afirmación,Tr75,75,,,,,0,43,43,43,,,,,,,,,1,1.58845440192,4,1.15026288474,,,,,,,,,2018_may._25_1529,60.0116225511,Experimento Piloto1,001,127,
0.25,Stim\\02_075.jpg,Al75_18,Alegría,18,Sofía escucha la música.,Afirmación,Al75,75,,,,,0,44,44,44,,,,,,,,,1,1.3408358048,3,1.26647034726,,,,,,,,,2018_may._25_1529,60.0116225511,Experimento Piloto1,001,127,
2.5,Stim\\05_028.jpg,En28_27,Enojo,27,Claudia informa los avances en el reporte.,Afirmación,En28,28,,,,,0,45,45,45,,,,,,,,,1,1.46345362099,2,0.600375919383,,,,,,,,,2018_may._25_1529,60.0116225511,Experimento Piloto1,001,127,
0.25,Stim\\02_019.jpg,Al19_23,Alegría,23,Óscar consigue un nuevo departamento.,Afirmación,Al19,19,,,,,0,46,46,46,,,,,,,,,1,1.23237163897,3,1.81658043666,,,,,,,,,2018_may._25_1529,60.0116225511,Experimento Piloto1,001,127,
0.25,Stim\\03_075.jpg,Tr75_21,Tristeza,21,Mauro anuncia la actividad.,Afirmación,Tr75,75,,,,,0,47,47,47,,,,,,,,,1,2.77191457384,2,2.23313249195,,,,,,,,,2018_may._25_1529,60.0116225511,Experimento Piloto1,001,127,
0.25,Stim\\02_078.jpg,Al78_28,Alegría,28,Antonio responde la pregunta.,Afirmación,Al78,78,,,,,0,48,48,48,,,,,,,,,1,1.22130379409,2,3.26614235492,,,,,,,,,2018_may._25_1529,60.0116225511,Experimento Piloto1,001,127,
2.5,Stim\\03_075.jpg,Tr75_23,Tristeza,23,Óscar consigue un nuevo departamento.,Afirmación,Tr75,75,,,,,0,49,49,49,,,,,,,,,1,1.63374322707,4,0.399854344627,,,,,,,,,2018_may._25_1529,60.0116225511,Experimento Piloto1,001,127,
0.25,Stim\\02_078.jpg,Al78_22,Alegría,22,Enrique corre todas las mañanas.,Afirmación,Al78,78,,,,,0,50,50,50,,,,,,,,,1,1.36273766057,3,0.400369761159,,,,,,,,,2018_may._25_1529,60.0116225511,Experimento Piloto1,001,127,
2.5,Stim\\03_028.jpg,Tr28_23,Tristeza,23,Óscar consigue un nuevo departamento.,Afirmación,Tr28,28,,,,,0,51,51,51,,,,,,,,,1,2.24909166203,4,3.31601593284,,,,,,,,,2018_may._25_1529,60.0116225511,Experimento Piloto1,001,127,
0.25,Stim\\02_028.jpg,Al28_19,Alegría,19,Armando acompaña a Rodrígo a la tienda.,Afirmación,Al28,28,,,,,0,52,52,52,,,,,,,,,1,2.69660083912,3,2.96614271192,,,,,,,,,2018_may._25_1529,60.0116225511,Experimento Piloto1,001,127,
0.25,Stim\\03_028.jpg,Tr28_28,Tristeza,28,Antonio responde la pregunta.,Afirmación,Tr28,28,,,,,0,53,53,53,,,,,,,,,1,1.22176744585,4,1.61669298043,,,,,,,,,2018_may._25_1529,60.0116225511,Experimento Piloto1,001,127,
2.5,Stim\\05_075.jpg,En75_16,Enojo,16,Valeria modifica algunas imágenes.,Afirmación,En75,75,,,,,0,54,54,54,,,,,,,,,1,4.31706550832,2,1.56660832717,,,,,,,,,2018_may._25_1529,60.0116225511,Experimento Piloto1,001,127,
0.25,Stim\\03_019.jpg,Tr19_28,Tristeza,28,Antonio responde la pregunta.,Afirmación,Tr19,19,,,,,0,55,55,55,,,,,,,,,1,1.07172857764,2,2.84958182092,,,,,,,,,2018_may._25_1529,60.0116225511,Experimento Piloto1,001,127,
2.5,Stim\\03_019.jpg,Tr19_24,Tristeza,24,Guadalupe comenta los resultados con los compañeros.,Afirmación,Tr19,19,,,,,0,56,56,56,,,,,,,,,1,2.1906679709,3,2.79952572754,,,,,,,,,2018_may._25_1529,60.0116225511,Experimento Piloto1,001,127,
0.25,Stim\\03_019.jpg,Tr19_30,Tristeza,30,Marisol toma 2 litros de agua cada día.,Afirmación,Tr19,19,,,,,0,57,57,57,,,,,,,,,1,1.5814866844,3,0.700368065416,,,,,,,,,2018_may._25_1529,60.0116225511,Experimento Piloto1,001,127,
0.25,Stim\\02_075.jpg,Al75_23,Alegría,23,Óscar consigue un nuevo departamento.,Afirmación,Al75,75,,,,,0,58,58,58,,,,,,,,,1,3.5318777316,3,0.650390511695,,,,,,,,,2018_may._25_1529,60.0116225511,Experimento Piloto1,001,127,
2.5,Stim\\02_078.jpg,Al78_22,Alegría,22,Enrique corre todas las mañanas.,Afirmación,Al78,78,,,,,0,59,59,59,,,,,,,,,1,1.38672438737,3,0.483707928846,,,,,,,,,2018_may._25_1529,60.0116225511,Experimento Piloto1,001,127,
2.5,Stim\\05_075.jpg,En75_20,Enojo,20,Karen analiza la idea.,Afirmación,En75,75,,,,,0,60,60,60,,,,,,,,,1,1.54181701508,2,0.65038694171,,,,,,,,,2018_may._25_1529,60.0116225511,Experimento Piloto1,001,127,
2.5,Stim\\03_028.jpg,Tr28_18,Tristeza,18,Sofía escucha la música.,Afirmación,Tr28,28,,,,,0,61,61,61,,,,,,,,,1,2.47398239819,4,1.26674300484,,,,,,,,,2018_may._25_1529,60.0116225511,Experimento Piloto1,001,127,
0.25,Stim\\02_028.jpg,Al28_22,Alegría,22,Enrique corre todas las mañanas.,Afirmación,Al28,28,,,,,0,62,62,62,,,,,,,,,1,1.16532955867,3,1.21675518741,,,,,,,,,2018_may._25_1529,60.0116225511,Experimento Piloto1,001,127,
2.5,Stim\\03_075.jpg,Tr75_29,Tristeza,29,Miriam mira la película.,Afirmación,Tr75,75,,,,,0,63,63,63,,,,,,,,,1,1.84076485136,4,0.600220178801,,,,,,,,,2018_may._25_1529,60.0116225511,Experimento Piloto1,001,127,
2.5,Stim\\05_075.jpg,En75_19,Enojo,19,Armando acompaña a Rodrígo a la tienda.,Afirmación,En75,75,,,,,0,64,64,64,,,,,,,,,1,2.4478563581,2,0.750240304591,,,,,,,,,2018_may._25_1529,60.0116225511,Experimento Piloto1,001,127,
0.25,Stim\\05_078.jpg,En78_27,Enojo,27,Claudia informa los avances en el reporte.,Afirmación,En78,78,,,,,0,65,65,65,,,,,,,,,1,2.61124473762,2,0.483665089032,,,,,,,,,2018_may._25_1529,60.0116225511,Experimento Piloto1,001,127,
0.25,Stim\\02_075.jpg,Al75_29,Alegría,29,Miriam mira la película.,Afirmación,Al75,75,,,,,0,66,66,66,,,,,,,,,1,1.33942298338,3,0.650240126091,,,,,,,,,2018_may._25_1529,60.0116225511,Experimento Piloto1,001,127,
2.5,Stim\\03_075.jpg,Tr75_19,Tristeza,19,Armando acompaña a Rodrígo a la tienda.,Afirmación,Tr75,75,,,,,0,67,67,67,,,,,,,,,1,1.8319237844,2,0.500394929551,,,,,,,,,2018_may._25_1529,60.0116225511,Experimento Piloto1,001,127,
2.5,Stim\\03_028.jpg,Tr28_22,Tristeza,22,Enrique corre todas las mañanas.,Afirmación,Tr28,28,,,,,0,68,68,68,,,,,,,,,1,2.40251487568,4,1.5332597619,,,,,,,,,2018_may._25_1529,60.0116225511,Experimento Piloto1,001,127,
0.25,Stim\\03_078.jpg,Tr78_25,Tristeza,25,Luis decide la comida siguiente.,Afirmación,Tr78,78,,,,,0,69,69,69,,,,,,,,,1,1.88537537942,4,1.05022566765,,,,,,,,,2018_may._25_1529,60.0116225511,Experimento Piloto1,001,127,
2.5,Stim\\02_028.jpg,Al28_19,Alegría,19,Armando acompaña a Rodrígo a la tienda.,Afirmación,Al28,28,,,,,0,70,70,70,,,,,,,,,1,1.69775394417,3,1.0003953758,,,,,,,,,2018_may._25_1529,60.0116225511,Experimento Piloto1,001,127,
0.25,Stim\\02_075.jpg,Al75_25,Alegría,25,Luis decide la comida siguiente.,Afirmación,Al75,75,,,,,0,71,71,71,,,,,,,,,1,2.35014677099,3,1.21657177945,,,,,,,,,2018_may._25_1529,60.0116225511,Experimento Piloto1,001,127,
2.5,Stim\\02_019.jpg,Al19_24,Alegría,24,Guadalupe comenta los resultados con los compañeros.,Afirmación,Al19,19,,,,,0,72,72,72,,,,,,,,,1,2.09053034799,3,0.950099647198,,,,,,,,,2018_may._25_1529,60.0116225511,Experimento Piloto1,001,127,
0.25,Stim\\03_028.jpg,Tr28_23,Tristeza,23,Óscar consigue un nuevo departamento.,Afirmación,Tr28,28,,,,,0,73,73,73,,,,,,,,,1,1.58339751868,4,1.56688232349,,,,,,,,,2018_may._25_1529,60.0116225511,Experimento Piloto1,001,127,
0.25,Stim\\03_028.jpg,Tr28_25,Tristeza,25,Luis decide la comida siguiente.,Afirmación,Tr28,28,,,,,0,74,74,74,,,,,,,,,1,41.7217603059,3,1.83303271088,,,,,,,,,2018_may._25_1529,60.0116225511,Experimento Piloto1,001,127,
0.25,Stim\\05_019.jpg,En19_23,Enojo,23,Óscar consigue un nuevo departamento.,Afirmación,En19,19,,,,,0,75,75,75,,,,,,,,,1,2.08189053892,2,0.550115444377,,,,,,,,,2018_may._25_1529,60.0116225511,Experimento Piloto1,001,127,
2.5,Stim\\03_019.jpg,Tr19_26,Tristeza,26,Víctor trae el café a Marco.,Afirmación,Tr19,19,,,,,0,76,76,76,,,,,,,,,1,1.6386867633,2,4.24909255453,,,,,,,,,2018_may._25_1529,60.0116225511,Experimento Piloto1,001,127,
0.25,Stim\\05_028.jpg,En28_30,Enojo,30,Marisol toma 2 litros de agua cada día.,Afirmación,En28,28,,,,,0,77,77,77,,,,,,,,,1,2.44755112441,2,1.05014935923,,,,,,,,,2018_may._25_1529,60.0116225511,Experimento Piloto1,001,127,
2.5,Stim\\02_019.jpg,Al19_26,Alegría,26,Víctor trae el café a Marco.,Afirmación,Al19,19,,,,,0,78,78,78,,,,,,,,,1,1.53817116827,3,0.699866036326,,,,,,,,,2018_may._25_1529,60.0116225511,Experimento Piloto1,001,127,
0.25,Stim\\03_075.jpg,Tr75_27,Tristeza,27,Claudia informa los avances en el reporte.,Afirmación,Tr75,75,,,,,0,79,79,79,,,,,,,,,1,3.11153703011,3,3.8826733473,,,,,,,,,2018_may._25_1529,60.0116225511,Experimento Piloto1,001,127,
2.5,Stim\\02_078.jpg,Al78_27,Alegría,27,Claudia informa los avances en el reporte.,Afirmación,Al78,78,,,,,0,80,80,80,,,,,,,,,1,2.21658025816,3,1.68322633792,,,,,,,,,2018_may._25_1529,60.0116225511,Experimento Piloto1,001,127,
0.25,Stim\\02_019.jpg,Al19_26,Alegría,26,Víctor trae el café a Marco.,Afirmación,Al19,19,,,,,0,81,81,81,,,,,,,,,1,3.73836653568,2,1.81637962503,,,,,,,,,2018_may._25_1529,60.0116225511,Experimento Piloto1,001,127,
0.25,Stim\\03_019.jpg,Tr19_29,Tristeza,29,Miriam mira la película.,Afirmación,Tr19,19,,,,,0,82,82,82,,,,,,,,,1,1.34124724553,2,0.900282742783,,,,,,,,,2018_may._25_1529,60.0116225511,Experimento Piloto1,001,127,
2.5,Stim\\05_075.jpg,En75_27,Enojo,27,Claudia informa los avances en el reporte.,Afirmación,En75,75,,,,,0,83,83,83,,,,,,,,,1,2.06559400528,2,2.13303592386,,,,,,,,,2018_may._25_1529,60.0116225511,Experimento Piloto1,001,127,
0.25,Stim\\05_019.jpg,En19_25,Enojo,25,Luis decide la comida siguiente.,Afirmación,En19,19,,,,,0,84,84,84,,,,,,,,,1,1.93406729242,2,2.2496566121,,,,,,,,,2018_may._25_1529,60.0116225511,Experimento Piloto1,001,127,
2.5,Stim\\03_028.jpg,Tr28_20,Tristeza,20,Karen analiza la idea.,Afirmación,Tr28,28,,,,,0,85,85,85,,,,,,,,,1,1.32615067299,4,0.600516041281,,,,,,,,,2018_may._25_1529,60.0116225511,Experimento Piloto1,001,127,
2.5,Stim\\05_028.jpg,En28_26,Enojo,26,Víctor trae el café a Marco.,Afirmación,En28,28,,,,,0,86,86,86,,,,,,,,,1,0.922105612641,2,1.11682194612,,,,,,,,,2018_may._25_1529,60.0116225511,Experimento Piloto1,001,127,
0.25,Stim\\05_028.jpg,En28_21,Enojo,21,Mauro anuncia la actividad.,Afirmación,En28,28,,,,,0,87,87,87,,,,,,,,,1,1.53888561145,2,0.550318933503,,,,,,,,,2018_may._25_1529,60.0116225511,Experimento Piloto1,001,127,
0.25,Stim\\03_075.jpg,Tr75_22,Tristeza,22,Enrique corre todas las mañanas.,Afirmación,Tr75,75,,,,,0,88,88,88,,,,,,,,,1,1.88508710316,4,0.283847247498,,,,,,,,,2018_may._25_1529,60.0116225511,Experimento Piloto1,001,127,
0.25,Stim\\05_028.jpg,En28_27,Enojo,27,Claudia informa los avances en el reporte.,Afirmación,En28,28,,,,,0,89,89,89,,,,,,,,,1,2.14672190623,2,1.00022624778,,,,,,,,,2018_may._25_1529,60.0116225511,Experimento Piloto1,001,127,
2.5,Stim\\03_075.jpg,Tr75_22,Tristeza,22,Enrique corre todas las mañanas.,Afirmación,Tr75,75,,,,,0,90,90,90,,,,,,,,,1,1.28644441132,4,0.600199651391,,,,,,,,,2018_may._25_1529,60.0116225511,Experimento Piloto1,001,127,
0.25,Stim\\05_019.jpg,En19_28,Enojo,28,Antonio responde la pregunta.,Afirmación,En19,19,,,,,0,91,91,91,,,,,,,,,1,2.80397660589,2,0.866883305234,,,,,,,,,2018_may._25_1529,60.0116225511,Experimento Piloto1,001,127,
2.5,Stim\\03_019.jpg,Tr19_17,Tristeza,17,Brenda sube el autobús en las mañanas.,Afirmación,Tr19,19,,,,,0,92,92,92,,,,,,,,,1,1.63201089202,3,1.41674661945,,,,,,,,,2018_may._25_1529,60.0116225511,Experimento Piloto1,001,127,
0.25,Stim\\05_028.jpg,En28_29,Enojo,29,Miriam mira la película.,Afirmación,En28,28,,,,,0,93,93,93,,,,,,,,,1,1.37478278875,2,1.26691124036,,,,,,,,,2018_may._25_1529,60.0116225511,Experimento Piloto1,001,127,
0.25,Stim\\05_028.jpg,En28_18,Enojo,18,Sofía escucha la música.,Afirmación,En28,28,,,,,0,94,94,94,,,,,,,,,1,1.07430833779,2,0.550348385876,,,,,,,,,2018_may._25_1529,60.0116225511,Experimento Piloto1,001,127,
0.25,Stim\\05_028.jpg,En28_25,Enojo,25,Luis decide la comida siguiente.,Afirmación,En28,28,,,,,0,95,95,95,,,,,,,,,1,1.21742232829,2,0.450189343061,,,,,,,,,2018_may._25_1529,60.0116225511,Experimento Piloto1,001,127,
2.5,Stim\\03_075.jpg,Tr75_16,Tristeza,16,Valeria modifica algunas imágenes.,Afirmación,Tr75,75,,,,,0,96,96,96,,,,,,,,,1,1.63449381634,4,1.26674523608,,,,,,,,,2018_may._25_1529,60.0116225511,Experimento Piloto1,001,127,
2.5,Stim\\05_019.jpg,En19_18,Enojo,18,Sofía escucha la música.,Afirmación,En19,19,,,,,0,97,97,97,,,,,,,,,1,1.49123345647,2,0.333762326487,,,,,,,,,2018_may._25_1529,60.0116225511,Experimento Piloto1,001,127,
0.25,Stim\\05_075.jpg,En75_28,Enojo,28,Antonio responde la pregunta.,Afirmación,En75,75,,,,,0,98,98,98,,,,,,,,,1,1.02327585361,2,0.400372884897,,,,,,,,,2018_may._25_1529,60.0116225511,Experimento Piloto1,001,127,
0.25,Stim\\03_019.jpg,Tr19_24,Tristeza,24,Guadalupe comenta los resultados con los compañeros.,Afirmación,Tr19,19,,,,,0,99,99,99,,,,,,,,,1,1.05252027528,3,1.51659998233,,,,,,,,,2018_may._25_1529,60.0116225511,Experimento Piloto1,001,127,
0.25,Stim\\02_075.jpg,Al75_21,Alegría,21,Mauro anuncia la actividad.,Afirmación,Al75,75,,,,,0,100,100,100,,,,,,,,,1,1.0221156086,3,0.333694943027,,,,,,,,,2018_may._25_1529,60.0116225511,Experimento Piloto1,001,127,
0.25,Stim\\03_019.jpg,Tr19_23,Tristeza,23,Óscar consigue un nuevo departamento.,Afirmación,Tr19,19,,,,,0,101,101,101,,,,,,,,,1,1.23341362824,3,0.38362117822,,,,,,,,,2018_may._25_1529,60.0116225511,Experimento Piloto1,001,127,
2.5,Stim\\05_028.jpg,En28_30,Enojo,30,Marisol toma 2 litros de agua cada día.,Afirmación,En28,28,,,,,0,102,102,102,,,,,,,,,1,1.0121910513,2,0.400204203122,,,,,,,,,2018_may._25_1529,60.0116225511,Experimento Piloto1,001,127,
0.25,Stim\\02_078.jpg,Al78_19,Alegría,19,Armando acompaña a Rodrígo a la tienda.,Afirmación,Al78,78,,,,,0,103,103,103,,,,,,,,,1,3.3641710094,3,0.700267659598,,,,,,,,,2018_may._25_1529,60.0116225511,Experimento Piloto1,001,127,
2.5,Stim\\03_075.jpg,Tr75_25,Tristeza,25,Luis decide la comida siguiente.,Afirmación,Tr75,75,,,,,0,104,104,104,,,,,,,,,1,2.15090458948,4,1.36685385286,,,,,,,,,2018_may._25_1529,60.0116225511,Experimento Piloto1,001,127,
2.5,Stim\\03_028.jpg,Tr28_29,Tristeza,29,Miriam mira la película.,Afirmación,Tr28,28,,,,,0,105,105,105,,,,,,,,,1,0.990785423395,4,0.950117943368,,,,,,,,,2018_may._25_1529,60.0116225511,Experimento Piloto1,001,127,
0.25,Stim\\03_028.jpg,Tr28_24,Tristeza,24,Guadalupe comenta los resultados con los compañeros.,Afirmación,Tr28,28,,,,,0,106,106,106,,,,,,,,,1,1.97378961902,4,1.53337400141,,,,,,,,,2018_may._25_1529,60.0116225511,Experimento Piloto1,001,127,
0.25,Stim\\02_075.jpg,Al75_30,Alegría,30,Marisol toma 2 litros de agua cada día.,Afirmación,Al75,75,,,,,0,107,107,107,,,,,,,,,1,0.949057657928,3,0.816745102204,,,,,,,,,2018_may._25_1529,60.0116225511,Experimento Piloto1,001,127,
2.5,Stim\\05_019.jpg,En19_27,Enojo,27,Claudia informa los avances en el reporte.,Afirmación,En19,19,,,,,0,108,108,108,,,,,,,,,1,1.67955371622,2,0.283837876286,,,,,,,,,2018_may._25_1529,60.0116225511,Experimento Piloto1,001,127,
2.5,Stim\\05_075.jpg,En75_18,Enojo,18,Sofía escucha la música.,Afirmación,En75,75,,,,,0,109,109,109,,,,,,,,,1,1.14104339941,2,0.383714890317,,,,,,,,,2018_may._25_1529,60.0116225511,Experimento Piloto1,001,127,
2.5,Stim\\02_028.jpg,Al28_23,Alegría,23,Óscar consigue un nuevo departamento.,Afirmación,Al28,28,,,,,0,110,110,110,,,,,,,,,1,1.03347886971,3,2.0831154899,,,,,,,,,2018_may._25_1529,60.0116225511,Experimento Piloto1,001,127,
2.5,Stim\\05_078.jpg,En78_29,Enojo,29,Miriam mira la película.,Afirmación,En78,78,,,,,0,111,111,111,,,,,,,,,1,0.974103777669,2,0.850169083398,,,,,,,,,2018_may._25_1529,60.0116225511,Experimento Piloto1,001,127,
0.25,Stim\\03_078.jpg,Tr78_20,Tristeza,20,Karen analiza la idea.,Afirmación,Tr78,78,,,,,0,112,112,112,,,,,,,,,1,1.3249739168,4,0.45043834949,,,,,,,,,2018_may._25_1529,60.0116225511,Experimento Piloto1,001,127,
0.25,Stim\\02_019.jpg,Al19_25,Alegría,25,Luis decide la comida siguiente.,Afirmación,Al19,19,,,,,0,113,113,113,,,,,,,,,1,1.63424570241,3,1.31677678582,,,,,,,,,2018_may._25_1529,60.0116225511,Experimento Piloto1,001,127,
2.5,Stim\\03_078.jpg,Tr78_16,Tristeza,16,Valeria modifica algunas imágenes.,Afirmación,Tr78,78,,,,,0,114,114,114,,,,,,,,,1,2.30050434958,4,0.550349724621,,,,,,,,,2018_may._25_1529,60.0116225511,Experimento Piloto1,001,127,
0.25,Stim\\02_028.jpg,Al28_21,Alegría,21,Mauro anuncia la actividad.,Afirmación,Al28,28,,,,,0,115,115,115,,,,,,,,,1,0.972738258544,3,0.850193180793,,,,,,,,,2018_may._25_1529,60.0116225511,Experimento Piloto1,001,127,
2.5,Stim\\05_019.jpg,En19_30,Enojo,30,Marisol toma 2 litros de agua cada día.,Afirmación,En19,19,,,,,0,116,116,116,,,,,,,,,1,1.63136293981,2,0.700654110435,,,,,,,,,2018_may._25_1529,60.0116225511,Experimento Piloto1,001,127,
0.25,Stim\\05_078.jpg,En78_26,Enojo,26,Víctor trae el café a Marco.,Afirmación,En78,78,,,,,0,117,117,117,,,,,,,,,1,1.17135658524,2,0.500279797547,,,,,,,,,2018_may._25_1529,60.0116225511,Experimento Piloto1,001,127,
0.25,Stim\\02_078.jpg,Al78_21,Alegría,21,Mauro anuncia la actividad.,Afirmación,Al78,78,,,,,0,118,118,118,,,,,,,,,1,1.8389535304,3,1.11681034367,,,,,,,,,2018_may._25_1529,60.0116225511,Experimento Piloto1,001,127,
0.25,Stim\\03_075.jpg,Tr75_30,Tristeza,30,Marisol toma 2 litros de agua cada día.,Afirmación,Tr75,75,,,,,0,119,119,119,,,,,,,,,1,1.63221571989,3,2.99952206831,,,,,,,,,2018_may._25_1529,60.0116225511,Experimento Piloto1,001,127,
2.5,Stim\\03_019.jpg,Tr19_16,Tristeza,16,Valeria modifica algunas imágenes.,Afirmación,Tr19,19,,,,,,,,,0,0,0,0,,,,,,,,,1,2.80118889414,3,2.54975576842,,,,,2018_may._25_1529,60.0116225511,Experimento Piloto1,001,127,
2.5,Stim\\05_078.jpg,En78_19,Enojo,19,Armando acompaña a Rodrígo a la tienda.,Afirmación,En78,78,,,,,,,,,0,1,1,1,,,,,,,,,1,1.78077661446,2,0.550277432432,,,,,2018_may._25_1529,60.0116225511,Experimento Piloto1,001,127,
2.5,Stim\\02_075.jpg,Al75_21,Alegría,21,Mauro anuncia la actividad.,Afirmación,Al75,75,,,,,,,,,0,2,2,2,,,,,,,,,1,1.93729857477,2,1.78325463005,,,,,2018_may._25_1529,60.0116225511,Experimento Piloto1,001,127,
0.25,Stim\\02_075.jpg,Al75_16,Alegría,16,Valeria modifica algunas imágenes.,Afirmación,Al75,75,,,,,,,,,0,3,3,3,,,,,,,,,1,1.31605877266,3,2.09958025906,,,,,2018_may._25_1529,60.0116225511,Experimento Piloto1,001,127,
0.25,Stim\\05_078.jpg,En78_30,Enojo,30,Marisol toma 2 litros de agua cada día.,Afirmación,En78,78,,,,,,,,,0,4,4,4,,,,,,,,,1,3.88148454241,3,2.69958445379,,,,,2018_may._25_1529,60.0116225511,Experimento Piloto1,001,127,
0.25,Stim\\02_019.jpg,Al19_22,Alegría,22,Enrique corre todas las mañanas.,Afirmación,Al19,19,,,,,,,,,0,5,5,5,,,,,,,,,1,2.35278454339,3,2.23318604172,,,,,2018_may._25_1529,60.0116225511,Experimento Piloto1,001,127,
2.5,Stim\\05_028.jpg,En28_23,Enojo,23,Óscar consigue un nuevo departamento.,Afirmación,En28,28,,,,,,,,,0,6,6,6,,,,,,,,,1,2.04851966124,2,1.46664161727,,,,,2018_may._25_1529,60.0116225511,Experimento Piloto1,001,127,
0.25,Stim\\03_019.jpg,Tr19_16,Tristeza,16,Valeria modifica algunas imágenes.,Afirmación,Tr19,19,,,,,,,,,0,7,7,7,,,,,,,,,1,1.68458471707,3,1.31671297234,,,,,2018_may._25_1529,60.0116225511,Experimento Piloto1,001,127,
0.25,Stim\\02_078.jpg,Al78_17,Alegría,17,Brenda sube el autobús en las mañanas.,Afirmación,Al78,78,,,,,,,,,0,8,8,8,,,,,,,,,1,1.21581003398,3,0.70017885623,,,,,2018_may._25_1529,60.0116225511,Experimento Piloto1,001,127,
0.25,Stim\\02_078.jpg,Al78_16,Alegría,16,Valeria modifica algunas imágenes.,Afirmación,Al78,78,,,,,,,,,0,9,9,9,,,,,,,,,1,0.91798718911,3,0.433540273443,,,,,2018_may._25_1529,60.0116225511,Experimento Piloto1,001,127,
0.25,Stim\\05_075.jpg,En75_22,Enojo,22,Enrique corre todas las mañanas.,Afirmación,En75,75,,,,,,,,,0,10,10,10,,,,,,,,,1,2.66888080089,2,1.98319652855,,,,,2018_may._25_1529,60.0116225511,Experimento Piloto1,001,127,
0.25,Stim\\02_028.jpg,Al28_26,Alegría,26,Víctor trae el café a Marco.,Afirmación,Al28,28,,,,,,,,,0,11,11,11,,,,,,,,,1,1.51933637556,2,0.600232673749,,,,,2018_may._25_1529,60.0116225511,Experimento Piloto1,001,127,
2.5,Stim\\03_075.jpg,Tr75_28,Tristeza,28,Antonio responde la pregunta.,Afirmación,Tr75,75,,,,,,,,,0,12,12,12,,,,,,,,,1,1.43752036007,4,0.350456913409,,,,,2018_may._25_1529,60.0116225511,Experimento Piloto1,001,127,
0.25,Stim\\05_075.jpg,En75_23,Enojo,23,Óscar consigue un nuevo departamento.,Afirmación,En75,75,,,,,,,,,0,13,13,13,,,,,,,,,1,1.26629854175,2,1.46672328067,,,,,2018_may._25_1529,60.0116225511,Experimento Piloto1,001,127,
2.5,Stim\\02_078.jpg,Al78_28,Alegría,28,Antonio responde la pregunta.,Afirmación,Al78,78,,,,,,,,,0,14,14,14,,,,,,,,,1,1.28741098466,2,1.88255687655,,,,,2018_may._25_1529,60.0116225511,Experimento Piloto1,001,127,
2.5,Stim\\02_028.jpg,Al28_18,Alegría,18,Sofía escucha la música.,Afirmación,Al28,28,,,,,,,,,0,15,15,15,,,,,,,,,1,1.84045113896,3,1.56668775932,,,,,2018_may._25_1529,60.0116225511,Experimento Piloto1,001,127,
2.5,Stim\\02_019.jpg,Al19_22,Alegría,22,Enrique corre todas las mañanas.,Afirmación,Al19,19,,,,,,,,,0,16,16,16,,,,,,,,,1,1.65283684367,3,1.46674514683,,,,,2018_may._25_1529,60.0116225511,Experimento Piloto1,001,127,
2.5,Stim\\05_028.jpg,En28_28,Enojo,28,Antonio responde la pregunta.,Afirmación,En28,28,,,,,,,,,0,17,17,17,,,,,,,,,1,2.05258855124,2,0.28367945822,,,,,2018_may._25_1529,60.0116225511,Experimento Piloto1,001,127,
0.25,Stim\\03_078.jpg,Tr78_30,Tristeza,30,Marisol toma 2 litros de agua cada día.,Afirmación,Tr78,78,,,,,,,,,0,18,18,18,,,,,,,,,1,1.16446428364,4,1.56666857066,,,,,2018_may._25_1529,60.0116225511,Experimento Piloto1,001,127,
0.25,Stim\\03_019.jpg,Tr19_20,Tristeza,20,Karen analiza la idea.,Afirmación,Tr19,19,,,,,,,,,0,19,19,19,,,,,,,,,1,2.05823805193,3,3.04957950043,,,,,2018_may._25_1529,60.0116225511,Experimento Piloto1,001,127,
0.25,Stim\\05_028.jpg,En28_19,Enojo,19,Armando acompaña a Rodrígo a la tienda.,Afirmación,En28,28,,,,,,,,,0,20,20,20,,,,,,,,,1,1.11542251214,2,1.11673537399,,,,,2018_may._25_1529,60.0116225511,Experimento Piloto1,001,127,
0.25,Stim\\05_019.jpg,En19_26,Enojo,26,Víctor trae el café a Marco.,Afirmación,En19,19,,,,,,,,,0,21,21,21,,,,,,,,,1,0.971768561465,2,1.5166294347,,,,,2018_may._25_1529,60.0116225511,Experimento Piloto1,001,127,
0.25,Stim\\02_028.jpg,Al28_16,Alegría,16,Valeria modifica algunas imágenes.,Afirmación,Al28,28,,,,,,,,,0,22,22,22,,,,,,,,,1,1.01723186961,3,0.966446606863,,,,,2018_may._25_1529,60.0116225511,Experimento Piloto1,001,127,
2.5,Stim\\02_075.jpg,Al75_17,Alegría,17,Brenda sube el autobús en las mañanas.,Afirmación,Al75,75,,,,,,,,,0,23,23,23,,,,,,,,,1,5.98028877606,3,0.400281850287,,,,,2018_may._25_1529,60.0116225511,Experimento Piloto1,001,127,
2.5,Stim\\05_075.jpg,En75_30,Enojo,30,Marisol toma 2 litros de agua cada día.,Afirmación,En75,75,,,,,,,,,0,24,24,24,,,,,,,,,1,2.0483893568,2,0.900205095617,,,,,2018_may._25_1529,60.0116225511,Experimento Piloto1,001,127,
2.5,Stim\\03_075.jpg,Tr75_27,Tristeza,27,Claudia informa los avances en el reporte.,Afirmación,Tr75,75,,,,,,,,,0,25,25,25,,,,,,,,,1,1.72971378541,4,0.966885714975,,,,,2018_may._25_1529,60.0116225511,Experimento Piloto1,001,127,
2.5,Stim\\03_028.jpg,Tr28_24,Tristeza,24,Guadalupe comenta los resultados con los compañeros.,Afirmación,Tr28,28,,,,,,,,,0,26,26,26,,,,,,,,,1,1.05600859652,4,0.283720959291,,,,,2018_may._25_1529,60.0116225511,Experimento Piloto1,001,127,
0.25,Stim\\05_028.jpg,En28_24,Enojo,24,Guadalupe comenta los resultados con los compañeros.,Afirmación,En28,28,,,,,,,,,0,27,27,27,,,,,,,,,1,1.08355102802,2,0.91677160934,,,,,2018_may._25_1529,60.0116225511,Experimento Piloto1,001,127,
0.25,Stim\\03_028.jpg,Tr28_17,Tristeza,17,Brenda sube el autobús en las mañanas.,Afirmación,Tr28,28,,,,,,,,,0,28,28,28,,,,,,,,,1,1.361533237,4,0.400307732676,,,,,2018_may._25_1529,60.0116225511,Experimento Piloto1,001,127,
0.25,Stim\\02_028.jpg,Al28_28,Alegría,28,Antonio responde la pregunta.,Afirmación,Al28,28,,,,,,,,,0,29,29,29,,,,,,,,,1,4.85315760679,3,0.600282207286,,,,,2018_may._25_1529,60.0116225511,Experimento Piloto1,001,127,
2.5,Stim\\02_028.jpg,Al28_24,Alegría,24,Guadalupe comenta los resultados con los compañeros.,Afirmación,Al28,28,,,,,,,,,0,30,30,30,,,,,,,,,1,1.62333582935,2,2.59968066487,,,,,2018_may._25_1529,60.0116225511,Experimento Piloto1,001,127,
0.25,Stim\\02_078.jpg,Al78_29,Alegría,29,Miriam mira la película.,Afirmación,Al78,78,,,,,,,,,0,31,31,31,,,,,,,,,1,0.824828439925,3,1.36661912637,,,,,2018_may._25_1529,60.0116225511,Experimento Piloto1,001,127,
0.25,Stim\\05_078.jpg,En78_19,Enojo,19,Armando acompaña a Rodrígo a la tienda.,Afirmación,En78,78,,,,,,,,,0,32,32,32,,,,,,,,,1,2.69825106452,2,0.816282789194,,,,,2018_may._25_1529,60.0116225511,Experimento Piloto1,001,127,
0.25,Stim\\03_019.jpg,Tr19_21,Tristeza,21,Mauro anuncia la actividad.,Afirmación,Tr19,19,,,,,,,,,0,33,33,33,,,,,,,,,1,2.08863066992,3,1.56660297219,,,,,2018_may._25_1529,60.0116225511,Experimento Piloto1,001,127,
0.25,Stim\\02_028.jpg,Al28_25,Alegría,25,Luis decide la comida siguiente.,Afirmación,Al28,28,,,,,,,,,0,34,34,34,,,,,,,,,1,1.43401686639,3,0.600278637301,,,,,2018_may._25_1529,60.0116225511,Experimento Piloto1,001,127,
2.5,Stim\\03_078.jpg,Tr78_26,Tristeza,26,Víctor trae el café a Marco.,Afirmación,Tr78,78,,,,,,,,,0,35,35,35,,,,,,,,,1,3.53783068098,4,0.383714444068,,,,,2018_may._25_1529,60.0116225511,Experimento Piloto1,001,127,
2.5,Stim\\05_078.jpg,En78_20,Enojo,20,Karen analiza la idea.,Afirmación,En78,78,,,,,,,,,0,36,36,36,,,,,,,,,1,1.75804741475,2,1.26670328876,,,,,2018_may._25_1529,60.0116225511,Experimento Piloto1,001,127,
2.5,Stim\\02_078.jpg,Al78_23,Alegría,23,Óscar consigue un nuevo departamento.,Afirmación,Al78,78,,,,,,,,,0,37,37,37,,,,,,,,,1,0.965746443626,3,0.750278235679,,,,,2018_may._25_1529,60.0116225511,Experimento Piloto1,001,127,
0.25,Stim\\03_078.jpg,Tr78_21,Tristeza,21,Mauro anuncia la actividad.,Afirmación,Tr78,78,,,,,,,,,0,38,38,38,,,,,,,,,1,1.68869600064,4,0.550221651421,,,,,2018_may._25_1529,60.0116225511,Experimento Piloto1,001,127,
2.5,Stim\\03_075.jpg,Tr75_18,Tristeza,18,Sofía escucha la música.,Afirmación,Tr75,75,,,,,,,,,0,39,39,39,,,,,,,,,1,5.17299788568,2,0.0838669716632,,,,,2018_may._25_1529,60.0116225511,Experimento Piloto1,001,127,
2.5,Stim\\03_019.jpg,Tr19_19,Tristeza,19,Armando acompaña a Rodrígo a la tienda.,Afirmación,Tr19,19,,,,,,,,,0,40,40,40,,,,,,,,,1,2.46409755697,2,1.51667539825,,,,,2018_may._25_1529,60.0116225511,Experimento Piloto1,001,127,
0.25,Stim\\03_019.jpg,Tr19_17,Tristeza,17,Brenda sube el autobús en las mañanas.,Afirmación,Tr19,19,,,,,,,,,0,41,41,41,,,,,,,,,1,1.01413803167,3,0.333794456348,,,,,2018_may._25_1529,60.0116225511,Experimento Piloto1,001,127,
2.5,Stim\\05_078.jpg,En78_18,Enojo,18,Sofía escucha la música.,Afirmación,En78,78,,,,,,,,,0,42,42,42,,,,,,,,,1,2.20736612781,2,2.86624517048,,,,,2018_may._25_1529,60.0116225511,Experimento Piloto1,001,127,
0.25,Stim\\05_019.jpg,En19_24,Enojo,24,Guadalupe comenta los resultados con los compañeros.,Afirmación,En19,19,,,,,,,,,0,43,43,43,,,,,,,,,1,1.04058626288,2,0.8168388143,,,,,2018_may._25_1529,60.0116225511,Experimento Piloto1,001,127,
0.25,Stim\\02_075.jpg,Al75_20,Alegría,20,Karen analiza la idea.,Afirmación,Al75,75,,,,,,,,,0,44,44,44,,,,,,,,,1,1.17600068901,3,0.800191529677,,,,,2018_may._25_1529,60.0116225511,Experimento Piloto1,001,127,
0.25,Stim\\03_075.jpg,Tr75_23,Tristeza,23,Óscar consigue un nuevo departamento.,Afirmación,Tr75,75,,,,,,,,,0,45,45,45,,,,,,,,,1,1.77630386995,4,0.600276406061,,,,,2018_may._25_1529,60.0116225511,Experimento Piloto1,001,127,
0.25,Stim\\05_078.jpg,En78_16,Enojo,16,Valeria modifica algunas imágenes.,Afirmación,En78,78,,,,,,,,,0,46,46,46,,,,,,,,,1,1.68535761875,2,2.18307416732,,,,,2018_may._25_1529,60.0116225511,Experimento Piloto1,001,127,
2.5,Stim\\02_019.jpg,Al19_20,Alegría,20,Karen analiza la idea.,Afirmación,Al19,19,,,,,,,,,0,47,47,47,,,,,,,,,1,0.109088913146,3,2.49973983737,,,,,2018_may._25_1529,60.0116225511,Experimento Piloto1,001,127,
0.25,Stim\\03_075.jpg,Tr75_28,Tristeza,28,Antonio responde la pregunta.,Afirmación,Tr75,75,,,,,,,,,0,48,48,48,,,,,,,,,1,1.62081720518,3,2.19978258794,,,,,2018_may._25_1529,60.0116225511,Experimento Piloto1,001,127,
0.25,Stim\\05_078.jpg,En78_25,Enojo,25,Luis decide la comida siguiente.,Afirmación,En78,78,,,,,,,,,0,49,49,49,,,,,,,,,1,2.80042223993,2,1.63337908864,,,,,2018_may._25_1529,60.0116225511,Experimento Piloto1,001,127,
2.5,Stim\\03_019.jpg,Tr19_23,Tristeza,23,Óscar consigue un nuevo departamento.,Afirmación,Tr19,19,,,,,,,,,0,50,50,50,,,,,,,,,1,2.39845312566,3,1.21665656658,,,,,2018_may._25_1529,60.0116225511,Experimento Piloto1,001,127,
2.5,Stim\\03_075.jpg,Tr75_24,Tristeza,24,Guadalupe comenta los resultados con los compañeros.,Afirmación,Tr75,75,,,,,,,,,0,51,51,51,,,,,,,,,1,1.67034449459,4,0.916483779329,,,,,2018_may._25_1529,60.0116225511,Experimento Piloto1,001,127,
0.25,Stim\\02_078.jpg,Al78_20,Alegría,20,Karen analiza la idea.,Afirmación,Al78,78,,,,,,,,,0,52,52,52,,,,,,,,,1,0.858540251129,3,1.31679508199,,,,,2018_may._25_1529,60.0116225511,Experimento Piloto1,001,127,
2.5,Stim\\02_078.jpg,Al78_30,Alegría,30,Marisol toma 2 litros de agua cada día.,Afirmación,Al78,78,,,,,,,,,0,53,53,53,,,,,,,,,1,1.11436713543,3,1.11685630723,,,,,2018_may._25_1529,60.0116225511,Experimento Piloto1,001,127,
2.5,Stim\\03_028.jpg,Tr28_27,Tristeza,27,Claudia informa los avances en el reporte.,Afirmación,Tr28,28,,,,,,,,,0,54,54,54,,,,,,,,,1,1.12965961089,4,0.583964699992,,,,,2018_may._25_1529,60.0116225511,Experimento Piloto1,001,127,
2.5,Stim\\02_075.jpg,Al75_28,Alegría,28,Antonio responde la pregunta.,Afirmación,Al75,75,,,,,,,,,0,55,55,55,,,,,,,,,1,0.987072639369,2,2.08284997229,,,,,2018_may._25_1529,60.0116225511,Experimento Piloto1,001,127,
2.5,Stim\\03_078.jpg,Tr78_28,Tristeza,28,Antonio responde la pregunta.,Afirmación,Tr78,78,,,,,,,,,0,56,56,56,,,,,,,,,1,0.000479716685732,4,1.78313369682,,,,,2018_may._25_1529,60.0116225511,Experimento Piloto1,001,127,
0.25,Stim\\03_028.jpg,Tr28_19,Tristeza,19,Armando acompaña a Rodrígo a la tienda.,Afirmación,Tr28,28,,,,,,,,,0,57,57,57,,,,,,,,,1,1.31542420789,4,0.55047512033,,,,,2018_may._25_1529,60.0116225511,Experimento Piloto1,001,127,
2.5,Stim\\05_078.jpg,En78_21,Enojo,21,Mauro anuncia la actividad.,Afirmación,En78,78,,,,,,,,,0,58,58,58,,,,,,,,,1,1.48538448288,2,1.46665589721,,,,,2018_may._25_1529,60.0116225511,Experimento Piloto1,001,127,
0.25,Stim\\05_028.jpg,En28_17,Enojo,17,Brenda sube el autobús en las mañanas.,Afirmación,En28,28,,,,,,,,,0,59,59,59,,,,,,,,,1,1.43142416505,2,1.56668909807,,,,,2018_may._25_1529,60.0116225511,Experimento Piloto1,001,127,
0.25,Stim\\03_075.jpg,Tr75_20,Tristeza,20,Karen analiza la idea.,Afirmación,Tr75,75,,,,,,,,,0,60,60,60,,,,,,,,,1,2.25561000774,2,1.36666732116,,,,,2018_may._25_1529,60.0116225511,Experimento Piloto1,001,127,
2.5,Stim\\03_078.jpg,Tr78_21,Tristeza,21,Mauro anuncia la actividad.,Afirmación,Tr78,78,,,,,,,,,0,61,61,61,,,,,,,,,1,1.07193965298,4,0.250353205356,,,,,2018_may._25_1529,60.0116225511,Experimento Piloto1,001,127,
0.25,Stim\\05_075.jpg,En75_17,Enojo,17,Brenda sube el autobús en las mañanas.,Afirmación,En75,75,,,,,,,,,0,62,62,62,,,,,,,,,1,0.848681292298,2,0.600407602997,,,,,2018_may._25_1529,60.0116225511,Experimento Piloto1,001,127,
0.25,Stim\\03_019.jpg,Tr19_26,Tristeza,26,Víctor trae el café a Marco.,Afirmación,Tr19,19,,,,,,,,,0,63,63,63,,,,,,,,,1,0.970872049073,3,0.350391761189,,,,,2018_may._25_1529,60.0116225511,Experimento Piloto1,001,127,
0.25,Stim\\05_019.jpg,En19_30,Enojo,30,Marisol toma 2 litros de agua cada día.,Afirmación,En19,19,,,,,,,,,0,64,64,64,,,,,,,,,1,5.6131203183,2,0.550230130135,,,,,2018_may._25_1529,60.0116225511,Experimento Piloto1,001,127,
0.25,Stim\\02_019.jpg,Al19_27,Alegría,27,Claudia informa los avances en el reporte.,Afirmación,Al19,19,,,,,,,,,0,65,65,65,,,,,,,,,1,3.72853167424,2,3.83259538776,,,,,2018_may._25_1529,60.0116225511,Experimento Piloto1,001,127,
0.25,Stim\\05_028.jpg,En28_23,Enojo,23,Óscar consigue un nuevo departamento.,Afirmación,En28,28,,,,,,,,,0,66,66,66,,,,,,,,,1,2.0321097806,2,1.41671225835,,,,,2018_may._25_1529,60.0116225511,Experimento Piloto1,001,127,
0.25,Stim\\05_019.jpg,En19_18,Enojo,18,Sofía escucha la música.,Afirmación,En19,19,,,,,,,,,0,67,67,67,,,,,,,,,1,6.87208878909,3,2.34946267269,,,,,2018_may._25_1529,60.0116225511,Experimento Piloto1,001,127,
0.25,Stim\\05_075.jpg,En75_25,Enojo,25,Luis decide la comida siguiente.,Afirmación,En75,75,,,,,,,,,0,68,68,68,,,,,,,,,1,1.61670815286,2,3.41606296739,,,,,2018_may._25_1529,60.0116225511,Experimento Piloto1,001,127,
0.25,Stim\\03_078.jpg,Tr78_16,Tristeza,16,Valeria modifica algunas imágenes.,Afirmación,Tr78,78,,,,,,,,,0,69,69,69,,,,,,,,,1,2.66690481439,4,0.750301440579,,,,,2018_may._25_1529,60.0116225511,Experimento Piloto1,001,127,
0.25,Stim\\05_019.jpg,En19_27,Enojo,27,Claudia informa los avances en el reporte.,Afirmación,En19,19,,,,,,,,,0,70,70,70,,,,,,,,,1,1.06283396091,2,0.500312373655,,,,,2018_may._25_1529,60.0116225511,Experimento Piloto1,001,127,
0.25,Stim\\05_075.jpg,En75_30,Enojo,30,Marisol toma 2 litros de agua cada día.,Afirmación,En75,75,,,,,,,,,0,71,71,71,,,,,,,,,1,1.26538641067,2,0.28378388027,,,,,2018_may._25_1529,60.0116225511,Experimento Piloto1,001,127,
2.5,Stim\\02_028.jpg,Al28_16,Alegría,16,Valeria modifica algunas imágenes.,Afirmación,Al28,28,,,,,,,,,0,72,72,72,,,,,,,,,1,0.919158590319,4,0.816845508021,,,,,2018_may._25_1529,60.0116225511,Experimento Piloto1,001,127,
0.25,Stim\\05_075.jpg,En75_29,Enojo,29,Miriam mira la película.,Afirmación,En75,75,,,,,,,,,0,73,73,73,,,,,,,,,1,0.757841694387,2,0.450239769094,,,,,2018_may._25_1529,60.0116225511,Experimento Piloto1,001,127,
2.5,Stim\\02_028.jpg,Al28_28,Alegría,28,Antonio responde la pregunta.,Afirmación,Al28,28,,,,,,,,,0,74,74,74,,,,,,,,,1,0.872050858003,2,4.33246642206,,,,,2018_may._25_1529,60.0116225511,Experimento Piloto1,001,127,
2.5,Stim\\03_019.jpg,Tr19_28,Tristeza,28,Antonio responde la pregunta.,Afirmación,Tr19,19,,,,,,,,,0,75,75,75,,,,,,,,,1,0.933663884161,2,1.36665705746,,,,,2018_may._25_1529,60.0116225511,Experimento Piloto1,001,127,
0.25,Stim\\02_028.jpg,Tr28_30,Tristeza,30,Marisol toma 2 litros de agua cada día.,Afirmación,Tr28,28,,,,,,,,,0,76,76,76,,,,,,,,,1,1.38108559663,3,2.28317966037,,,,,2018_may._25_1529,60.0116225511,Experimento Piloto1,001,127,
2.5,Stim\\02_075.jpg,Al75_27,Alegría,27,Claudia informa los avances en el reporte.,Afirmación,Al75,75,,,,,,,,,0,77,77,77,,,,,,,,,1,1.79584462713,2,2.89958793452,,,,,2018_may._25_1529,60.0116225511,Experimento Piloto1,001,127,
2.5,Stim\\02_075.jpg,Al75_20,Alegría,20,Karen analiza la idea.,Afirmación,Al75,75,,,,,,,,,0,78,78,78,,,,,,,,,1,1.84202327094,3,2.14982466913,,,,,2018_may._25_1529,60.0116225511,Experimento Piloto1,001,127,
2.5,Stim\\05_019.jpg,En19_28,Enojo,28,Antonio responde la pregunta.,Afirmación,En19,19,,,,,,,,,0,79,79,79,,,,,,,,,1,0.154511166465,2,1.10007648692,,,,,2018_may._25_1529,60.0116225511,Experimento Piloto1,001,127,
2.5,Stim\\02_078.jpg,Al78_21,Alegría,21,Mauro anuncia la actividad.,Afirmación,Al78,78,,,,,,,,,0,80,80,80,,,,,,,,,1,4.10203863973,3,1.21677883856,,,,,2018_may._25_1529,60.0116225511,Experimento Piloto1,001,127,
2.5,Stim\\03_078.jpg,Tr78_19,Tristeza,19,Armando acompaña a Rodrígo a la tienda.,Afirmación,Tr78,78,,,,,,,,,0,81,81,81,,,,,,,,,1,0.815510333767,4,0.600238028726,,,,,2018_may._25_1529,60.0116225511,Experimento Piloto1,001,127,
2.5,Stim\\05_075.jpg,En75_22,Enojo,22,Enrique corre todas las mañanas.,Afirmación,En75,75,,,,,,,,,0,82,82,82,,,,,,,,,1,1.11993943521,4,4.79895676124,,,,,2018_may._25_1529,60.0116225511,Experimento Piloto1,001,127,
0.25,Stim\\03_019.jpg,Tr19_19,Tristeza,19,Armando acompaña a Rodrígo a la tienda.,Afirmación,Tr19,19,,,,,,,,,0,83,83,83,,,,,,,,,1,2.44801611491,2,1.11681123617,,,,,2018_may._25_1529,60.0116225511,Experimento Piloto1,001,127,
2.5,Stim\\03_019.jpg,Tr19_27,Tristeza,27,Claudia informa los avances en el reporte.,Afirmación,Tr19,19,,,,,,,,,0,84,84,84,,,,,,,,,1,2.24641818978,2,1.41681935788,,,,,2018_may._25_1529,60.0116225511,Experimento Piloto1,001,127,
0.25,Stim\\05_078.jpg,En78_18,Enojo,18,Sofía escucha la música.,Afirmación,En78,78,,,,,,,,,0,85,85,85,,,,,,,,,1,1.22439673953,2,1.43344209887,,,,,2018_may._25_1529,60.0116225511,Experimento Piloto1,001,127,
2.5,Stim\\05_019.jpg,En19_25,Enojo,25,Luis decide la comida siguiente.,Afirmación,En19,19,,,,,,,,,0,86,86,86,,,,,,,,,1,1.88445833962,2,0.450312061283,,,,,2018_may._25_1529,60.0116225511,Experimento Piloto1,001,127,
0.25,Stim\\05_028.jpg,En28_16,Enojo,16,Valeria modifica algunas imágenes.,Afirmación,En28,28,,,,,,,,,0,87,87,87,,,,,,,,,1,1.21794934727,2,0.500270426337,,,,,2018_may._25_1529,60.0116225511,Experimento Piloto1,001,127,
2.5,Stim\\02_028.jpg,Al28_22,Alegría,22,Enrique corre todas las mañanas.,Afirmación,Al28,28,,,,,,,,,0,88,88,88,,,,,,,,,1,1.53444990553,3,0.650264223488,,,,,2018_may._25_1529,60.0116225511,Experimento Piloto1,001,127,
0.25,Stim\\03_078.jpg,Tr78_17,Tristeza,17,Brenda sube el autobús en las mañanas.,Afirmación,Tr78,78,,,,,,,,,0,89,89,89,,,,,,,,,1,1.16488018685,4,0.333741799075,,,,,2018_may._25_1529,60.0116225511,Experimento Piloto1,001,127,
2.5,Stim\\02_028.jpg,Al28_25,Alegría,25,Luis decide la comida siguiente.,Afirmación,Al28,28,,,,,,,,,0,90,90,90,,,,,,,,,1,1.48155299687,3,2.54972497731,,,,,2018_may._25_1529,60.0116225511,Experimento Piloto1,001,127,
0.25,Stim\\03_028.jpg,Tr28_18,Tristeza,18,Sofía escucha la música.,Afirmación,Tr28,28,,,,,,,,,0,91,91,91,,,,,,,,,1,1.54150598017,4,0.383649738096,,,,,2018_may._25_1529,60.0116225511,Experimento Piloto1,001,127,
2.5,Stim\\03_075.jpg,Tr75_26,Tristeza,26,Víctor trae el café a Marco.,Afirmación,Tr75,75,,,,,,,,,0,92,92,92,,,,,,,,,1,1.80468435535,4,0.33373599785,,,,,2018_may._25_1529,60.0116225511,Experimento Piloto1,001,127,
0.25,Stim\\02_019.jpg,Al19_19,Alegría,19,Armando acompaña a Rodrígo a la tienda.,Afirmación,Al19,19,,,,,,,,,0,93,93,93,,,,,,,,,1,2.9641015732,2,2.08333013522,,,,,2018_may._25_1529,60.0116225511,Experimento Piloto1,001,127,
0.25,Stim\\02_028.jpg,Al28_24,Alegría,24,Guadalupe comenta los resultados con los compañeros.,Afirmación,Al28,28,,,,,,,,,0,94,94,94,,,,,,,,,1,2.80566967111,2,2.74966062833,,,,,2018_may._25_1529,60.0116225511,Experimento Piloto1,001,127,
0.25,Stim\\05_078.jpg,En78_20,Enojo,20,Karen analiza la idea.,Afirmación,En78,78,,,,,,,,,0,95,95,95,,,,,,,,,1,1.99243431005,2,0.916549824045,,,,,2018_may._25_1529,60.0116225511,Experimento Piloto1,001,127,
2.5,Stim\\02_019.jpg,Al19_17,Alegría,17,Brenda sube el autobús en las mañanas.,Afirmación,Al19,19,,,,,,,,,0,96,96,96,,,,,,,,,1,1.26510393564,3,0.500431521894,,,,,2018_may._25_1529,60.0116225511,Experimento Piloto1,001,127,
0.25,Stim\\03_019.jpg,Tr19_18,Tristeza,18,Sofía escucha la música.,Afirmación,Tr19,19,,,,,,,,,0,97,97,97,,,,,,,,,1,2.97310552071,2,0.484058233589,,,,,2018_may._25_1529,60.0116225511,Experimento Piloto1,001,127,
0.25,Stim\\02_075.jpg,Al75_26,Alegría,26,Víctor trae el café a Marco.,Afirmación,Al75,75,,,,,,,,,0,98,98,98,,,,,,,,,1,3.43698709361,3,2.44971498135,,,,,2018_may._25_1529,60.0116225511,Experimento Piloto1,001,127,
2.5,Stim\\02_075.jpg,Al75_18,Alegría,18,Sofía escucha la música.,Afirmación,Al75,75,,,,,,,,,0,99,99,99,,,,,,,,,1,5.83904858124,3,0.966409122026,,,,,2018_may._25_1529,60.0116225511,Experimento Piloto1,001,127,
2.5,Stim\\05_019.jpg,En19_24,Enojo,24,Guadalupe comenta los resultados con los compañeros.,Afirmación,En19,19,,,,,,,,,0,100,100,100,,,,,,,,,1,1.7227081368,2,0.333678431849,,,,,2018_may._25_1529,60.0116225511,Experimento Piloto1,001,127,
2.5,Stim\\03_019.jpg,Tr19_30,Tristeza,30,Marisol toma 2 litros de agua cada día.,Afirmación,Tr19,19,,,,,,,,,0,101,101,101,,,,,,,,,1,1.43215645815,3,0.700312284407,,,,,2018_may._25_1529,60.0116225511,Experimento Piloto1,001,127,
2.5,Stim\\05_075.jpg,En75_17,Enojo,17,Brenda sube el autobús en las mañanas.,Afirmación,En75,75,,,,,,,,,0,102,102,102,,,,,,,,,1,3.13142586079,2,0.333740906579,,,,,2018_may._25_1529,60.0116225511,Experimento Piloto1,001,127,
0.25,Stim\\02_019.jpg,Al19_29,Alegría,29,Miriam mira la película.,Afirmación,Al19,19,,,,,,,,,0,103,103,103,,,,,,,,,1,1.32378466567,3,1.21675741865,,,,,2018_may._25_1529,60.0116225511,Experimento Piloto1,001,127,
0.25,Stim\\05_078.jpg,En78_22,Enojo,22,Enrique corre todas las mañanas.,Afirmación,En78,78,,,,,,,,,0,104,104,104,,,,,,,,,1,2.76901708505,4,1.88322223244,,,,,2018_may._25_1529,60.0116225511,Experimento Piloto1,001,127,
0.25,Stim\\03_028.jpg,Tr28_21,Tristeza,21,Mauro anuncia la actividad.,Afirmación,Tr28,28,,,,,,,,,0,105,105,105,,,,,,,,,1,1.73952008697,4,2.64970105841,,,,,2018_may._25_1529,60.0116225511,Experimento Piloto1,001,127,
2.5,Stim\\05_028.jpg,En28_19,Enojo,19,Armando acompaña a Rodrígo a la tienda.,Afirmación,En28,28,,,,,,,,,0,106,106,106,,,,,,,,,1,1.21409287137,2,0.500004462481,,,,,2018_may._25_1529,60.0116225511,Experimento Piloto1,001,127,
2.5,Stim\\03_019.jpg,Tr19_29,Tristeza,29,Miriam mira la película.,Afirmación,Tr19,19,,,,,,,,,0,107,107,107,,,,,,,,,1,1.33785263639,2,2.03301789544,,,,,2018_may._25_1529,60.0116225511,Experimento Piloto1,001,127,
2.5,Stim\\05_078.jpg,En78_17,Enojo,17,Brenda sube el autobús en las mañanas.,Afirmación,En78,78,,,,,,,,,0,108,108,108,,,,,,,,,1,0.91621603048,2,1.0496915087,,,,,2018_may._25_1529,60.0116225511,Experimento Piloto1,001,127,
2.5,Stim\\02_028.jpg,Al28_21,Alegría,21,Mauro anuncia la actividad.,Afirmación,Al28,28,,,,,,,,,0,109,109,109,,,,,,,,,1,2.77117424827,3,4.39866107726,,,,,2018_may._25_1529,60.0116225511,Experimento Piloto1,001,127,
0.25,Stim\\02_075.jpg,Al75_27,Alegría,27,Claudia informa los avances en el reporte.,Afirmación,Al75,75,,,,,,,,,0,110,110,110,,,,,,,,,1,1.97902544774,2,3.01608010331,,,,,2018_may._25_1529,60.0116225511,Experimento Piloto1,001,127,
0.25,Stim\\02_019.jpg,Al19_28,Alegría,28,Antonio responde la pregunta.,Afirmación,Al19,19,,,,,,,,,0,111,111,111,,,,,,,,,1,3.57007388976,2,2.74966419832,,,,,2018_may._25_1529,60.0116225511,Experimento Piloto1,001,127,
2.5,Stim\\05_019.jpg,En19_20,Enojo,20,Karen analiza la idea.,Afirmación,En19,19,,,,,,,,,0,112,112,112,,,,,,,,,1,0.674798942928,2,0.450320539996,,,,,2018_may._25_1529,60.0116225511,Experimento Piloto1,001,127,
2.5,Stim\\03_078.jpg,Tr78_22,Tristeza,22,Enrique corre todas las mañanas.,Afirmación,Tr78,78,,,,,,,,,0,113,113,113,,,,,,,,,1,2.00228434392,4,1.41669083844,,,,,2018_may._25_1529,60.0116225511,Experimento Piloto1,001,127,
2.5,Stim\\05_028.jpg,En28_18,Enojo,18,Sofía escucha la música.,Afirmación,En28,28,,,,,,,,,0,114,114,114,,,,,,,,,1,1.07359077087,2,3.06618930022,,,,,2018_may._25_1529,60.0116225511,Experimento Piloto1,001,127,
0.25,Stim\\03_075.jpg,Tr75_29,Tristeza,29,Miriam mira la película.,Afirmación,Tr75,75,,,,,,,,,0,115,115,115,,,,,,,,,1,1.47399489314,4,0.700361817942,,,,,2018_may._25_1529,60.0116225511,Experimento Piloto1,001,127,
0.25,Stim\\03_078.jpg,Tr78_24,Tristeza,24,Guadalupe comenta los resultados con los compañeros.,Afirmación,Tr78,78,,,,,,,,,0,116,116,116,,,,,,,,,1,5.82150567672,4,0.500309696168,,,,,2018_may._25_1529,60.0116225511,Experimento Piloto1,001,127,
2.5,Stim\\05_075.jpg,En75_23,Enojo,23,Óscar consigue un nuevo departamento.,Afirmación,En75,75,,,,,,,,,0,117,117,117,,,,,,,,,1,0.816482708335,2,0.333771251449,,,,,2018_may._25_1529,60.0116225511,Experimento Piloto1,001,127,
2.5,Stim\\03_019.jpg,Tr19_21,Tristeza,21,Mauro anuncia la actividad.,Afirmación,Tr19,19,,,,,,,,,0,118,118,118,,,,,,,,,1,0.823067098754,3,0.550429603027,,,,,2018_may._25_1529,60.0116225511,Experimento Piloto1,001,127,
0.25,Stim\\03_078.jpg,Tr78_29,Tristeza,29,Miriam mira la película.,Afirmación,Tr78,78,,,,,,,,,0,119,119,119,,,,,,,,,1,4.77340995115,2,0.550048060917,,,,,2018_may._25_1529,60.0116225511,Experimento Piloto1,001,127,
2.5,Stim\\02_078.jpg,Al78_17,Alegría,17,Brenda sube el autobús en las mañanas.,Afirmación,Al78,78,,,,,,,,,,,,,0,0,0,0,,,,,,,,,1,1.61472636514,3,0.70021143234,2018_may._25_1529,60.0116225511,Experimento Piloto1,001,127,
2.5,Stim\\05_019.jpg,En19_23,Enojo,23,Óscar consigue un nuevo departamento.,Afirmación,En19,19,,,,,,,,,,,,,0,1,1,1,,,,,,,,,1,0.912472455337,2,0.283703555617,2018_may._25_1529,60.0116225511,Experimento Piloto1,001,127,
0.25,Stim\\02_075.jpg,Al75_17,Alegría,17,Brenda sube el autobús en las mañanas.,Afirmación,Al75,75,,,,,,,,,,,,,0,2,2,2,,,,,,,,,1,1.43164282661,3,0.60025766364,2018_may._25_1529,60.0116225511,Experimento Piloto1,001,127,
2.5,Stim\\02_075.jpg,Al75_24,Alegría,24,Guadalupe comenta los resultados con los compañeros.,Afirmación,Al75,75,,,,,,,,,,,,,0,3,3,3,,,,,,,,,1,1.20645399673,2,0.450196036782,2018_may._25_1529,60.0116225511,Experimento Piloto1,001,127,
0.25,Stim\\05_075.jpg,En75_19,Enojo,19,Armando acompaña a Rodrígo a la tienda.,Afirmación,En75,75,,,,,,,,,,,,,0,4,4,4,,,,,,,,,1,1.73027204176,2,0.383755498891,2018_may._25_1529,60.0116225511,Experimento Piloto1,001,127,
2.5,Stim\\02_019.jpg,Al19_29,Alegría,29,Miriam mira la película.,Afirmación,Al19,19,,,,,,,,,,,,,0,5,5,5,,,,,,,,,1,2.52349228392,3,0.700197152402,2018_may._25_1529,60.0116225511,Experimento Piloto1,001,127,
2.5,Stim\\02_078.jpg,Al78_24,Alegría,24,Guadalupe comenta los resultados con los compañeros.,Afirmación,Al78,78,,,,,,,,,,,,,0,6,6,6,,,,,,,,,1,3.52298177612,2,1.46680182034,2018_may._25_1529,60.0116225511,Experimento Piloto1,001,127,
0.25,Stim\\05_028.jpg,En28_20,Enojo,20,Karen analiza la idea.,Afirmación,En28,28,,,,,,,,,,,,,0,7,7,7,,,,,,,,,1,1.54191875964,2,0.450027801255,2018_may._25_1529,60.0116225511,Experimento Piloto1,001,127,
0.25,Stim\\03_078.jpg,Tr78_27,Tristeza,27,Claudia informa los avances en el reporte.,Afirmación,Tr78,78,,,,,,,,,,,,,0,8,8,8,,,,,,,,,1,1.92916882725,2,1.05025735127,2018_may._25_1529,60.0116225511,Experimento Piloto1,001,127,
0.25,Stim\\02_019.jpg,Al19_30,Alegría,30,Marisol toma 2 litros de agua cada día.,Afirmación,Al19,19,,,,,,,,,,,,,0,9,9,9,,,,,,,,,1,1.01496046688,3,0.750401400148,2018_may._25_1529,60.0116225511,Experimento Piloto1,001,127,
2.5,Stim\\02_019.jpg,Al19_19,Alegría,19,Armando acompaña a Rodrígo a la tienda.,Afirmación,Al19,19,,,,,,,,,,,,,0,10,10,10,,,,,,,,,1,3.43101406306,2,1.21680025847,2018_may._25_1529,60.0116225511,Experimento Piloto1,001,127,
0.25,Stim\\02_028.jpg,Al28_30,Alegría,30,Marisol toma 2 litros de agua cada día.,Afirmación,Al28,28,,,,,,,,,,,,,0,11,11,11,,,,,,,,,1,0.915021870618,2,4.49860011977,2018_may._25_1529,60.0116225511,Experimento Piloto1,001,127,
2.5,Stim\\02_019.jpg,Al19_16,Alegría,16,Valeria modifica algunas imágenes.,Afirmación,Al19,19,,,,,,,,,,,,,0,12,12,12,,,,,,,,,1,1.88445343089,2,1.5168039177,2018_may._25_1529,60.0116225511,Experimento Piloto1,001,127,
2.5,Stim\\03_075.jpg,Tr75_30,Tristeza,30,Marisol toma 2 litros de agua cada día.,Afirmación,Tr75,75,,,,,,,,,,,,,0,13,13,13,,,,,,,,,1,1.13145665191,4,2.08317171715,2018_may._25_1529,60.0116225511,Experimento Piloto1,001,127,
2.5,Stim\\02_078.jpg,Al78_19,Alegría,19,Armando acompaña a Rodrígo a la tienda.,Afirmación,Al78,78,,,,,,,,,,,,,0,14,14,14,,,,,,,,,1,1.78119921139,3,1.21711887959,2018_may._25_1529,60.0116225511,Experimento Piloto1,001,127,
2.5,Stim\\05_075.jpg,En75_25,Enojo,25,Luis decide la comida siguiente.,Afirmación,En75,75,,,,,,,,,,,,,0,15,15,15,,,,,,,,,1,2.19803597295,2,3.68266272659,2018_may._25_1529,60.0116225511,Experimento Piloto1,001,127,
0.25,Stim\\03_075.jpg,Tr75_24,Tristeza,24,Guadalupe comenta los resultados con los compañeros.,Afirmación,Tr75,75,,,,,,,,,,,,,0,16,16,16,,,,,,,,,1,2.5894714013,2,1.4167100271,2018_may._25_1529,60.0116225511,Experimento Piloto1,001,127,
2.5,Stim\\05_078.jpg,En78_25,Enojo,25,Luis decide la comida siguiente.,Afirmación,En78,78,,,,,,,,,,,,,0,17,17,17,,,,,,,,,1,1.63543673853,2,0.850461822138,2018_may._25_1529,60.0116225511,Experimento Piloto1,001,127,
2.5,Stim\\05_028.jpg,En28_17,Enojo,17,Brenda sube el autobús en las mañanas.,Afirmación,En28,28,,,,,,,,,,,,,0,18,18,18,,,,,,,,,1,3.57810367771,4,5.43215467315,2018_may._25_1529,60.0116225511,Experimento Piloto1,001,127,
0.25,Stim\\02_078.jpg,Al78_26,Alegría,26,Víctor trae el café a Marco.,Afirmación,Al78,78,,,,,,,,,,,,,0,19,19,19,,,,,,,,,1,2.1382106166,2,0.650241464837,2018_may._25_1529,60.0116225511,Experimento Piloto1,001,127,
2.5,Stim\\03_075.jpg,Tr75_20,Tristeza,20,Karen analiza la idea.,Afirmación,Tr75,75,,,,,,,,,,,,,0,20,20,20,,,,,,,,,1,1.14173374519,4,0.750199249769,2018_may._25_1529,60.0116225511,Experimento Piloto1,001,127,
2.5,Stim\\05_028.jpg,En28_21,Enojo,21,Mauro anuncia la actividad.,Afirmación,En28,28,,,,,,,,,,,,,0,21,21,21,,,,,,,,,1,4.45531137852,3,0.500317728633,2018_may._25_1529,60.0116225511,Experimento Piloto1,001,127,
0.25,Stim\\05_019.jpg,En19_21,Enojo,21,Mauro anuncia la actividad.,Afirmación,En19,19,,,,,,,,,,,,,0,22,22,22,,,,,,,,,1,1.79986219859,2,1.56669980802,2018_may._25_1529,60.0116225511,Experimento Piloto1,001,127,
0.25,Stim\\03_028.jpg,Tr28_16,Tristeza,16,Valeria modifica algunas imágenes.,Afirmación,Tr28,28,,,,,,,,,,,,,0,23,23,23,,,,,,,,,1,1.11807322574,4,0.250400061403,2018_may._25_1529,60.0116225511,Experimento Piloto1,001,127,
0.25,Stim\\05_075.jpg,En75_27,Enojo,27,Claudia informa los avances en el reporte.,Afirmación,En75,75,,,,,,,,,,,,,0,24,24,24,,,,,,,,,1,1.3631147402,2,0.350077602541,2018_may._25_1529,60.0116225511,Experimento Piloto1,001,127,
2.5,Stim\\02_078.jpg,Al78_18,Alegría,18,Sofía escucha la música.,Afirmación,Al78,78,,,,,,,,,,,,,0,25,25,25,,,,,,,,,1,1.27457510489,3,3.21615096751,2018_may._25_1529,60.0116225511,Experimento Piloto1,001,127,
2.5,Stim\\03_028.jpg,Tr28_25,Tristeza,25,Luis decide la comida siguiente.,Afirmación,Tr28,28,,,,,,,,,,,,,0,26,26,26,,,,,,,,,1,1.33467892004,4,0.28359333234,2018_may._25_1529,60.0116225511,Experimento Piloto1,001,127,
0.25,Stim\\03_075.jpg,Tr75_18,Tristeza,18,Sofía escucha la música.,Afirmación,Tr75,75,,,,,,,,,,,,,0,27,27,27,,,,,,,,,1,1.84012448536,4,1.68327274772,2018_may._25_1529,60.0116225511,Experimento Piloto1,001,127,
2.5,Stim\\02_028.jpg,Al28_27,Alegría,27,Claudia informa los avances en el reporte.,Afirmación,Al28,28,,,,,,,,,,,,,0,28,28,28,,,,,,,,,1,1.77986671462,2,1.73337301966,2018_may._25_1529,60.0116225511,Experimento Piloto1,001,127,
2.5,Stim\\02_028.jpg,Al28_20,Alegría,20,Karen analiza la idea.,Afirmación,Al28,28,,,,,,,,,,,,,0,29,29,29,,,,,,,,,1,0.875273661635,2,1.61681569865,2018_may._25_1529,60.0116225511,Experimento Piloto1,001,127,
0.25,Stim\\05_078.jpg,En78_29,Enojo,29,Miriam mira la película.,Afirmación,En78,78,,,,,,,,,,,,,0,30,30,30,,,,,,,,,1,2.30698208671,2,0.400282742783,2018_may._25_1529,60.0116225511,Experimento Piloto1,001,127,
0.25,Stim\\05_019.jpg,En19_22,Enojo,22,Enrique corre todas las mañanas.,Afirmación,En19,19,,,,,,,,,,,,,0,31,31,31,,,,,,,,,1,2.18597299485,2,0.350492167008,2018_may._25_1529,60.0116225511,Experimento Piloto1,001,127,
2.5,Stim\\03_019.jpg,Tr19_20,Tristeza,20,Karen analiza la idea.,Afirmación,Tr19,19,,,,,,,,,,,,,0,32,32,32,,,,,,,,,1,0.925887565118,3,0.333669506887,2018_may._25_1529,60.0116225511,Experimento Piloto1,001,127,
2.5,Stim\\05_078.jpg,En78_22,Enojo,22,Enrique corre todas las mañanas.,Afirmación,En78,78,,,,,,,,,,,,,0,33,33,33,,,,,,,,,1,1.18607295442,2,0.600334864559,2018_may._25_1529,60.0116225511,Experimento Piloto1,001,127,
2.5,Stim\\02_078.jpg,Al78_16,Alegría,16,Valeria modifica algunas imágenes.,Afirmación,Al78,78,,,,,,,,,,,,,0,34,34,34,,,,,,,,,1,2.70083707215,3,0.76696300514,2018_may._25_1529,60.0116225511,Experimento Piloto1,001,127,
2.5,Stim\\05_028.jpg,En28_24,Enojo,24,Guadalupe comenta los resultados con los compañeros.,Afirmación,En28,28,,,,,,,,,,,,,0,35,35,35,,,,,,,,,1,2.13934230173,2,0.333515997547,2018_may._25_1529,60.0116225511,Experimento Piloto1,001,127,
2.5,Stim\\02_075.jpg,Al75_16,Alegría,16,Valeria modifica algunas imágenes.,Afirmación,Al75,75,,,,,,,,,,,,,0,36,36,36,,,,,,,,,1,1.01804314862,2,3.98267932702,2018_may._25_1529,60.0116225511,Experimento Piloto1,001,127,
0.25,Stim\\02_019.jpg,Al19_18,Alegría,18,Sofía escucha la música.,Afirmación,Al19,19,,,,,,,,,,,,,0,37,37,37,,,,,,,,,1,1.17053861251,2,1.88332620824,2018_may._25_1529,60.0116225511,Experimento Piloto1,001,127,
2.5,Stim\\02_028.jpg,Al28_26,Alegría,26,Víctor trae el café a Marco.,Afirmación,Al28,28,,,,,,,,,,,,,0,38,38,38,,,,,,,,,1,1.08422530887,2,0.383726046519,2018_may._25_1529,60.0116225511,Experimento Piloto1,001,127,
2.5,Stim\\02_078.jpg,Al78_29,Alegría,29,Miriam mira la película.,Afirmación,Al78,78,,,,,,,,,,,,,0,39,39,39,,,,,,,,,1,1.5892384598,3,0.916485564321,2018_may._25_1529,60.0116225511,Experimento Piloto1,001,127,
0.25,Stim\\05_078.jpg,En78_24,Enojo,24,Guadalupe comenta los resultados con los compañeros.,Afirmación,En78,78,,,,,,,,,,,,,0,40,40,40,,,,,,,,,1,1.60728428591,2,0.55040327439,2018_may._25_1529,60.0116225511,Experimento Piloto1,001,127,
0.25,Stim\\03_075.jpg,Tr75_19,Tristeza,19,Armando acompaña a Rodrígo a la tienda.,Afirmación,Tr75,75,,,,,,,,,,,,,0,41,41,41,,,,,,,,,1,2.09816520639,4,1.31665763758,2018_may._25_1529,60.0116225511,Experimento Piloto1,001,127,
0.25,Stim\\02_028.jpg,Al28_17,Alegría,17,Brenda sube el autobús en las mañanas.,Afirmación,Al28,28,,,,,,,,,,,,,0,42,42,42,,,,,,,,,1,2.94824325518,2,1.31675134968,2018_may._25_1529,60.0116225511,Experimento Piloto1,001,127,
2.5,Stim\\05_075.jpg,En75_21,Enojo,21,Mauro anuncia la actividad.,Afirmación,En75,75,,,,,,,,,,,,,0,43,43,43,,,,,,,,,1,1.90626826828,2,0.39999803651,2018_may._25_1529,60.0116225511,Experimento Piloto1,001,127,
0.25,Stim\\03_019.jpg,Tr19_27,Tristeza,27,Claudia informa los avances en el reporte.,Afirmación,Tr19,19,,,,,,,,,,,,,0,44,44,44,,,,,,,,,1,2.27917949258,3,1.06675737403,2018_may._25_1529,60.0116225511,Experimento Piloto1,001,127,
2.5,Stim\\02_075.jpg,Al75_19,Alegría,19,Armando acompaña a Rodrígo a la tienda.,Afirmación,Al75,75,,,,,,,,,,,,,0,45,45,45,,,,,,,,,1,1.21465202021,3,2.04946659967,2018_may._25_1529,60.0116225511,Experimento Piloto1,001,127,
2.5,Stim\\03_019.jpg,Tr19_22,Tristeza,22,Enrique corre todas las mañanas.,Afirmación,Tr19,19,,,,,,,,,,,,,0,46,46,46,,,,,,,,,1,1.21975932949,3,0.400293898985,2018_may._25_1529,60.0116225511,Experimento Piloto1,001,127,
2.5,Stim\\02_075.jpg,Al75_23,Alegría,23,Óscar consigue un nuevo departamento.,Afirmación,Al75,75,,,,,,,,,,,,,0,47,47,47,,,,,,,,,1,2.07966688473,3,2.24981815391,2018_may._25_1529,60.0116225511,Experimento Piloto1,001,127,
2.5,Stim\\02_019.jpg,Al19_27,Alegría,27,Claudia informa los avances en el reporte.,Afirmación,Al19,19,,,,,,,,,,,,,0,48,48,48,,,,,,,,,1,2.04623174734,2,0.800140211146,2018_may._25_1529,60.0116225511,Experimento Piloto1,001,127,
2.5,Stim\\03_028.jpg,Tr28_16,Tristeza,16,Valeria modifica algunas imágenes.,Afirmación,Tr28,28,,,,,,,,,,,,,0,49,49,49,,,,,,,,,1,0.968253911587,4,1.73309054463,2018_may._25_1529,60.0116225511,Experimento Piloto1,001,127,
2.5,Stim\\02_078.jpg,Al78_20,Alegría,20,Karen analiza la idea.,Afirmación,Al78,78,,,,,,,,,,,,,0,50,50,50,,,,,,,,,1,1.89129218272,2,1.36676460325,2018_may._25_1529,60.0116225511,Experimento Piloto1,001,127,
2.5,Stim\\05_075.jpg,En75_24,Enojo,24,Guadalupe comenta los resultados con los compañeros.,Afirmación,En75,75,,,,,,,,,,,,,0,51,51,51,,,,,,,,,1,1.84003523575,2,0.333692711787,2018_may._25_1529,60.0116225511,Experimento Piloto1,001,127,
0.25,Stim\\03_028.jpg,Tr28_26,Tristeza,26,Víctor trae el café a Marco.,Afirmación,Tr28,28,,,,,,,,,,,,,0,52,52,52,,,,,,,,,1,2.40518522419,4,1.31688477785,2018_may._25_1529,60.0116225511,Experimento Piloto1,001,127,
2.5,Stim\\03_028.jpg,Tr28_21,Tristeza,21,Mauro anuncia la actividad.,Afirmación,Tr28,28,,,,,,,,,,,,,0,53,53,53,,,,,,,,,1,0.872305219405,4,0.300380738863,2018_may._25_1529,60.0116225511,Experimento Piloto1,001,127,
2.5,Stim\\02_075.jpg,Al75_29,Alegría,29,Miriam mira la película.,Afirmación,Al75,75,,,,,,,,,,,,,0,54,54,54,,,,,,,,,1,2.45687012307,3,3.01595426136,2018_may._25_1529,60.0116225511,Experimento Piloto1,001,127,
0.25,Stim\\03_078.jpg,Tr78_26,Tristeza,26,Víctor trae el café a Marco.,Afirmación,Tr78,78,,,,,,,,,,,,,0,55,55,55,,,,,,,,,1,0.905762669207,4,0.700347538004,2018_may._25_1529,60.0116225511,Experimento Piloto1,001,127,
0.25,Stim\\05_019.jpg,En19_19,Enojo,19,Armando acompaña a Rodrígo a la tienda.,Afirmación,En19,19,,,,,,,,,,,,,0,56,56,56,,,,,,,,,1,1.68097457011,2,0.350380604987,2018_may._25_1529,60.0116225511,Experimento Piloto1,001,127,
0.25,Stim\\03_078.jpg,Tr78_19,Tristeza,19,Armando acompaña a Rodrígo a la tienda.,Afirmación,Tr78,78,,,,,,,,,,,,,0,57,57,57,,,,,,,,,1,0.966882591238,4,0.350415858586,2018_may._25_1529,60.0116225511,Experimento Piloto1,001,127,
2.5,Stim\\03_078.jpg,Tr78_18,Tristeza,18,Sofía escucha la música.,Afirmación,Tr78,78,,,,,,,,,,,,,0,58,58,58,,,,,,,,,1,1.5380256914,4,0.400334953809,2018_may._25_1529,60.0116225511,Experimento Piloto1,001,127,
2.5,Stim\\05_075.jpg,En75_26,Enojo,26,Víctor trae el café a Marco.,Afirmación,En75,75,,,,,,,,,,,,,0,59,59,59,,,,,,,,,1,0.605252964649,2,0.50024632894,2018_may._25_1529,60.0116225511,Experimento Piloto1,001,127,
2.5,Stim\\02_075.jpg,Al75_30,Alegría,30,Marisol toma 2 litros de agua cada día.,Afirmación,Al75,75,,,,,,,,,,,,,0,60,60,60,,,,,,,,,1,1.28222290449,3,0.800611002871,2018_may._25_1529,60.0116225511,Experimento Piloto1,001,127,
2.5,Stim\\03_019.jpg,Tr19_18,Tristeza,18,Sofía escucha la música.,Afirmación,Tr19,19,,,,,,,,,,,,,0,61,61,61,,,,,,,,,1,0.8238350917,3,0.383726939015,2018_may._25_1529,60.0116225511,Experimento Piloto1,001,127,
0.25,Stim\\03_078.jpg,Tr78_23,Tristeza,23,Óscar consigue un nuevo departamento.,Afirmación,Tr78,78,,,,,,,,,,,,,0,62,62,62,,,,,,,,,1,0.865655676767,4,0.500262393871,2018_may._25_1529,60.0116225511,Experimento Piloto1,001,127,
2.5,Stim\\03_019.jpg,Tr19_25,Tristeza,25,Luis decide la comida siguiente.,Afirmación,Tr19,19,,,,,,,,,,,,,0,63,63,63,,,,,,,,,1,1.88440568235,3,1.41682828285,2018_may._25_1529,60.0116225511,Experimento Piloto1,001,127,
0.25,Stim\\02_028.jpg,Al28_29,Alegría,29,Miriam mira la película.,Afirmación,Al28,28,,,,,,,,,,,,,0,64,64,64,,,,,,,,,1,0.873456539453,3,1.93330376196,2018_may._25_1529,60.0116225511,Experimento Piloto1,001,127,
2.5,Stim\\02_019.jpg,Al19_21,Alegría,21,Mauro anuncia la actividad.,Afirmación,Al19,19,,,,,,,,,,,,,0,65,65,65,,,,,,,,,1,0.82304255511,3,0.700260073381,2018_may._25_1529,60.0116225511,Experimento Piloto1,001,127,
2.5,Stim\\02_078.jpg,Al78_25,Alegría,25,Luis decide la comida siguiente.,Afirmación,Al78,78,,,,,,,,,,,,,0,66,66,66,,,,,,,,,1,2.10209174325,3,3.46605970978,2018_may._25_1529,60.0116225511,Experimento Piloto1,001,127,
2.5,Stim\\05_075.jpg,En75_29,Enojo,29,Miriam mira la película.,Afirmación,En75,75,,,,,,,,,,,,,0,67,67,67,,,,,,,,,1,1.12451794051,2,0.500430629398,2018_may._25_1529,60.0116225511,Experimento Piloto1,001,127,
0.25,Stim\\03_028.jpg,Tr28_20,Tristeza,20,Karen analiza la idea.,Afirmación,Tr28,28,,,,,,,,,,,,,0,68,68,68,,,,,,,,,1,0.775258756948,4,0.433691105294,2018_may._25_1529,60.0116225511,Experimento Piloto1,001,127,
2.5,Stim\\02_075.jpg,Al75_26,Alegría,26,Víctor trae el café a Marco.,Afirmación,Al75,75,,,,,,,,,,,,,0,69,69,69,,,,,,,,,1,2.37104724607,2,1.51655580377,2018_may._25_1529,60.0116225511,Experimento Piloto1,001,127,
0.25,Stim\\05_019.jpg,En19_20,Enojo,20,Karen analiza la idea.,Afirmación,En19,19,,,,,,,,,,,,,0,70,70,70,,,,,,,,,1,1.07523385631,2,0.333811413777,2018_may._25_1529,60.0116225511,Experimento Piloto1,001,127,
0.25,Stim\\05_028.jpg,En28_22,Enojo,22,Enrique corre todas las mañanas.,Afirmación,En28,28,,,,,,,,,,,,,0,71,71,71,,,,,,,,,1,1.28538457213,2,0.433587129492,2018_may._25_1529,60.0116225511,Experimento Piloto1,001,127,
2.5,Stim\\05_028.jpg,En28_22,Enojo,22,Enrique corre todas las mañanas.,Afirmación,En28,28,,,,,,,,,,,,,0,72,72,72,,,,,,,,,1,1.19983435271,2,0.433803559808,2018_may._25_1529,60.0116225511,Experimento Piloto1,001,127,
0.25,Stim\\05_019.jpg,En19_17,Enojo,17,Brenda sube el autobús en las mañanas.,Afirmación,En19,19,,,,,,,,,,,,,0,73,73,73,,,,,,,,,1,6.14766572092,3,1.46665277348,2018_may._25_1529,60.0116225511,Experimento Piloto1,001,127,
2.5,Stim\\05_078.jpg,En78_26,Enojo,26,Víctor trae el café a Marco.,Afirmación,En78,78,,,,,,,,,,,,,0,74,74,74,,,,,,,,,1,0.771360779971,2,0.500264625111,2018_may._25_1529,60.0116225511,Experimento Piloto1,001,127,
2.5,Stim\\03_078.jpg,Tr78_29,Tristeza,29,Miriam mira la película.,Afirmación,Tr78,78,,,,,,,,,,,,,0,75,75,75,,,,,,,,,1,0.774667478243,4,1.56669846928,2018_may._25_1529,60.0116225511,Experimento Piloto1,001,127,
0.25,Stim\\02_075.jpg,Al75_22,Alegría,22,Enrique corre todas las mañanas.,Afirmación,Al75,75,,,,,,,,,,,,,0,76,76,76,,,,,,,,,1,2.65189570647,3,0.450210762969,2018_may._25_1529,60.0116225511,Experimento Piloto1,001,127,
2.5,Stim\\02_019.jpg,Al19_23,Alegría,23,Óscar consigue un nuevo departamento.,Afirmación,Al19,19,,,,,,,,,,,,,0,77,77,77,,,,,,,,,1,1.38185671331,3,0.433535810962,2018_may._25_1529,60.0116225511,Experimento Piloto1,001,127,
0.25,Stim\\05_075.jpg,En75_21,Enojo,21,Mauro anuncia la actividad.,Afirmación,En75,75,,,,,,,,,,,,,0,78,78,78,,,,,,,,,1,1.78842798404,2,0.350448880945,2018_may._25_1529,60.0116225511,Experimento Piloto1,001,127,
0.25,Stim\\02_078.jpg,Al78_25,Alegría,25,Luis decide la comida siguiente.,Afirmación,Al78,78,,,,,,,,,,,,,0,79,79,79,,,,,,,,,1,1.88544588662,3,0.700299343212,2018_may._25_1529,60.0116225511,Experimento Piloto1,001,127,
0.25,Stim\\03_078.jpg,Tr78_22,Tristeza,22,Enrique corre todas las mañanas.,Afirmación,Tr78,78,,,,,,,,,,,,,0,80,80,80,,,,,,,,,1,1.93669747861,4,0.40037422364,2018_may._25_1529,60.0116225511,Experimento Piloto1,001,127,
0.25,Stim\\05_028.jpg,En28_26,Enojo,26,Víctor trae el café a Marco.,Afirmación,En28,28,,,,,,,,,,,,,0,81,81,81,,,,,,,,,1,3.98554959467,2,0.866841357914,2018_may._25_1529,60.0116225511,Experimento Piloto1,001,127,
2.5,Stim\\05_019.jpg,En19_29,Enojo,29,Miriam mira la película.,Afirmación,En19,19,,,,,,,,,,,,,0,82,82,82,,,,,,,,,1,1.02408802511,4,0.75027555819,2018_may._25_1529,60.0116225511,Experimento Piloto1,001,127,
0.25,Stim\\02_019.jpg,Al19_21,Alegría,21,Mauro anuncia la actividad.,Afirmación,Al19,19,,,,,,,,,,,,,0,83,83,83,,,,,,,,,1,1.48428358887,3,2.13308679614,2018_may._25_1529,60.0116225511,Experimento Piloto1,001,127,
2.5,Stim\\05_078.jpg,En78_30,Enojo,30,Marisol toma 2 litros de agua cada día.,Afirmación,En78,78,,,,,,,,,,,,,0,84,84,84,,,,,,,,,1,1.53224365502,4,0.700199829891,2018_may._25_1529,60.0116225511,Experimento Piloto1,001,127,
0.25,Stim\\02_078.jpg,Al78_30,Alegría,30,Marisol toma 2 litros de agua cada día.,Afirmación,Al78,78,,,,,,,,,,,,,0,85,85,85,,,,,,,,,1,2.24984983752,4,1.48336476407,2018_may._25_1529,60.0116225511,Experimento Piloto1,001,127,
0.25,Stim\\03_075.jpg,Tr75_16,Tristeza,16,Valeria modifica algunas imágenes.,Afirmación,Tr75,75,,,,,,,,,,,,,0,86,86,86,,,,,,,,,1,6.13293864178,2,2.1333295551,2018_may._25_1529,60.0116225511,Experimento Piloto1,001,127,
0.25,Stim\\02_019.jpg,Al19_24,Alegría,24,Guadalupe comenta los resultados con los compañeros.,Afirmación,Al19,19,,,,,,,,,,,,,0,87,87,87,,,,,,,,,1,1.7736553876,3,0.450304475065,2018_may._25_1529,60.0116225511,Experimento Piloto1,001,127,
2.5,Stim\\02_028.jpg,Al28_29,Alegría,29,Miriam mira la película.,Afirmación,Al28,28,,,,,,,,,,,,,0,88,88,88,,,,,,,,,1,1.14027139023,3,0.800213395831,2018_may._25_1529,60.0116225511,Experimento Piloto1,001,127,
0.25,Stim\\03_019.jpg,Tr19_25,Tristeza,25,Luis decide la comida siguiente.,Afirmación,Tr19,19,,,,,,,,,,,,,0,89,89,89,,,,,,,,,1,1.88388714208,3,1.00011156202,2018_may._25_1529,60.0116225511,Experimento Piloto1,001,127,
0.25,Stim\\03_075.jpg,Tr75_25,Tristeza,25,Luis decide la comida siguiente.,Afirmación,Tr75,75,,,,,,,,,,,,,0,90,90,90,,,,,,,,,1,1.08345106845,4,4.81567410681,2018_may._25_1529,60.0116225511,Experimento Piloto1,001,127,
2.5,Stim\\03_078.jpg,Tr78_25,Tristeza,25,Luis decide la comida siguiente.,Afirmación,Tr78,78,,,,,,,,,,,,,0,91,91,91,,,,,,,,,1,1.49973894487,4,0.750147484991,2018_may._25_1529,60.0116225511,Experimento Piloto1,001,127,
2.5,Stim\\02_019.jpg,Al19_18,Alegría,18,Sofía escucha la música.,Afirmación,Al19,19,,,,,,,,,,,,,0,92,92,92,,,,,,,,,1,1.1748163466,3,1.16678075743,2018_may._25_1529,60.0116225511,Experimento Piloto1,001,127,
2.5,Stim\\03_028.jpg,Tr28_19,Tristeza,19,Armando acompaña a Rodrígo a la tienda.,Afirmación,Tr28,28,,,,,,,,,,,,,0,93,93,93,,,,,,,,,1,1.11547472317,2,0.350318576504,2018_may._25_1529,60.0116225511,Experimento Piloto1,001,127,
0.25,Stim\\03_078.jpg,Tr78_18,Tristeza,18,Sofía escucha la música.,Afirmación,Tr78,78,,,,,,,,,,,,,0,94,94,94,,,,,,,,,1,2.04151312014,2,1.58297224426,2018_may._25_1529,60.0116225511,Experimento Piloto1,001,127,
0.25,Stim\\05_019.jpg,En19_29,Enojo,29,Miriam mira la película.,Afirmación,En19,19,,,,,,,,,,,,,0,95,95,95,,,,,,,,,1,1.27424131133,2,0.750157302449,2018_may._25_1529,60.0116225511,Experimento Piloto1,001,127,
2.5,Stim\\03_078.jpg,Tr78_24,Tristeza,24,Guadalupe comenta los resultados con los compañeros.,Afirmación,Tr78,78,,,,,,,,,,,,,0,96,96,96,,,,,,,,,1,1.106449802,4,0.450280823918,2018_may._25_1529,60.0116225511,Experimento Piloto1,001,127,
2.5,Stim\\05_019.jpg,En19_22,Enojo,22,Enrique corre todas las mañanas.,Afirmación,En19,19,,,,,,,,,,,,,0,97,97,97,,,,,,,,,1,0.619024180398,2,0.533574813044,2018_may._25_1529,60.0116225511,Experimento Piloto1,001,127,
0.25,Stim\\02_028.jpg,Al28_20,Alegría,20,Karen analiza la idea.,Afirmación,Al28,28,,,,,,,,,,,,,0,98,98,98,,,,,,,,,1,1.3910061377,2,1.66665625421,2018_may._25_1529,60.0116225511,Experimento Piloto1,001,127,
2.5,Stim\\03_078.jpg,Tr78_27,Tristeza,27,Claudia informa los avances en el reporte.,Afirmación,Tr78,78,,,,,,,,,,,,,0,99,99,99,,,,,,,,,1,3.79590531687,4,0.500082109646,2018_may._25_1529,60.0116225511,Experimento Piloto1,001,127,
0.25,Stim\\03_075.jpg,Tr75_17,Tristeza,17,Brenda sube el autobús en las mañanas.,Afirmación,Tr75,75,,,,,,,,,,,,,0,100,100,100,,,,,,,,,1,1.88160859938,4,1.81659070037,2018_may._25_1529,60.0116225511,Experimento Piloto1,001,127,
2.5,Stim\\05_028.jpg,En28_25,Enojo,25,Luis decide la comida siguiente.,Afirmación,En28,28,,,,,,,,,,,,,0,101,101,101,,,,,,,,,1,1.18451554862,2,0.950227720394,2018_may._25_1529,60.0116225511,Experimento Piloto1,001,127,
2.5,Stim\\02_028.jpg,Tr28_30,Tristeza,30,Marisol toma 2 litros de agua cada día.,Afirmación,Tr28,28,,,,,,,,,,,,,0,102,102,102,,,,,,,,,1,2.19804936039,3,0.86692123632,2018_may._25_1529,60.0116225511,Experimento Piloto1,001,127,
0.25,Stim\\02_078.jpg,Al78_18,Alegría,18,Sofía escucha la música.,Afirmación,Al78,78,,,,,,,,,,,,,0,103,103,103,,,,,,,,,1,3.68976833477,3,1.00005488851,2018_may._25_1529,60.0116225511,Experimento Piloto1,001,127,
0.25,Stim\\02_078.jpg,Al78_24,Alegría,24,Guadalupe comenta los resultados con los compañeros.,Afirmación,Al78,78,,,,,,,,,,,,,0,104,104,104,,,,,,,,,1,1.42211766134,2,1.61668851795,2018_may._25_1529,60.0116225511,Experimento Piloto1,001,127,
0.25,Stim\\05_075.jpg,En75_26,Enojo,26,Víctor trae el café a Marco.,Afirmación,En75,75,,,,,,,,,,,,,0,105,105,105,,,,,,,,,1,0.922776769754,2,0.850132044807,2018_may._25_1529,60.0116225511,Experimento Piloto1,001,127,
0.25,Stim\\05_019.jpg,En19_16,Enojo,16,Valeria modifica algunas imágenes.,Afirmación,En19,19,,,,,,,,,,,,,0,106,106,106,,,,,,,,,1,1.4851488639,2,0.333568208573,2018_may._25_1529,60.0116225511,Experimento Piloto1,001,127,
2.5,Stim\\05_019.jpg,En19_21,Enojo,21,Mauro anuncia la actividad.,Afirmación,En19,19,,,,,,,,,,,,,0,107,107,107,,,,,,,,,1,0.923229265305,2,0.300353517729,2018_may._25_1529,60.0116225511,Experimento Piloto1,001,127,
0.25,Stim\\03_028.jpg,Tr28_22,Tristeza,22,Enrique corre todas las mañanas.,Afirmación,Tr28,28,,,,,,,,,,,,,0,108,108,108,,,,,,,,,1,1.12001842112,4,0.533949215183,2018_may._25_1529,60.0116225511,Experimento Piloto1,001,127,
2.5,Stim\\05_075.jpg,En75_28,Enojo,28,Antonio responde la pregunta.,Afirmación,En75,75,,,,,,,,,,,,,0,109,109,109,,,,,,,,,1,2.20243240903,2,0.25038712021,2018_may._25_1529,60.0116225511,Experimento Piloto1,001,127,
2.5,Stim\\05_078.jpg,En78_28,Enojo,28,Antonio responde la pregunta.,Afirmación,En78,78,,,,,,,,,,,,,0,110,110,110,,,,,,,,,1,0.683358873599,2,0.283690168173,2018_may._25_1529,60.0116225511,Experimento Piloto1,001,127,
2.5,Stim\\03_028.jpg,Tr28_26,Tristeza,26,Víctor trae el café a Marco.,Afirmación,Tr28,28,,,,,,,,,,,,,0,111,111,111,,,,,,,,,1,1.28877918128,4,1.15006965932,2018_may._25_1529,60.0116225511,Experimento Piloto1,001,127,
2.5,Stim\\05_028.jpg,En28_20,Enojo,20,Karen analiza la idea.,Afirmación,En28,28,,,,,,,,,,,,,0,112,112,112,,,,,,,,,1,0.926053123156,2,0.916940291114,2018_may._25_1529,60.0116225511,Experimento Piloto1,001,127,
2.5,Stim\\02_019.jpg,Al19_30,Alegría,30,Marisol toma 2 litros de agua cada día.,Afirmación,Al19,19,,,,,,,,,,,,,0,113,113,113,,,,,,,,,1,1.11348534923,3,0.350414073593,2018_may._25_1529,60.0116225511,Experimento Piloto1,001,127,
2.5,Stim\\05_078.jpg,En78_23,Enojo,23,Óscar consigue un nuevo departamento.,Afirmación,En78,78,,,,,,,,,,,,,0,114,114,114,,,,,,,,,1,1.11680007997,2,0.350400686149,2018_may._25_1529,60.0116225511,Experimento Piloto1,001,127,
0.25,Stim\\05_078.jpg,En78_23,Enojo,23,Óscar consigue un nuevo departamento.,Afirmación,En78,78,,,,,,,,,,,,,0,115,115,115,,,,,,,,,1,0.816874514147,2,1.16677227871,2018_may._25_1529,60.0116225511,Experimento Piloto1,001,127,
2.5,Stim\\05_019.jpg,En19_19,Enojo,19,Armando acompaña a Rodrígo a la tienda.,Afirmación,En19,19,,,,,,,,,,,,,0,116,116,116,,,,,,,,,1,1.73130287482,2,1.11668227047,2018_may._25_1529,60.0116225511,Experimento Piloto1,001,127,
2.5,Stim\\03_078.jpg,Tr78_17,Tristeza,17,Brenda sube el autobús en las mañanas.,Afirmación,Tr78,78,,,,,,,,,,,,,0,117,117,117,,,,,,,,,1,0.814686559812,4,0.700120397731,2018_may._25_1529,60.0116225511,Experimento Piloto1,001,127,
0.25,Stim\\05_075.jpg,En75_20,Enojo,20,Karen analiza la idea.,Afirmación,En75,75,,,,,,,,,,,,,0,118,118,118,,,,,,,,,1,1.79253078889,2,1.61664433939,2018_may._25_1529,60.0116225511,Experimento Piloto1,001,127,
0.25,Stim\\05_078.jpg,En78_28,Enojo,28,Antonio responde la pregunta.,Afirmación,En78,78,,,,,,,,,,,,,0,119,119,119,,,,,,,,,1,0.821848395248,2,0.283803961433,2018_may._25_1529,60.0116225511,Experimento Piloto1,001,127,
