Tiempo,ImagenesE,ClaveEn,Emocion,NumEn,Enunciado,ActoHabla,Clave,Cara,trials.thisRepN,trials.thisTrialN,trials.thisN,trials.thisIndex,Bloque2.thisRepN,Bloque2.thisTrialN,Bloque2.thisN,Bloque2.thisIndex,Bloque3.thisRepN,Bloque3.thisTrialN,Bloque3.thisN,Bloque3.thisIndex,Bloque1.thisRepN,Bloque1.thisTrialN,Bloque1.thisN,Bloque1.thisIndex,Sig_B2.keys,Sig_B2.rt,Resp_Bloque2.keys,Resp_Bloque2.rt,Sig_B3.keys,Sig_B3.rt,Resp_Bloque3.keys,Resp_Bloque3.rt,Sig_B1.keys,Sig_B1.rt,Resp_Bloque1.keys,Resp_Bloque1.rt,date,frameRate,expName,session,participant,
2.5,Stim\\02_078.jpg,Al78_17,Alegría,17,Brenda sube el autobús en las mañanas.,Afirmación,Al78,78,,,,,0,0,0,0,,,,,,,,,1,4.01046853371,3,0.600136730412,,,,,,,,,2018_may._29_1114,60.0592309094,Experimento Piloto1,001,128,
2.5,Stim\\05_019.jpg,En19_23,Enojo,23,Óscar consigue un nuevo departamento.,Afirmación,En19,19,,,,,0,1,1,1,,,,,,,,,1,4.61089532537,2,1.46674871681,,,,,,,,,2018_may._29_1114,60.0592309094,Experimento Piloto1,001,128,
0.25,Stim\\02_075.jpg,Al75_17,Alegría,17,Brenda sube el autobús en las mañanas.,Afirmación,Al75,75,,,,,0,2,2,2,,,,,,,,,1,2.29602178762,3,0.650204426245,,,,,,,,,2018_may._29_1114,60.0592309094,Experimento Piloto1,001,128,
2.5,Stim\\02_075.jpg,Al75_24,Alegría,24,Guadalupe comenta los resultados con los compañeros.,Afirmación,Al75,75,,,,,0,3,3,3,,,,,,,,,1,5.82238790918,3,1.26685456686,,,,,,,,,2018_may._29_1114,60.0592309094,Experimento Piloto1,001,128,
0.25,Stim\\05_075.jpg,En75_19,Enojo,19,Armando acompaña a Rodrígo a la tienda.,Afirmación,En75,75,,,,,0,4,4,4,,,,,,,,,1,3.21479258835,2,0.750192556047,,,,,,,,,2018_may._29_1114,60.0592309094,Experimento Piloto1,001,128,
2.5,Stim\\02_019.jpg,Al19_29,Alegría,29,Miriam mira la película.,Afirmación,Al19,19,,,,,0,5,5,5,,,,,,,,,1,3.33998213223,3,0.450326787469,,,,,,,,,2018_may._29_1114,60.0592309094,Experimento Piloto1,001,128,
2.5,Stim\\02_078.jpg,Al78_24,Alegría,24,Guadalupe comenta los resultados con los compañeros.,Afirmación,Al78,78,,,,,0,6,6,6,,,,,,,,,1,2.80739709742,3,0.750213975954,,,,,,,,,2018_may._29_1114,60.0592309094,Experimento Piloto1,001,128,
0.25,Stim\\05_028.jpg,En28_20,Enojo,20,Karen analiza la idea.,Afirmación,En28,28,,,,,0,7,7,7,,,,,,,,,1,1.83972152335,2,1.83316078408,,,,,,,,,2018_may._29_1114,60.0592309094,Experimento Piloto1,001,128,
0.25,Stim\\03_078.jpg,Tr78_27,Tristeza,27,Claudia informa los avances en el reporte.,Afirmación,Tr78,78,,,,,0,8,8,8,,,,,,,,,1,2.49397341968,2,0.900256860395,,,,,,,,,2018_may._29_1114,60.0592309094,Experimento Piloto1,001,128,
0.25,Stim\\02_019.jpg,Al19_30,Alegría,30,Marisol toma 2 litros de agua cada día.,Afirmación,Al19,19,,,,,0,9,9,9,,,,,,,,,1,4.59449526218,3,0.449962202787,,,,,,,,,2018_may._29_1114,60.0592309094,Experimento Piloto1,001,128,
2.5,Stim\\02_019.jpg,Al19_19,Alegría,19,Armando acompaña a Rodrígo a la tienda.,Afirmación,Al19,19,,,,,0,10,10,10,,,,,,,,,1,3.38055590016,3,8.28133219332,,,,,,,,,2018_may._29_1114,60.0592309094,Experimento Piloto1,001,128,
0.25,Stim\\02_028.jpg,Al28_30,Alegría,30,Marisol toma 2 litros de agua cada día.,Afirmación,Al28,28,,,,,0,11,11,11,,,,,,,,,1,1.58240506295,3,0.500287830012,,,,,,,,,2018_may._29_1114,60.0592309094,Experimento Piloto1,001,128,
2.5,Stim\\02_019.jpg,Al19_16,Alegría,16,Valeria modifica algunas imágenes.,Afirmación,Al19,19,,,,,0,12,12,12,,,,,,,,,1,3.16531617123,3,0.400377347376,,,,,,,,,2018_may._29_1114,60.0592309094,Experimento Piloto1,001,128,
2.5,Stim\\03_075.jpg,Tr75_30,Tristeza,30,Marisol toma 2 litros de agua cada día.,Afirmación,Tr75,75,,,,,0,13,13,13,,,,,,,,,1,2.96436664456,4,0.750181399844,,,,,,,,,2018_may._29_1114,60.0592309094,Experimento Piloto1,001,128,
2.5,Stim\\02_078.jpg,Al78_19,Alegría,19,Armando acompaña a Rodrígo a la tienda.,Afirmación,Al78,78,,,,,0,14,14,14,,,,,,,,,1,2.51521036581,3,1.3668449279,,,,,,,,,2018_may._29_1114,60.0592309094,Experimento Piloto1,001,128,
2.5,Stim\\05_075.jpg,En75_25,Enojo,25,Luis decide la comida siguiente.,Afirmación,En75,75,,,,,0,15,15,15,,,,,,,,,1,4.81253028909,2,0.650162032678,,,,,,,,,2018_may._29_1114,60.0592309094,Experimento Piloto1,001,128,
0.25,Stim\\03_075.jpg,Tr75_24,Tristeza,24,Guadalupe comenta los resultados con los compañeros.,Afirmación,Tr75,75,,,,,0,16,16,16,,,,,,,,,1,1.87328562644,4,0.800091123858,,,,,,,,,2018_may._29_1114,60.0592309094,Experimento Piloto1,001,128,
2.5,Stim\\05_078.jpg,En78_25,Enojo,25,Luis decide la comida siguiente.,Afirmación,En78,78,,,,,0,17,17,17,,,,,,,,,1,1.38207492862,2,0.600563789824,,,,,,,,,2018_may._29_1114,60.0592309094,Experimento Piloto1,001,128,
2.5,Stim\\05_028.jpg,En28_17,Enojo,17,Brenda sube el autobús en las mañanas.,Afirmación,En28,28,,,,,0,18,18,18,,,,,,,,,1,2.58662924728,2,0.600386629337,,,,,,,,,2018_may._29_1114,60.0592309094,Experimento Piloto1,001,128,
0.25,Stim\\02_078.jpg,Al78_26,Alegría,26,Víctor trae el café a Marco.,Afirmación,Al78,78,,,,,0,19,19,19,,,,,,,,,1,4.64861087435,3,0.450532507834,,,,,,,,,2018_may._29_1114,60.0592309094,Experimento Piloto1,001,128,
2.5,Stim\\03_075.jpg,Tr75_20,Tristeza,20,Karen analiza la idea.,Afirmación,Tr75,75,,,,,0,20,20,20,,,,,,,,,1,1.85958402539,4,0.483595474331,,,,,,,,,2018_may._29_1114,60.0592309094,Experimento Piloto1,001,128,
2.5,Stim\\05_028.jpg,En28_21,Enojo,21,Mauro anuncia la actividad.,Afirmación,En28,28,,,,,0,21,21,21,,,,,,,,,1,3.03764414929,2,0.650236109859,,,,,,,,,2018_may._29_1114,60.0592309094,Experimento Piloto1,001,128,
0.25,Stim\\05_019.jpg,En19_21,Enojo,21,Mauro anuncia la actividad.,Afirmación,En19,19,,,,,0,22,22,22,,,,,,,,,1,1.63350894683,2,0.816902181529,,,,,,,,,2018_may._29_1114,60.0592309094,Experimento Piloto1,001,128,
0.25,Stim\\03_028.jpg,Tr28_16,Tristeza,16,Valeria modifica algunas imágenes.,Afirmación,Tr28,28,,,,,0,23,23,23,,,,,,,,,1,3.16786201652,4,0.650288767132,,,,,,,,,2018_may._29_1114,60.0592309094,Experimento Piloto1,001,128,
0.25,Stim\\05_075.jpg,En75_27,Enojo,27,Claudia informa los avances en el reporte.,Afirmación,En75,75,,,,,0,24,24,24,,,,,,,,,1,2.08038712913,2,1.06684260741,,,,,,,,,2018_may._29_1114,60.0592309094,Experimento Piloto1,001,128,
2.5,Stim\\02_078.jpg,Al78_18,Alegría,18,Sofía escucha la música.,Afirmación,Al78,78,,,,,0,25,25,25,,,,,,,,,1,2.55773602284,3,0.550333213441,,,,,,,,,2018_may._29_1114,60.0592309094,Experimento Piloto1,001,128,
2.5,Stim\\03_028.jpg,Tr28_25,Tristeza,25,Luis decide la comida siguiente.,Afirmación,Tr28,28,,,,,0,26,26,26,,,,,,,,,1,5.06683368245,4,0.500260162631,,,,,,,,,2018_may._29_1114,60.0592309094,Experimento Piloto1,001,128,
0.25,Stim\\03_075.jpg,Tr75_18,Tristeza,18,Sofía escucha la música.,Afirmación,Tr75,75,,,,,0,27,27,27,,,,,,,,,1,2.05788685469,4,0.533710472461,,,,,,,,,2018_may._29_1114,60.0592309094,Experimento Piloto1,001,128,
2.5,Stim\\02_028.jpg,Al28_27,Alegría,27,Claudia informa los avances en el reporte.,Afirmación,Al28,28,,,,,0,28,28,28,,,,,,,,,1,1.48036151449,3,0.550377392001,,,,,,,,,2018_may._29_1114,60.0592309094,Experimento Piloto1,001,128,
2.5,Stim\\02_028.jpg,Al28_20,Alegría,20,Karen analiza la idea.,Afirmación,Al28,28,,,,,0,29,29,29,,,,,,,,,1,4.67466105227,3,0.650191038803,,,,,,,,,2018_may._29_1114,60.0592309094,Experimento Piloto1,001,128,
0.25,Stim\\05_078.jpg,En78_29,Enojo,29,Miriam mira la película.,Afirmación,En78,78,,,,,0,30,30,30,,,,,,,,,1,1.84143556222,2,0.65025217479,,,,,,,,,2018_may._29_1114,60.0592309094,Experimento Piloto1,001,128,
0.25,Stim\\05_019.jpg,En19_22,Enojo,22,Enrique corre todas las mañanas.,Afirmación,En19,19,,,,,0,31,31,31,,,,,,,,,1,1.68598638229,2,0.60027417482,,,,,,,,,2018_may._29_1114,60.0592309094,Experimento Piloto1,001,128,
2.5,Stim\\03_019.jpg,Tr19_20,Tristeza,20,Karen analiza la idea.,Afirmación,Tr19,19,,,,,0,32,32,32,,,,,,,,,1,4.5578859622,4,1.16664554426,,,,,,,,,2018_may._29_1114,60.0592309094,Experimento Piloto1,001,128,
2.5,Stim\\05_078.jpg,En78_22,Enojo,22,Enrique corre todas las mañanas.,Afirmación,En78,78,,,,,0,33,33,33,,,,,,,,,1,7.28506282727,2,0.900035521347,,,,,,,,,2018_may._29_1114,60.0592309094,Experimento Piloto1,001,128,
2.5,Stim\\02_078.jpg,Al78_16,Alegría,16,Valeria modifica algunas imágenes.,Afirmación,Al78,78,,,,,0,34,34,34,,,,,,,,,1,2.05129353931,3,0.433821409733,,,,,,,,,2018_may._29_1114,60.0592309094,Experimento Piloto1,001,128,
2.5,Stim\\05_028.jpg,En28_24,Enojo,24,Guadalupe comenta los resultados con los compañeros.,Afirmación,En28,28,,,,,0,35,35,35,,,,,,,,,1,14.0869193085,2,0.650240126092,,,,,,,,,2018_may._29_1114,60.0592309094,Experimento Piloto1,001,128,
2.5,Stim\\02_075.jpg,Al75_16,Alegría,16,Valeria modifica algunas imágenes.,Afirmación,Al75,75,,,,,0,36,36,36,,,,,,,,,1,2.51727961815,3,0.433675932859,,,,,,,,,2018_may._29_1114,60.0592309094,Experimento Piloto1,001,128,
0.25,Stim\\02_019.jpg,Al19_18,Alegría,18,Sofía escucha la música.,Afirmación,Al19,19,,,,,0,37,37,37,,,,,,,,,1,2.67440579837,3,0.383599312064,,,,,,,,,2018_may._29_1114,60.0592309094,Experimento Piloto1,001,128,
2.5,Stim\\02_028.jpg,Al28_26,Alegría,26,Víctor trae el café a Marco.,Afirmación,Al28,28,,,,,0,38,38,38,,,,,,,,,1,2.77160041519,3,0.500251237669,,,,,,,,,2018_may._29_1114,60.0592309094,Experimento Piloto1,001,128,
2.5,Stim\\02_078.jpg,Al78_29,Alegría,29,Miriam mira la película.,Afirmación,Al78,78,,,,,0,39,39,39,,,,,,,,,1,2.25739232257,3,0.500291399996,,,,,,,,,2018_may._29_1114,60.0592309094,Experimento Piloto1,001,128,
0.25,Stim\\05_078.jpg,En78_24,Enojo,24,Guadalupe comenta los resultados con los compañeros.,Afirmación,En78,78,,,,,0,40,40,40,,,,,,,,,1,1.87077994347,2,0.450270113963,,,,,,,,,2018_may._29_1114,60.0592309094,Experimento Piloto1,001,128,
0.25,Stim\\03_075.jpg,Tr75_19,Tristeza,19,Armando acompaña a Rodrígo a la tienda.,Afirmación,Tr75,75,,,,,0,41,41,41,,,,,,,,,1,1.56546102335,4,0.600408495493,,,,,,,,,2018_may._29_1114,60.0592309094,Experimento Piloto1,001,128,
0.25,Stim\\02_028.jpg,Al28_17,Alegría,17,Brenda sube el autobús en las mañanas.,Afirmación,Al28,28,,,,,0,42,42,42,,,,,,,,,1,2.29875059463,3,0.500257038894,,,,,,,,,2018_may._29_1114,60.0592309094,Experimento Piloto1,001,128,
2.5,Stim\\05_075.jpg,En75_21,Enojo,21,Mauro anuncia la actividad.,Afirmación,En75,75,,,,,0,43,43,43,,,,,,,,,1,1.43907999711,2,0.600012227197,,,,,,,,,2018_may._29_1114,60.0592309094,Experimento Piloto1,001,128,
0.25,Stim\\03_019.jpg,Tr19_27,Tristeza,27,Claudia informa los avances en el reporte.,Afirmación,Tr19,19,,,,,0,44,44,44,,,,,,,,,1,2.22962542829,4,0.85043103102,,,,,,,,,2018_may._29_1114,60.0592309094,Experimento Piloto1,001,128,
2.5,Stim\\02_075.jpg,Al75_19,Alegría,19,Armando acompaña a Rodrígo a la tienda.,Afirmación,Al75,75,,,,,0,45,45,45,,,,,,,,,1,5.18086613182,3,0.450275915188,,,,,,,,,2018_may._29_1114,60.0592309094,Experimento Piloto1,001,128,
2.5,Stim\\03_019.jpg,Tr19_22,Tristeza,22,Enrique corre todas las mañanas.,Afirmación,Tr19,19,,,,,0,46,46,46,,,,,,,,,1,1.63668623316,4,0.750127403827,,,,,,,,,2018_may._29_1114,60.0592309094,Experimento Piloto1,001,128,
2.5,Stim\\02_075.jpg,Al75_23,Alegría,23,Óscar consigue un nuevo departamento.,Afirmación,Al75,75,,,,,0,47,47,47,,,,,,,,,1,2.71683328082,3,0.700312284406,,,,,,,,,2018_may._29_1114,60.0592309094,Experimento Piloto1,001,128,
2.5,Stim\\02_019.jpg,Al19_27,Alegría,27,Claudia informa los avances en el reporte.,Afirmación,Al19,19,,,,,0,48,48,48,,,,,,,,,1,2.54599166587,3,0.600397785538,,,,,,,,,2018_may._29_1114,60.0592309094,Experimento Piloto1,001,128,
2.5,Stim\\03_028.jpg,Tr28_16,Tristeza,16,Valeria modifica algunas imágenes.,Afirmación,Tr28,28,,,,,0,49,49,49,,,,,,,,,1,3.13222955358,4,0.750222454668,,,,,,,,,2018_may._29_1114,60.0592309094,Experimento Piloto1,001,128,
2.5,Stim\\02_078.jpg,Al78_20,Alegría,20,Karen analiza la idea.,Afirmación,Al78,78,,,,,0,50,50,50,,,,,,,,,1,1.5927941645,3,0.600238474974,,,,,,,,,2018_may._29_1114,60.0592309094,Experimento Piloto1,001,128,
2.5,Stim\\05_075.jpg,En75_24,Enojo,24,Guadalupe comenta los resultados con los compañeros.,Afirmación,En75,75,,,,,0,51,51,51,,,,,,,,,1,4.38948353925,2,1.21678151605,,,,,,,,,2018_may._29_1114,60.0592309094,Experimento Piloto1,001,128,
0.25,Stim\\03_028.jpg,Tr28_26,Tristeza,26,Víctor trae el café a Marco.,Afirmación,Tr28,28,,,,,0,52,52,52,,,,,,,,,1,1.32179172174,4,0.80020000839,,,,,,,,,2018_may._29_1114,60.0592309094,Experimento Piloto1,001,128,
2.5,Stim\\03_028.jpg,Tr28_21,Tristeza,21,Mauro anuncia la actividad.,Afirmación,Tr28,28,,,,,0,53,53,53,,,,,,,,,1,1.23997927624,4,0.500278458802,,,,,,,,,2018_may._29_1114,60.0592309094,Experimento Piloto1,001,128,
2.5,Stim\\02_075.jpg,Al75_29,Alegría,29,Miriam mira la película.,Afirmación,Al75,75,,,,,0,54,54,54,,,,,,,,,1,2.15767818909,3,1.3666945423,,,,,,,,,2018_may._29_1114,60.0592309094,Experimento Piloto1,001,128,
0.25,Stim\\03_078.jpg,Tr78_26,Tristeza,26,Víctor trae el café a Marco.,Afirmación,Tr78,78,,,,,0,55,55,55,,,,,,,,,1,1.22132923023,4,0.333682894329,,,,,,,,,2018_may._29_1114,60.0592309094,Experimento Piloto1,001,128,
0.25,Stim\\05_019.jpg,En19_19,Enojo,19,Armando acompaña a Rodrígo a la tienda.,Afirmación,En19,19,,,,,0,56,56,56,,,,,,,,,1,1.48160386915,2,0.400052925022,,,,,,,,,2018_may._29_1114,60.0592309094,Experimento Piloto1,001,128,
0.25,Stim\\03_078.jpg,Tr78_19,Tristeza,19,Armando acompaña a Rodrígo a la tienda.,Afirmación,Tr78,78,,,,,0,57,57,57,,,,,,,,,1,1.68345124695,4,0.400477753195,,,,,,,,,2018_may._29_1114,60.0592309094,Experimento Piloto1,001,128,
2.5,Stim\\03_078.jpg,Tr78_18,Tristeza,18,Sofía escucha la música.,Afirmación,Tr78,78,,,,,0,58,58,58,,,,,,,,,1,1.6914225764,4,0.600368333165,,,,,,,,,2018_may._29_1114,60.0592309094,Experimento Piloto1,001,128,
2.5,Stim\\05_075.jpg,En75_26,Enojo,26,Víctor trae el café a Marco.,Afirmación,En75,75,,,,,0,59,59,59,,,,,,,,,1,0.972891321635,2,0.450276807684,,,,,,,,,2018_may._29_1114,60.0592309094,Experimento Piloto1,001,128,
2.5,Stim\\02_075.jpg,Al75_30,Alegría,30,Marisol toma 2 litros de agua cada día.,Afirmación,Al75,75,,,,,0,60,60,60,,,,,,,,,1,1.08350015574,3,0.400112722265,,,,,,,,,2018_may._29_1114,60.0592309094,Experimento Piloto1,001,128,
2.5,Stim\\03_019.jpg,Tr19_18,Tristeza,18,Sofía escucha la música.,Afirmación,Tr19,19,,,,,0,61,61,61,,,,,,,,,1,2.30805531334,4,1.36677709819,,,,,,,,,2018_may._29_1114,60.0592309094,Experimento Piloto1,001,128,
0.25,Stim\\03_078.jpg,Tr78_23,Tristeza,23,Óscar consigue un nuevo departamento.,Afirmación,Tr78,78,,,,,0,62,62,62,,,,,,,,,1,1.21629599814,4,0.350420321067,,,,,,,,,2018_may._29_1114,60.0592309094,Experimento Piloto1,001,128,
2.5,Stim\\03_019.jpg,Tr19_25,Tristeza,25,Luis decide la comida siguiente.,Afirmación,Tr19,19,,,,,0,63,63,63,,,,,,,,,1,1.83459859539,4,0.400359497453,,,,,,,,,2018_may._29_1114,60.0592309094,Experimento Piloto1,001,128,
0.25,Stim\\02_028.jpg,Al28_29,Alegría,29,Miriam mira la película.,Afirmación,Al28,28,,,,,0,64,64,64,,,,,,,,,1,1.12419708814,3,0.34968267299,,,,,,,,,2018_may._29_1114,60.0592309094,Experimento Piloto1,001,128,
2.5,Stim\\02_019.jpg,Al19_21,Alegría,21,Mauro anuncia la actividad.,Afirmación,Al19,19,,,,,0,65,65,65,,,,,,,,,1,2.60502716312,3,1.16702128514,,,,,,,,,2018_may._29_1114,60.0592309094,Experimento Piloto1,001,128,
2.5,Stim\\02_078.jpg,Al78_25,Alegría,25,Luis decide la comida siguiente.,Afirmación,Al78,78,,,,,0,66,66,66,,,,,,,,,1,1.48455133772,3,0.333848898615,,,,,,,,,2018_may._29_1114,60.0592309094,Experimento Piloto1,001,128,
2.5,Stim\\05_075.jpg,En75_29,Enojo,29,Miriam mira la película.,Afirmación,En75,75,,,,,0,67,67,67,,,,,,,,,1,1.2907489203,2,1.56681984876,,,,,,,,,2018_may._29_1114,60.0592309094,Experimento Piloto1,001,128,
0.25,Stim\\03_028.jpg,Tr28_20,Tristeza,20,Karen analiza la idea.,Afirmación,Tr28,28,,,,,0,68,68,68,,,,,,,,,1,1.0755734511,4,0.550344369643,,,,,,,,,2018_may._29_1114,60.0592309094,Experimento Piloto1,001,128,
2.5,Stim\\02_075.jpg,Al75_26,Alegría,26,Víctor trae el café a Marco.,Afirmación,Al75,75,,,,,0,69,69,69,,,,,,,,,1,2.40329223984,3,0.400264446612,,,,,,,,,2018_may._29_1114,60.0592309094,Experimento Piloto1,001,128,
0.25,Stim\\05_019.jpg,En19_20,Enojo,20,Karen analiza la idea.,Afirmación,En19,19,,,,,0,70,70,70,,,,,,,,,1,1.32627963868,2,0.250294300609,,,,,,,,,2018_may._29_1114,60.0592309094,Experimento Piloto1,001,128,
0.25,Stim\\05_028.jpg,En28_22,Enojo,22,Enrique corre todas las mañanas.,Afirmación,En28,28,,,,,0,71,71,71,,,,,,,,,1,1.37021053092,2,0.400352357484,,,,,,,,,2018_may._29_1114,60.0592309094,Experimento Piloto1,001,128,
2.5,Stim\\05_028.jpg,En28_22,Enojo,22,Enrique corre todas las mañanas.,Afirmación,En28,28,,,,,0,72,72,72,,,,,,,,,1,1.54992311146,2,0.700194474913,,,,,,,,,2018_may._29_1114,60.0592309094,Experimento Piloto1,001,128,
0.25,Stim\\05_019.jpg,En19_17,Enojo,17,Brenda sube el autobús en las mañanas.,Afirmación,En19,19,,,,,0,73,73,73,,,,,,,,,1,1.01526168434,2,0.333623989583,,,,,,,,,2018_may._29_1114,60.0592309094,Experimento Piloto1,001,128,
2.5,Stim\\05_078.jpg,En78_26,Enojo,26,Víctor trae el café a Marco.,Afirmación,En78,78,,,,,0,74,74,74,,,,,,,,,1,0.772472383938,2,0.283840107528,,,,,,,,,2018_may._29_1114,60.0592309094,Experimento Piloto1,001,128,
2.5,Stim\\03_078.jpg,Tr78_29,Tristeza,29,Miriam mira la película.,Afirmación,Tr78,78,,,,,0,75,75,75,,,,,,,,,1,0.325036391531,4,0.333768573961,,,,,,,,,2018_may._29_1114,60.0592309094,Experimento Piloto1,001,128,
0.25,Stim\\02_075.jpg,Al75_22,Alegría,22,Enrique corre todas las mañanas.,Afirmación,Al75,75,,,,,0,76,76,76,,,,,,,,,1,1.16973715096,3,0.500264178863,,,,,,,,,2018_may._29_1114,60.0592309094,Experimento Piloto1,001,128,
2.5,Stim\\02_019.jpg,Al19_23,Alegría,23,Óscar consigue un nuevo departamento.,Afirmación,Al19,19,,,,,0,77,77,77,,,,,,,,,1,1.73228774433,3,0.400350126244,,,,,,,,,2018_may._29_1114,60.0592309094,Experimento Piloto1,001,128,
0.25,Stim\\05_075.jpg,En75_21,Enojo,21,Mauro anuncia la actividad.,Afirmación,En75,75,,,,,0,78,78,78,,,,,,,,,1,1.47226300434,2,0.250227363397,,,,,,,,,2018_may._29_1114,60.0592309094,Experimento Piloto1,001,128,
0.25,Stim\\02_078.jpg,Al78_25,Alegría,25,Luis decide la comida siguiente.,Afirmación,Al78,78,,,,,0,79,79,79,,,,,,,,,1,2.50200900886,2,0.333740460332,,,,,,,,,2018_may._29_1114,60.0592309094,Experimento Piloto1,001,128,
0.25,Stim\\03_078.jpg,Tr78_22,Tristeza,22,Enrique corre todas las mañanas.,Afirmación,Tr78,78,,,,,0,80,80,80,,,,,,,,,1,4.4474145725,4,0.300362888939,,,,,,,,,2018_may._29_1114,60.0592309094,Experimento Piloto1,001,128,
0.25,Stim\\05_028.jpg,En28_26,Enojo,26,Víctor trae el café a Marco.,Afirmación,En28,28,,,,,0,81,81,81,,,,,,,,,1,2.50469809979,2,0.55032651972,,,,,,,,,2018_may._29_1114,60.0592309094,Experimento Piloto1,001,128,
2.5,Stim\\05_019.jpg,En19_29,Enojo,29,Miriam mira la película.,Afirmación,En19,19,,,,,0,82,82,82,,,,,,,,,1,0.974464346117,2,1.06678548766,,,,,,,,,2018_may._29_1114,60.0592309094,Experimento Piloto1,001,128,
0.25,Stim\\02_019.jpg,Al19_21,Alegría,21,Mauro anuncia la actividad.,Afirmación,Al19,19,,,,,0,83,83,83,,,,,,,,,1,0.856609781936,3,0.400261322876,,,,,,,,,2018_may._29_1114,60.0592309094,Experimento Piloto1,001,128,
2.5,Stim\\05_078.jpg,En78_30,Enojo,30,Marisol toma 2 litros de agua cada día.,Afirmación,En78,78,,,,,0,84,84,84,,,,,,,,,1,0.449028651804,2,0.700359140455,,,,,,,,,2018_may._29_1114,60.0592309094,Experimento Piloto1,001,128,
0.25,Stim\\02_078.jpg,Al78_30,Alegría,30,Marisol toma 2 litros de agua cada día.,Afirmación,Al78,78,,,,,0,85,85,85,,,,,,,,,1,2.0665204163,3,0.233683162078,,,,,,,,,2018_may._29_1114,60.0592309094,Experimento Piloto1,001,128,
0.25,Stim\\03_075.jpg,Tr75_16,Tristeza,16,Valeria modifica algunas imágenes.,Afirmación,Tr75,75,,,,,0,86,86,86,,,,,,,,,1,1.26549886519,4,0.300361550194,,,,,,,,,2018_may._29_1114,60.0592309094,Experimento Piloto1,001,128,
0.25,Stim\\02_019.jpg,Al19_24,Alegría,24,Guadalupe comenta los resultados con los compañeros.,Afirmación,Al19,19,,,,,0,87,87,87,,,,,,,,,1,4.48991434714,3,0.183683295953,,,,,,,,,2018_may._29_1114,60.0592309094,Experimento Piloto1,001,128,
2.5,Stim\\02_028.jpg,Al28_29,Alegría,29,Miriam mira la película.,Afirmación,Al28,28,,,,,0,88,88,88,,,,,,,,,1,0.408517804852,3,0.400335846305,,,,,,,,,2018_may._29_1114,60.0592309094,Experimento Piloto1,001,128,
0.25,Stim\\03_019.jpg,Tr19_25,Tristeza,25,Luis decide la comida siguiente.,Afirmación,Tr19,19,,,,,0,89,89,89,,,,,,,,,1,2.20160774258,4,0.383820651112,,,,,,,,,2018_may._29_1114,60.0592309094,Experimento Piloto1,001,128,
0.25,Stim\\03_075.jpg,Tr75_25,Tristeza,25,Luis decide la comida siguiente.,Afirmación,Tr75,75,,,,,0,90,90,90,,,,,,,,,1,1.94985733449,4,0.300234369492,,,,,,,,,2018_may._29_1114,60.0592309094,Experimento Piloto1,001,128,
2.5,Stim\\03_078.jpg,Tr78_25,Tristeza,25,Luis decide la comida siguiente.,Afirmación,Tr78,78,,,,,0,91,91,91,,,,,,,,,1,1.23348235044,4,0.600319692125,,,,,,,,,2018_may._29_1114,60.0592309094,Experimento Piloto1,001,128,
2.5,Stim\\02_019.jpg,Al19_18,Alegría,18,Sofía escucha la música.,Afirmación,Al19,19,,,,,0,92,92,92,,,,,,,,,1,0.375111673582,3,0.283692845661,,,,,,,,,2018_may._29_1114,60.0592309094,Experimento Piloto1,001,128,
2.5,Stim\\03_028.jpg,Tr28_19,Tristeza,19,Armando acompaña a Rodrígo a la tienda.,Afirmación,Tr28,28,,,,,0,93,93,93,,,,,,,,,1,0.515055963972,4,0.583656788817,,,,,,,,,2018_may._29_1114,60.0592309094,Experimento Piloto1,001,128,
0.25,Stim\\03_078.jpg,Tr78_18,Tristeza,18,Sofía escucha la música.,Afirmación,Tr78,78,,,,,0,94,94,94,,,,,,,,,1,0.874814918609,4,0.400229193014,,,,,,,,,2018_may._29_1114,60.0592309094,Experimento Piloto1,001,128,
0.25,Stim\\05_019.jpg,En19_29,Enojo,29,Miriam mira la película.,Afirmación,En19,19,,,,,0,95,95,95,,,,,,,,,1,1.0077053656,2,0.66668927657,,,,,,,,,2018_may._29_1114,60.0592309094,Experimento Piloto1,001,128,
2.5,Stim\\03_078.jpg,Tr78_24,Tristeza,24,Guadalupe comenta los resultados con los compañeros.,Afirmación,Tr78,78,,,,,0,96,96,96,,,,,,,,,1,0.636019984774,4,0.550284572401,,,,,,,,,2018_may._29_1114,60.0592309094,Experimento Piloto1,001,128,
2.5,Stim\\05_019.jpg,En19_22,Enojo,22,Enrique corre todas las mañanas.,Afirmación,En19,19,,,,,0,97,97,97,,,,,,,,,1,0.304013198233,2,0.450275915188,,,,,,,,,2018_may._29_1114,60.0592309094,Experimento Piloto1,001,128,
0.25,Stim\\02_028.jpg,Al28_20,Alegría,20,Karen analiza la idea.,Afirmación,Al28,28,,,,,0,98,98,98,,,,,,,,,1,1.64275788453,3,0.333844882382,,,,,,,,,2018_may._29_1114,60.0592309094,Experimento Piloto1,001,128,
2.5,Stim\\03_078.jpg,Tr78_27,Tristeza,27,Claudia informa los avances en el reporte.,Afirmación,Tr78,78,,,,,0,99,99,99,,,,,,,,,1,1.17991249968,4,0.700190012433,,,,,,,,,2018_may._29_1114,60.0592309094,Experimento Piloto1,001,128,
0.25,Stim\\03_075.jpg,Tr75_17,Tristeza,17,Brenda sube el autobús en las mañanas.,Afirmación,Tr75,75,,,,,0,100,100,100,,,,,,,,,1,1.16338034706,4,0.60030675093,,,,,,,,,2018_may._29_1114,60.0592309094,Experimento Piloto1,001,128,
2.5,Stim\\05_028.jpg,En28_25,Enojo,25,Luis decide la comida siguiente.,Afirmación,En28,28,,,,,0,101,101,101,,,,,,,,,1,0.702166445179,2,0.816840599293,,,,,,,,,2018_may._29_1114,60.0592309094,Experimento Piloto1,001,128,
2.5,Stim\\02_028.jpg,Tr28_30,Tristeza,30,Marisol toma 2 litros de agua cada día.,Afirmación,Tr28,28,,,,,0,102,102,102,,,,,,,,,1,0.648780002374,3,0.40038805733,,,,,,,,,2018_may._29_1114,60.0592309094,Experimento Piloto1,001,128,
0.25,Stim\\02_078.jpg,Al78_18,Alegría,18,Sofía escucha la música.,Afirmación,Al78,78,,,,,0,103,103,103,,,,,,,,,1,1.49056676184,3,0.333615957117,,,,,,,,,2018_may._29_1114,60.0592309094,Experimento Piloto1,001,128,
0.25,Stim\\02_078.jpg,Al78_24,Alegría,24,Guadalupe comenta los resultados con los compañeros.,Afirmación,Al78,78,,,,,0,104,104,104,,,,,,,,,1,2.44105464486,3,0.350368556289,,,,,,,,,2018_may._29_1114,60.0592309094,Experimento Piloto1,001,128,
0.25,Stim\\05_075.jpg,En75_26,Enojo,26,Víctor trae el café a Marco.,Afirmación,En75,75,,,,,0,105,105,105,,,,,,,,,1,1.88886280817,2,0.383714444069,,,,,,,,,2018_may._29_1114,60.0592309094,Experimento Piloto1,001,128,
0.25,Stim\\05_019.jpg,En19_16,Enojo,16,Valeria modifica algunas imágenes.,Afirmación,En19,19,,,,,0,106,106,106,,,,,,,,,1,1.43552875489,2,0.450093845971,,,,,,,,,2018_may._29_1114,60.0592309094,Experimento Piloto1,001,128,
2.5,Stim\\05_019.jpg,En19_21,Enojo,21,Mauro anuncia la actividad.,Afirmación,En19,19,,,,,0,107,107,107,,,,,,,,,1,0.306067278146,2,0.900275156566,,,,,,,,,2018_may._29_1114,60.0592309094,Experimento Piloto1,001,128,
0.25,Stim\\03_028.jpg,Tr28_22,Tristeza,22,Enrique corre todas las mañanas.,Afirmación,Tr28,28,,,,,0,108,108,108,,,,,,,,,1,0.920411654929,4,0.600217055066,,,,,,,,,2018_may._29_1114,60.0592309094,Experimento Piloto1,001,128,
2.5,Stim\\05_075.jpg,En75_28,Enojo,28,Antonio responde la pregunta.,Afirmación,En75,75,,,,,0,109,109,109,,,,,,,,,1,0.770920779363,2,2.18306256487,,,,,,,,,2018_may._29_1114,60.0592309094,Experimento Piloto1,001,128,
2.5,Stim\\05_078.jpg,En78_28,Enojo,28,Antonio responde la pregunta.,Afirmación,En78,78,,,,,0,110,110,110,,,,,,,,,1,0.566988084284,2,0.700261858373,,,,,,,,,2018_may._29_1114,60.0592309094,Experimento Piloto1,001,128,
2.5,Stim\\03_028.jpg,Tr28_26,Tristeza,26,Víctor trae el café a Marco.,Afirmación,Tr28,28,,,,,0,111,111,111,,,,,,,,,1,0.37195580716,4,1.15016381767,,,,,,,,,2018_may._29_1114,60.0592309094,Experimento Piloto1,001,128,
2.5,Stim\\05_028.jpg,En28_20,Enojo,20,Karen analiza la idea.,Afirmación,En28,28,,,,,0,112,112,112,,,,,,,,,1,1.24321145108,2,0.700205184867,,,,,,,,,2018_may._29_1114,60.0592309094,Experimento Piloto1,001,128,
2.5,Stim\\02_019.jpg,Al19_30,Alegría,30,Marisol toma 2 litros de agua cada día.,Afirmación,Al19,19,,,,,0,113,113,113,,,,,,,,,1,1.25592372014,3,1.51662541847,,,,,,,,,2018_may._29_1114,60.0592309094,Experimento Piloto1,001,128,
2.5,Stim\\05_078.jpg,En78_23,Enojo,23,Óscar consigue un nuevo departamento.,Afirmación,En78,78,,,,,0,114,114,114,,,,,,,,,1,0.349421171615,2,0.40033004508,,,,,,,,,2018_may._29_1114,60.0592309094,Experimento Piloto1,001,128,
0.25,Stim\\05_078.jpg,En78_23,Enojo,23,Óscar consigue un nuevo departamento.,Afirmación,En78,78,,,,,0,115,115,115,,,,,,,,,1,1.13346566076,2,0.333804720055,,,,,,,,,2018_may._29_1114,60.0592309094,Experimento Piloto1,001,128,
2.5,Stim\\05_019.jpg,En19_19,Enojo,19,Armando acompaña a Rodrígo a la tienda.,Afirmación,En19,19,,,,,0,116,116,116,,,,,,,,,1,0.298780939495,2,0.550407736871,,,,,,,,,2018_may._29_1114,60.0592309094,Experimento Piloto1,001,128,
2.5,Stim\\03_078.jpg,Tr78_17,Tristeza,17,Brenda sube el autobús en las mañanas.,Afirmación,Tr78,78,,,,,0,117,117,117,,,,,,,,,1,0.365871660837,4,0.283424650565,,,,,,,,,2018_may._29_1114,60.0592309094,Experimento Piloto1,001,128,
0.25,Stim\\05_075.jpg,En75_20,Enojo,20,Karen analiza la idea.,Afirmación,En75,75,,,,,0,118,118,118,,,,,,,,,1,1.69236148236,2,0.183740861955,,,,,,,,,2018_may._29_1114,60.0592309094,Experimento Piloto1,001,128,
0.25,Stim\\05_078.jpg,En78_28,Enojo,28,Antonio responde la pregunta.,Afirmación,En78,78,,,,,0,119,119,119,,,,,,,,,1,0.872283353251,2,1.05030063733,,,,,,,,,2018_may._29_1114,60.0592309094,Experimento Piloto1,001,128,
2.5,Stim\\03_019.jpg,Tr19_16,Tristeza,16,Valeria modifica algunas imágenes.,Afirmación,Tr19,19,,,,,,,,,0,0,0,0,,,,,,,,,1,6.44926784078,4,0.383710427836,,,,,2018_may._29_1114,60.0592309094,Experimento Piloto1,001,128,
2.5,Stim\\05_078.jpg,En78_19,Enojo,19,Armando acompaña a Rodrígo a la tienda.,Afirmación,En78,78,,,,,,,,,0,1,1,1,,,,,,,,,1,0.980977783093,2,0.433837920912,,,,,2018_may._29_1114,60.0592309094,Experimento Piloto1,001,128,
2.5,Stim\\02_075.jpg,Al75_21,Alegría,21,Mauro anuncia la actividad.,Afirmación,Al75,75,,,,,,,,,0,2,2,2,,,,,,,,,1,1.48938465067,3,0.350322146489,,,,,2018_may._29_1114,60.0592309094,Experimento Piloto1,001,128,
0.25,Stim\\02_075.jpg,Al75_16,Alegría,16,Valeria modifica algunas imágenes.,Afirmación,Al75,75,,,,,,,,,0,3,3,3,,,,,,,,,1,1.21904533256,3,1.16668526034,,,,,2018_may._29_1114,60.0592309094,Experimento Piloto1,001,128,
0.25,Stim\\05_078.jpg,En78_30,Enojo,30,Marisol toma 2 litros de agua cada día.,Afirmación,En78,78,,,,,,,,,0,4,4,4,,,,,,,,,1,1.46482851133,2,0.450255834024,,,,,2018_may._29_1114,60.0592309094,Experimento Piloto1,001,128,
0.25,Stim\\02_019.jpg,Al19_22,Alegría,22,Enrique corre todas las mañanas.,Afirmación,Al19,19,,,,,,,,,0,5,5,5,,,,,,,,,1,1.12029241744,3,0.283807531418,,,,,2018_may._29_1114,60.0592309094,Experimento Piloto1,001,128,
2.5,Stim\\05_028.jpg,En28_23,Enojo,23,Óscar consigue un nuevo departamento.,Afirmación,En28,28,,,,,,,,,0,6,6,6,,,,,,,,,1,3.48224245015,2,0.750375964007,,,,,2018_may._29_1114,60.0592309094,Experimento Piloto1,001,128,
0.25,Stim\\03_019.jpg,Tr19_16,Tristeza,16,Valeria modifica algunas imágenes.,Afirmación,Tr19,19,,,,,,,,,0,7,7,7,,,,,,,,,1,3.73374028183,2,0.750238073351,,,,,2018_may._29_1114,60.0592309094,Experimento Piloto1,001,128,
0.25,Stim\\02_078.jpg,Al78_17,Alegría,17,Brenda sube el autobús en las mañanas.,Afirmación,Al78,78,,,,,,,,,0,8,8,8,,,,,,,,,1,1.11531585885,3,0.35047297834,,,,,2018_may._29_1114,60.0592309094,Experimento Piloto1,001,128,
0.25,Stim\\02_078.jpg,Al78_16,Alegría,16,Valeria modifica algunas imágenes.,Afirmación,Al78,78,,,,,,,,,0,9,9,9,,,,,,,,,1,0.752548299661,3,0.350346690133,,,,,2018_may._29_1114,60.0592309094,Experimento Piloto1,001,128,
0.25,Stim\\05_075.jpg,En75_22,Enojo,22,Enrique corre todas las mañanas.,Afirmación,En75,75,,,,,,,,,0,10,10,10,,,,,,,,,1,0.700921413036,2,0.400285420272,,,,,2018_may._29_1114,60.0592309094,Experimento Piloto1,001,128,
0.25,Stim\\02_028.jpg,Al28_26,Alegría,26,Víctor trae el café a Marco.,Afirmación,Al28,28,,,,,,,,,0,11,11,11,,,,,,,,,1,1.58819290055,3,0.33365254946,,,,,2018_may._29_1114,60.0592309094,Experimento Piloto1,001,128,
2.5,Stim\\03_075.jpg,Tr75_28,Tristeza,28,Antonio responde la pregunta.,Afirmación,Tr75,75,,,,,,,,,0,12,12,12,,,,,,,,,1,0.404762627259,4,0.600423221679,,,,,2018_may._29_1114,60.0592309094,Experimento Piloto1,001,128,
0.25,Stim\\05_075.jpg,En75_23,Enojo,23,Óscar consigue un nuevo departamento.,Afirmación,En75,75,,,,,,,,,0,13,13,13,,,,,,,,,1,0.963479503379,2,0.500369047162,,,,,2018_may._29_1114,60.0592309094,Experimento Piloto1,001,128,
2.5,Stim\\02_078.jpg,Al78_28,Alegría,28,Antonio responde la pregunta.,Afirmación,Al78,78,,,,,,,,,0,14,14,14,,,,,,,,,1,1.1215106747,3,1.416735017,,,,,2018_may._29_1114,60.0592309094,Experimento Piloto1,001,128,
2.5,Stim\\02_028.jpg,Al28_18,Alegría,18,Sofía escucha la música.,Afirmación,Al28,28,,,,,,,,,0,15,15,15,,,,,,,,,1,1.80801738226,3,0.383672050501,,,,,2018_may._29_1114,60.0592309094,Experimento Piloto1,001,128,
2.5,Stim\\02_019.jpg,Al19_22,Alegría,22,Enrique corre todas las mañanas.,Afirmación,Al19,19,,,,,,,,,0,16,16,16,,,,,,,,,1,0.368277384237,3,0.283678119475,,,,,2018_may._29_1114,60.0592309094,Experimento Piloto1,001,128,
2.5,Stim\\05_028.jpg,En28_28,Enojo,28,Antonio responde la pregunta.,Afirmación,En28,28,,,,,,,,,0,17,17,17,,,,,,,,,1,0.871347124779,2,0.400191261927,,,,,2018_may._29_1114,60.0592309094,Experimento Piloto1,001,128,
0.25,Stim\\03_078.jpg,Tr78_30,Tristeza,30,Marisol toma 2 litros de agua cada día.,Afirmación,Tr78,78,,,,,,,,,0,18,18,18,,,,,,,,,1,1.46509358268,4,0.400219821804,,,,,2018_may._29_1114,60.0592309094,Experimento Piloto1,001,128,
0.25,Stim\\03_019.jpg,Tr19_20,Tristeza,20,Karen analiza la idea.,Afirmación,Tr19,19,,,,,,,,,0,19,19,19,,,,,,,,,1,13.6886991244,3,1.93327520208,,,,,2018_may._29_1114,60.0592309094,Experimento Piloto1,001,128,
0.25,Stim\\05_028.jpg,En28_19,Enojo,19,Armando acompaña a Rodrígo a la tienda.,Afirmación,En28,28,,,,,,,,,0,20,20,20,,,,,,,,,1,0.797702804134,2,0.400392966059,,,,,2018_may._29_1114,60.0592309094,Experimento Piloto1,001,128,
0.25,Stim\\05_019.jpg,En19_26,Enojo,26,Víctor trae el café a Marco.,Afirmación,En19,19,,,,,,,,,0,21,21,21,,,,,,,,,1,0.6558860568,2,0.500341826029,,,,,2018_may._29_1114,60.0592309094,Experimento Piloto1,001,128,
0.25,Stim\\02_028.jpg,Al28_16,Alegría,16,Valeria modifica algunas imágenes.,Afirmación,Al28,28,,,,,,,,,0,22,22,22,,,,,,,,,1,0.849196262583,3,0.450503055461,,,,,2018_may._29_1114,60.0592309094,Experimento Piloto1,001,128,
2.5,Stim\\02_075.jpg,Al75_17,Alegría,17,Brenda sube el autobús en las mañanas.,Afirmación,Al75,75,,,,,,,,,0,23,23,23,,,,,,,,,1,1.01517198847,3,0.550264491237,,,,,2018_may._29_1114,60.0592309094,Experimento Piloto1,001,128,
2.5,Stim\\05_075.jpg,En75_30,Enojo,30,Marisol toma 2 litros de agua cada día.,Afirmación,En75,75,,,,,,,,,0,24,24,24,,,,,,,,,1,0.615154763297,2,0.500311034912,,,,,2018_may._29_1114,60.0592309094,Experimento Piloto1,001,128,
2.5,Stim\\03_075.jpg,Tr75_27,Tristeza,27,Claudia informa los avances en el reporte.,Afirmación,Tr75,75,,,,,,,,,0,25,25,25,,,,,,,,,1,0.345851186975,4,0.700322548112,,,,,2018_may._29_1114,60.0592309094,Experimento Piloto1,001,128,
2.5,Stim\\03_028.jpg,Tr28_24,Tristeza,24,Guadalupe comenta los resultados con los compañeros.,Afirmación,Tr28,28,,,,,,,,,0,26,26,26,,,,,,,,,1,1.25712055749,4,0.600470523975,,,,,2018_may._29_1114,60.0592309094,Experimento Piloto1,001,128,
0.25,Stim\\05_028.jpg,En28_24,Enojo,24,Guadalupe comenta los resultados con los compañeros.,Afirmación,En28,28,,,,,,,,,0,27,27,27,,,,,,,,,1,1.70000794322,2,0.450317862507,,,,,2018_may._29_1114,60.0592309094,Experimento Piloto1,001,128,
0.25,Stim\\03_028.jpg,Tr28_17,Tristeza,17,Brenda sube el autobús en las mañanas.,Afirmación,Tr28,28,,,,,,,,,0,28,28,28,,,,,,,,,1,0.965913340408,4,0.383727831511,,,,,2018_may._29_1114,60.0592309094,Experimento Piloto1,001,128,
0.25,Stim\\02_028.jpg,Al28_28,Alegría,28,Antonio responde la pregunta.,Afirmación,Al28,28,,,,,,,,,0,29,29,29,,,,,,,,,1,0.772119847954,3,0.900258199139,,,,,2018_may._29_1114,60.0592309094,Experimento Piloto1,001,128,
2.5,Stim\\02_028.jpg,Al28_24,Alegría,24,Guadalupe comenta los resultados con los compañeros.,Afirmación,Al28,28,,,,,,,,,0,30,30,30,,,,,,,,,1,0.507044918439,3,0.599876567781,,,,,2018_may._29_1114,60.0592309094,Experimento Piloto1,001,128,
0.25,Stim\\02_078.jpg,Al78_29,Alegría,29,Miriam mira la película.,Afirmación,Al78,78,,,,,,,,,0,31,31,31,,,,,,,,,1,0.908394640382,3,0.300382523854,,,,,2018_may._29_1114,60.0592309094,Experimento Piloto1,001,128,
0.25,Stim\\05_078.jpg,En78_19,Enojo,19,Armando acompaña a Rodrígo a la tienda.,Afirmación,En78,78,,,,,,,,,0,32,32,32,,,,,,,,,1,1.6810803309,2,0.383695701649,,,,,2018_may._29_1114,60.0592309094,Experimento Piloto1,001,128,
0.25,Stim\\03_019.jpg,Tr19_21,Tristeza,21,Mauro anuncia la actividad.,Afirmación,Tr19,19,,,,,,,,,0,33,33,33,,,,,,,,,1,3.78845386643,4,1.21669985265,,,,,2018_may._29_1114,60.0592309094,Experimento Piloto1,001,128,
0.25,Stim\\02_028.jpg,Al28_25,Alegría,25,Luis decide la comida siguiente.,Afirmación,Al28,28,,,,,,,,,0,34,34,34,,,,,,,,,1,1.53426739006,3,0.483735596227,,,,,2018_may._29_1114,60.0592309094,Experimento Piloto1,001,128,
2.5,Stim\\03_078.jpg,Tr78_26,Tristeza,26,Víctor trae el café a Marco.,Afirmación,Tr78,78,,,,,,,,,0,35,35,35,,,,,,,,,1,0.57243231086,4,0.333734212858,,,,,2018_may._29_1114,60.0592309094,Experimento Piloto1,001,128,
2.5,Stim\\05_078.jpg,En78_20,Enojo,20,Karen analiza la idea.,Afirmación,En78,78,,,,,,,,,0,36,36,36,,,,,,,,,1,0.426562292216,2,0.333765003976,,,,,2018_may._29_1114,60.0592309094,Experimento Piloto1,001,128,
2.5,Stim\\02_078.jpg,Al78_23,Alegría,23,Óscar consigue un nuevo departamento.,Afirmación,Al78,78,,,,,,,,,0,37,37,37,,,,,,,,,1,0.765291806082,4,0.500187424194,,,,,2018_may._29_1114,60.0592309094,Experimento Piloto1,001,128,
0.25,Stim\\03_078.jpg,Tr78_21,Tristeza,21,Mauro anuncia la actividad.,Afirmación,Tr78,78,,,,,,,,,0,38,38,38,,,,,,,,,1,2.97159586346,4,0.600790483849,,,,,2018_may._29_1114,60.0592309094,Experimento Piloto1,001,128,
2.5,Stim\\03_075.jpg,Tr75_18,Tristeza,18,Sofía escucha la música.,Afirmación,Tr75,75,,,,,,,,,0,39,39,39,,,,,,,,,1,1.07485945417,4,0.350320807745,,,,,2018_may._29_1114,60.0592309094,Experimento Piloto1,001,128,
2.5,Stim\\03_019.jpg,Tr19_19,Tristeza,19,Armando acompaña a Rodrígo a la tienda.,Afirmación,Tr19,19,,,,,,,,,0,40,40,40,,,,,,,,,1,0.964885184831,4,0.383646168112,,,,,2018_may._29_1114,60.0592309094,Experimento Piloto1,001,128,
0.25,Stim\\03_019.jpg,Tr19_17,Tristeza,17,Brenda sube el autobús en las mañanas.,Afirmación,Tr19,19,,,,,,,,,0,41,41,41,,,,,,,,,1,0.565164714629,4,0.333618188358,,,,,2018_may._29_1114,60.0592309094,Experimento Piloto1,001,128,
2.5,Stim\\05_078.jpg,En78_18,Enojo,18,Sofía escucha la música.,Afirmación,En78,78,,,,,,,,,0,42,42,42,,,,,,,,,1,15.2365422735,3,1.31641889486,,,,,2018_may._29_1114,60.0592309094,Experimento Piloto1,001,128,
0.25,Stim\\05_019.jpg,En19_24,Enojo,24,Guadalupe comenta los resultados con los compañeros.,Afirmación,En19,19,,,,,,,,,0,43,43,43,,,,,,,,,1,4.22176119837,2,0.966792002877,,,,,2018_may._29_1114,60.0592309094,Experimento Piloto1,001,128,
0.25,Stim\\02_075.jpg,Al75_20,Alegría,20,Karen analiza la idea.,Afirmación,Al75,75,,,,,,,,,0,44,44,44,,,,,,,,,1,1.74185128693,3,0.23366174217,,,,,2018_may._29_1114,60.0592309094,Experimento Piloto1,001,128,
0.25,Stim\\03_075.jpg,Tr75_23,Tristeza,23,Óscar consigue un nuevo departamento.,Afirmación,Tr75,75,,,,,,,,,0,45,45,45,,,,,,,,,1,7.26400438037,4,0.60031612214,,,,,2018_may._29_1114,60.0592309094,Experimento Piloto1,001,128,
0.25,Stim\\05_078.jpg,En78_16,Enojo,16,Valeria modifica algunas imágenes.,Afirmación,En78,78,,,,,,,,,0,46,46,46,,,,,,,,,1,4.50075862174,2,0.400261769124,,,,,2018_may._29_1114,60.0592309094,Experimento Piloto1,001,128,
2.5,Stim\\02_019.jpg,Al19_20,Alegría,20,Karen analiza la idea.,Afirmación,Al19,19,,,,,,,,,0,47,47,47,,,,,,,,,1,0.506719603589,3,0.70035557047,,,,,2018_may._29_1114,60.0592309094,Experimento Piloto1,001,128,
0.25,Stim\\03_075.jpg,Tr75_28,Tristeza,28,Antonio responde la pregunta.,Afirmación,Tr75,75,,,,,,,,,0,48,48,48,,,,,,,,,1,0.871057063527,4,0.400347448755,,,,,2018_may._29_1114,60.0592309094,Experimento Piloto1,001,128,
0.25,Stim\\05_078.jpg,En78_25,Enojo,25,Luis decide la comida siguiente.,Afirmación,En78,78,,,,,,,,,0,49,49,49,,,,,,,,,1,0.702464538896,2,0.400345663763,,,,,2018_may._29_1114,60.0592309094,Experimento Piloto1,001,128,
2.5,Stim\\03_019.jpg,Tr19_23,Tristeza,23,Óscar consigue un nuevo departamento.,Afirmación,Tr19,19,,,,,,,,,0,50,50,50,,,,,,,,,1,0.699211836641,4,0.766544424443,,,,,2018_may._29_1114,60.0592309094,Experimento Piloto1,001,128,
2.5,Stim\\03_075.jpg,Tr75_24,Tristeza,24,Guadalupe comenta los resultados con los compañeros.,Afirmación,Tr75,75,,,,,,,,,0,51,51,51,,,,,,,,,1,0.539645125677,4,0.750325091726,,,,,2018_may._29_1114,60.0592309094,Experimento Piloto1,001,128,
0.25,Stim\\02_078.jpg,Al78_20,Alegría,20,Karen analiza la idea.,Afirmación,Al78,78,,,,,,,,,0,52,52,52,,,,,,,,,1,1.74175846733,3,0.600464276503,,,,,2018_may._29_1114,60.0592309094,Experimento Piloto1,001,128,
2.5,Stim\\02_078.jpg,Al78_30,Alegría,30,Marisol toma 2 litros de agua cada día.,Afirmación,Al78,78,,,,,,,,,0,53,53,53,,,,,,,,,1,0.498412695579,3,0.30034637776,,,,,2018_may._29_1114,60.0592309094,Experimento Piloto1,001,128,
2.5,Stim\\03_028.jpg,Tr28_27,Tristeza,27,Claudia informa los avances en el reporte.,Afirmación,Tr28,28,,,,,,,,,0,54,54,54,,,,,,,,,1,0.61376871676,4,0.38370953534,,,,,2018_may._29_1114,60.0592309094,Experimento Piloto1,001,128,
2.5,Stim\\02_075.jpg,Al75_28,Alegría,28,Antonio responde la pregunta.,Afirmación,Al75,75,,,,,,,,,0,55,55,55,,,,,,,,,1,0.621393757703,3,0.433700030256,,,,,2018_may._29_1114,60.0592309094,Experimento Piloto1,001,128,
2.5,Stim\\03_078.jpg,Tr78_28,Tristeza,28,Antonio responde la pregunta.,Afirmación,Tr78,78,,,,,,,,,0,56,56,56,,,,,,,,,1,1.71656374698,2,3.98249681156,,,,,2018_may._29_1114,60.0592309094,Experimento Piloto1,001,128,
0.25,Stim\\03_028.jpg,Tr28_19,Tristeza,19,Armando acompaña a Rodrígo a la tienda.,Afirmación,Tr28,28,,,,,,,,,0,57,57,57,,,,,,,,,1,0.898782902987,4,0.700349322997,,,,,2018_may._29_1114,60.0592309094,Experimento Piloto1,001,128,
2.5,Stim\\05_078.jpg,En78_21,Enojo,21,Mauro anuncia la actividad.,Afirmación,En78,78,,,,,,,,,0,58,58,58,,,,,,,,,1,0.423090928401,2,1.41671672083,,,,,2018_may._29_1114,60.0592309094,Experimento Piloto1,001,128,
0.25,Stim\\05_028.jpg,En28_17,Enojo,17,Brenda sube el autobús en las mañanas.,Afirmación,En28,28,,,,,,,,,0,59,59,59,,,,,,,,,1,0.965358207796,2,0.283838768784,,,,,2018_may._29_1114,60.0592309094,Experimento Piloto1,001,128,
0.25,Stim\\03_075.jpg,Tr75_20,Tristeza,20,Karen analiza la idea.,Afirmación,Tr75,75,,,,,,,,,0,60,60,60,,,,,,,,,1,0.609510617581,4,0.300405282506,,,,,2018_may._29_1114,60.0592309094,Experimento Piloto1,001,128,
2.5,Stim\\03_078.jpg,Tr78_21,Tristeza,21,Mauro anuncia la actividad.,Afirmación,Tr78,78,,,,,,,,,0,61,61,61,,,,,,,,,1,0.603446106173,4,0.55043808174,,,,,2018_may._29_1114,60.0592309094,Experimento Piloto1,001,128,
0.25,Stim\\05_075.jpg,En75_17,Enojo,17,Brenda sube el autobús en las mañanas.,Afirmación,En75,75,,,,,,,,,0,62,62,62,,,,,,,,,1,0.915887145646,2,0.650793919959,,,,,2018_may._29_1114,60.0592309094,Experimento Piloto1,001,128,
0.25,Stim\\03_019.jpg,Tr19_26,Tristeza,26,Víctor trae el café a Marco.,Afirmación,Tr19,19,,,,,,,,,0,63,63,63,,,,,,,,,1,1.2224631466,4,0.600290685999,,,,,2018_may._29_1114,60.0592309094,Experimento Piloto1,001,128,
0.25,Stim\\05_019.jpg,En19_30,Enojo,30,Marisol toma 2 litros de agua cada día.,Afirmación,En19,19,,,,,,,,,0,64,64,64,,,,,,,,,1,4.03101022533,2,1.8833110358,,,,,2018_may._29_1114,60.0592309094,Experimento Piloto1,001,128,
0.25,Stim\\02_019.jpg,Al19_27,Alegría,27,Claudia informa los avances en el reporte.,Afirmación,Al19,19,,,,,,,,,0,65,65,65,,,,,,,,,1,1.06259209445,3,0.500242758955,,,,,2018_may._29_1114,60.0592309094,Experimento Piloto1,001,128,
0.25,Stim\\05_028.jpg,En28_23,Enojo,23,Óscar consigue un nuevo departamento.,Afirmación,En28,28,,,,,,,,,0,66,66,66,,,,,,,,,1,0.698782545988,2,0.700172608757,,,,,2018_may._29_1114,60.0592309094,Experimento Piloto1,001,128,
0.25,Stim\\05_019.jpg,En19_18,Enojo,18,Sofía escucha la música.,Afirmación,En19,19,,,,,,,,,0,67,67,67,,,,,,,,,1,0.523818045023,2,0.483684277698,,,,,2018_may._29_1114,60.0592309094,Experimento Piloto1,001,128,
0.25,Stim\\05_075.jpg,En75_25,Enojo,25,Luis decide la comida siguiente.,Afirmación,En75,75,,,,,,,,,0,68,68,68,,,,,,,,,1,0.86818813462,2,0.600162166552,,,,,2018_may._29_1114,60.0592309094,Experimento Piloto1,001,128,
0.25,Stim\\03_078.jpg,Tr78_16,Tristeza,16,Valeria modifica algunas imágenes.,Afirmación,Tr78,78,,,,,,,,,0,69,69,69,,,,,,,,,1,0.502586453872,4,0.450049667411,,,,,2018_may._29_1114,60.0592309094,Experimento Piloto1,001,128,
0.25,Stim\\05_019.jpg,En19_27,Enojo,27,Claudia informa los avances en el reporte.,Afirmación,En19,19,,,,,,,,,0,70,70,70,,,,,,,,,1,1.4130503466,2,0.550297959843,,,,,2018_may._29_1114,60.0592309094,Experimento Piloto1,001,128,
0.25,Stim\\05_075.jpg,En75_30,Enojo,30,Marisol toma 2 litros de agua cada día.,Afirmación,En75,75,,,,,,,,,0,71,71,71,,,,,,,,,1,0.747364235715,2,0.550476459075,,,,,2018_may._29_1114,60.0592309094,Experimento Piloto1,001,128,
2.5,Stim\\02_028.jpg,Al28_16,Alegría,16,Valeria modifica algunas imágenes.,Afirmación,Al28,28,,,,,,,,,0,72,72,72,,,,,,,,,1,0.568047030978,3,0.600219732555,,,,,2018_may._29_1114,60.0592309094,Experimento Piloto1,001,128,
0.25,Stim\\05_075.jpg,En75_29,Enojo,29,Miriam mira la película.,Afirmación,En75,75,,,,,,,,,0,73,73,73,,,,,,,,,1,1.07423247561,2,0.483667320271,,,,,2018_may._29_1114,60.0592309094,Experimento Piloto1,001,128,
2.5,Stim\\02_028.jpg,Al28_28,Alegría,28,Antonio responde la pregunta.,Afirmación,Al28,28,,,,,,,,,0,74,74,74,,,,,,,,,1,0.421475064104,3,0.433790172368,,,,,2018_may._29_1114,60.0592309094,Experimento Piloto1,001,128,
2.5,Stim\\03_019.jpg,Tr19_28,Tristeza,28,Antonio responde la pregunta.,Afirmación,Tr19,19,,,,,,,,,0,75,75,75,,,,,,,,,1,0.317027130991,4,1.26690588539,,,,,2018_may._29_1114,60.0592309094,Experimento Piloto1,001,128,
0.25,Stim\\02_028.jpg,Tr28_30,Tristeza,30,Marisol toma 2 litros de agua cada día.,Afirmación,Tr28,28,,,,,,,,,0,76,76,76,,,,,,,,,1,3.48160119166,3,0.500249006429,,,,,2018_may._29_1114,60.0592309094,Experimento Piloto1,001,128,
2.5,Stim\\02_075.jpg,Al75_27,Alegría,27,Claudia informa los avances en el reporte.,Afirmación,Al75,75,,,,,,,,,0,77,77,77,,,,,,,,,1,0.596365934136,3,0.816538489343,,,,,2018_may._29_1114,60.0592309094,Experimento Piloto1,001,128,
2.5,Stim\\02_075.jpg,Al75_20,Alegría,20,Karen analiza la idea.,Afirmación,Al75,75,,,,,,,,,0,78,78,78,,,,,,,,,1,0.558967221293,3,0.550217635189,,,,,2018_may._29_1114,60.0592309094,Experimento Piloto1,001,128,
2.5,Stim\\05_019.jpg,En19_28,Enojo,28,Antonio responde la pregunta.,Afirmación,En19,19,,,,,,,,,0,79,79,79,,,,,,,,,1,0.255398486148,2,0.500350304743,,,,,2018_may._29_1114,60.0592309094,Experimento Piloto1,001,128,
2.5,Stim\\02_078.jpg,Al78_21,Alegría,21,Mauro anuncia la actividad.,Afirmación,Al78,78,,,,,,,,,0,80,80,80,,,,,,,,,1,1.58938929165,3,0.383622516964,,,,,2018_may._29_1114,60.0592309094,Experimento Piloto1,001,128,
2.5,Stim\\03_078.jpg,Tr78_19,Tristeza,19,Armando acompaña a Rodrígo a la tienda.,Afirmación,Tr78,78,,,,,,,,,0,81,81,81,,,,,,,,,1,0.465102507646,4,0.550269846214,,,,,2018_may._29_1114,60.0592309094,Experimento Piloto1,001,128,
2.5,Stim\\05_075.jpg,En75_22,Enojo,22,Enrique corre todas las mañanas.,Afirmación,En75,75,,,,,,,,,0,82,82,82,,,,,,,,,1,0.602877586119,2,1.26679655461,,,,,2018_may._29_1114,60.0592309094,Experimento Piloto1,001,128,
0.25,Stim\\03_019.jpg,Tr19_19,Tristeza,19,Armando acompaña a Rodrígo a la tienda.,Afirmación,Tr19,19,,,,,,,,,0,83,83,83,,,,,,,,,1,1.93179678219,2,0.650987145378,,,,,2018_may._29_1114,60.0592309094,Experimento Piloto1,001,128,
2.5,Stim\\03_019.jpg,Tr19_27,Tristeza,27,Claudia informa los avances en el reporte.,Afirmación,Tr19,19,,,,,,,,,0,84,84,84,,,,,,,,,1,0.413663937711,4,0.550521083883,,,,,2018_may._29_1114,60.0592309094,Experimento Piloto1,001,128,
0.25,Stim\\05_078.jpg,En78_18,Enojo,18,Sofía escucha la música.,Afirmación,En78,78,,,,,,,,,0,85,85,85,,,,,,,,,1,1.37096156644,2,0.60021616257,,,,,2018_may._29_1114,60.0592309094,Experimento Piloto1,001,128,
2.5,Stim\\05_019.jpg,En19_25,Enojo,25,Luis decide la comida siguiente.,Afirmación,En19,19,,,,,,,,,0,86,86,86,,,,,,,,,1,0.967113301495,2,0.500145923122,,,,,2018_may._29_1114,60.0592309094,Experimento Piloto1,001,128,
0.25,Stim\\05_028.jpg,En28_16,Enojo,16,Valeria modifica algunas imágenes.,Afirmación,En28,28,,,,,,,,,0,87,87,87,,,,,,,,,1,1.11775326587,2,0.900019456416,,,,,2018_may._29_1114,60.0592309094,Experimento Piloto1,001,128,
2.5,Stim\\02_028.jpg,Al28_22,Alegría,22,Enrique corre todas las mañanas.,Afirmación,Al28,28,,,,,,,,,0,88,88,88,,,,,,,,,1,0.570218474135,3,0.650194608788,,,,,2018_may._29_1114,60.0592309094,Experimento Piloto1,001,128,
0.25,Stim\\03_078.jpg,Tr78_17,Tristeza,17,Brenda sube el autobús en las mañanas.,Afirmación,Tr78,78,,,,,,,,,0,89,89,89,,,,,,,,,1,0.948788570337,4,0.550544735031,,,,,2018_may._29_1114,60.0592309094,Experimento Piloto1,001,128,
2.5,Stim\\02_028.jpg,Al28_25,Alegría,25,Luis decide la comida siguiente.,Afirmación,Al28,28,,,,,,,,,0,90,90,90,,,,,,,,,1,1.90118639515,3,0.95023352162,,,,,2018_may._29_1114,60.0592309094,Experimento Piloto1,001,128,
0.25,Stim\\03_028.jpg,Tr28_18,Tristeza,18,Sofía escucha la música.,Afirmación,Tr28,28,,,,,,,,,0,91,91,91,,,,,,,,,1,0.770743618876,4,0.500018742419,,,,,2018_may._29_1114,60.0592309094,Experimento Piloto1,001,128,
2.5,Stim\\03_075.jpg,Tr75_26,Tristeza,26,Víctor trae el café a Marco.,Afirmación,Tr75,75,,,,,,,,,0,92,92,92,,,,,,,,,1,0.972368318885,4,0.700226604775,,,,,2018_may._29_1114,60.0592309094,Experimento Piloto1,001,128,
0.25,Stim\\02_019.jpg,Al19_19,Alegría,19,Armando acompaña a Rodrígo a la tienda.,Afirmación,Al19,19,,,,,,,,,0,93,93,93,,,,,,,,,1,1.06478941999,3,0.483777543547,,,,,2018_may._29_1114,60.0592309094,Experimento Piloto1,001,128,
0.25,Stim\\02_028.jpg,Al28_24,Alegría,24,Guadalupe comenta los resultados con los compañeros.,Afirmación,Al28,28,,,,,,,,,0,94,94,94,,,,,,,,,1,1.21994853867,3,0.38375594514,,,,,2018_may._29_1114,60.0592309094,Experimento Piloto1,001,128,
0.25,Stim\\05_078.jpg,En78_20,Enojo,20,Karen analiza la idea.,Afirmación,En78,78,,,,,,,,,0,95,95,95,,,,,,,,,1,1.02629338312,2,0.400385379842,,,,,2018_may._29_1114,60.0592309094,Experimento Piloto1,001,128,
2.5,Stim\\02_019.jpg,Al19_17,Alegría,17,Brenda sube el autobús en las mañanas.,Afirmación,Al19,19,,,,,,,,,0,96,96,96,,,,,,,,,1,0.699864251334,3,0.400316657638,,,,,2018_may._29_1114,60.0592309094,Experimento Piloto1,001,128,
0.25,Stim\\03_019.jpg,Tr19_18,Tristeza,18,Sofía escucha la música.,Afirmación,Tr19,19,,,,,,,,,0,97,97,97,,,,,,,,,1,4.82363383382,3,0.533652013962,,,,,2018_may._29_1114,60.0592309094,Experimento Piloto1,001,128,
0.25,Stim\\02_075.jpg,Al75_26,Alegría,26,Víctor trae el café a Marco.,Afirmación,Al75,75,,,,,,,,,0,98,98,98,,,,,,,,,1,0.818981251333,3,0.333814537513,,,,,2018_may._29_1114,60.0592309094,Experimento Piloto1,001,128,
2.5,Stim\\02_075.jpg,Al75_18,Alegría,18,Sofía escucha la música.,Afirmación,Al75,75,,,,,,,,,0,99,99,99,,,,,,,,,1,0.574318601494,3,0.400342093778,,,,,2018_may._29_1114,60.0592309094,Experimento Piloto1,001,128,
2.5,Stim\\05_019.jpg,En19_24,Enojo,24,Guadalupe comenta los resultados con los compañeros.,Afirmación,En19,19,,,,,,,,,0,100,100,100,,,,,,,,,1,0.440289329405,2,0.35023111188,,,,,2018_may._29_1114,60.0592309094,Experimento Piloto1,001,128,
2.5,Stim\\03_019.jpg,Tr19_30,Tristeza,30,Marisol toma 2 litros de agua cada día.,Afirmación,Tr19,19,,,,,,,,,0,101,101,101,,,,,,,,,1,0.748221478277,4,0.600365209429,,,,,2018_may._29_1114,60.0592309094,Experimento Piloto1,001,128,
2.5,Stim\\05_075.jpg,En75_17,Enojo,17,Brenda sube el autobús en las mañanas.,Afirmación,En75,75,,,,,,,,,0,102,102,102,,,,,,,,,1,0.416217369224,2,0.483440179999,,,,,2018_may._29_1114,60.0592309094,Experimento Piloto1,001,128,
0.25,Stim\\02_019.jpg,Al19_29,Alegría,29,Miriam mira la película.,Afirmación,Al19,19,,,,,,,,,0,103,103,103,,,,,,,,,1,1.79108360636,3,0.500277120058,,,,,2018_may._29_1114,60.0592309094,Experimento Piloto1,001,128,
0.25,Stim\\05_078.jpg,En78_22,Enojo,22,Enrique corre todas las mañanas.,Afirmación,En78,78,,,,,,,,,0,104,104,104,,,,,,,,,1,2.76904832242,2,0.233727786886,,,,,2018_may._29_1114,60.0592309094,Experimento Piloto1,001,128,
0.25,Stim\\03_028.jpg,Tr28_21,Tristeza,21,Mauro anuncia la actividad.,Afirmación,Tr28,28,,,,,,,,,0,105,105,105,,,,,,,,,1,1.07271433965,4,0.399964121654,,,,,2018_may._29_1114,60.0592309094,Experimento Piloto1,001,128,
2.5,Stim\\05_028.jpg,En28_19,Enojo,19,Armando acompaña a Rodrígo a la tienda.,Afirmación,En28,28,,,,,,,,,0,106,106,106,,,,,,,,,1,0.748126873684,2,0.86681458303,,,,,2018_may._29_1114,60.0592309094,Experimento Piloto1,001,128,
2.5,Stim\\03_019.jpg,Tr19_29,Tristeza,29,Miriam mira la película.,Afirmación,Tr19,19,,,,,,,,,0,107,107,107,,,,,,,,,1,0.658419853399,4,0.550353294605,,,,,2018_may._29_1114,60.0592309094,Experimento Piloto1,001,128,
2.5,Stim\\05_078.jpg,En78_17,Enojo,17,Brenda sube el autobús en las mañanas.,Afirmación,En78,78,,,,,,,,,0,108,108,108,,,,,,,,,1,0.91520974106,2,0.55032651972,,,,,2018_may._29_1114,60.0592309094,Experimento Piloto1,001,128,
2.5,Stim\\02_028.jpg,Al28_21,Alegría,21,Mauro anuncia la actividad.,Afirmación,Al28,28,,,,,,,,,0,109,109,109,,,,,,,,,1,0.405786320355,3,0.550390779444,,,,,2018_may._29_1114,60.0592309094,Experimento Piloto1,001,128,
0.25,Stim\\02_075.jpg,Al75_27,Alegría,27,Claudia informa los avances en el reporte.,Afirmación,Al75,75,,,,,,,,,0,110,110,110,,,,,,,,,1,2.91278170526,3,0.333857823577,,,,,2018_may._29_1114,60.0592309094,Experimento Piloto1,001,128,
0.25,Stim\\02_019.jpg,Al19_28,Alegría,28,Antonio responde la pregunta.,Afirmación,Al19,19,,,,,,,,,0,111,111,111,,,,,,,,,1,0.671933584006,3,0.283749965416,,,,,2018_may._29_1114,60.0592309094,Experimento Piloto1,001,128,
2.5,Stim\\05_019.jpg,En19_20,Enojo,20,Karen analiza la idea.,Afirmación,En19,19,,,,,,,,,0,112,112,112,,,,,,,,,1,0.42657523341,2,0.850120442356,,,,,2018_may._29_1114,60.0592309094,Experimento Piloto1,001,128,
2.5,Stim\\03_078.jpg,Tr78_22,Tristeza,22,Enrique corre todas las mañanas.,Afirmación,Tr78,78,,,,,,,,,0,113,113,113,,,,,,,,,1,0.30334918109,4,0.450305813809,,,,,2018_may._29_1114,60.0592309094,Experimento Piloto1,001,128,
2.5,Stim\\05_028.jpg,En28_18,Enojo,18,Sofía escucha la música.,Afirmación,En28,28,,,,,,,,,0,114,114,114,,,,,,,,,1,2.2072742007,2,1.15005404064,,,,,2018_may._29_1114,60.0592309094,Experimento Piloto1,001,128,
0.25,Stim\\03_075.jpg,Tr75_29,Tristeza,29,Miriam mira la película.,Afirmación,Tr75,75,,,,,,,,,0,115,115,115,,,,,,,,,1,0.774198471511,4,0.550286357393,,,,,2018_may._29_1114,60.0592309094,Experimento Piloto1,001,128,
0.25,Stim\\03_078.jpg,Tr78_24,Tristeza,24,Guadalupe comenta los resultados con los compañeros.,Afirmación,Tr78,78,,,,,,,,,0,116,116,116,,,,,,,,,1,0.539869588461,4,0.450234860365,,,,,2018_may._29_1114,60.0592309094,Experimento Piloto1,001,128,
2.5,Stim\\05_075.jpg,En75_23,Enojo,23,Óscar consigue un nuevo departamento.,Afirmación,En75,75,,,,,,,,,0,117,117,117,,,,,,,,,1,0.450449059443,2,0.350004864104,,,,,2018_may._29_1114,60.0592309094,Experimento Piloto1,001,128,
2.5,Stim\\03_019.jpg,Tr19_21,Tristeza,21,Mauro anuncia la actividad.,Afirmación,Tr19,19,,,,,,,,,0,118,118,118,,,,,,,,,1,1.07227880152,4,1.36670837599,,,,,2018_may._29_1114,60.0592309094,Experimento Piloto1,001,128,
0.25,Stim\\03_078.jpg,Tr78_29,Tristeza,29,Miriam mira la película.,Afirmación,Tr78,78,,,,,,,,,0,119,119,119,,,,,,,,,1,1.07428290165,4,0.450208531728,,,,,2018_may._29_1114,60.0592309094,Experimento Piloto1,001,128,
2.5,Stim\\05_028.jpg,En28_16,Enojo,16,Valeria modifica algunas imágenes.,Afirmación,En28,28,,,,,,,,,,,,,0,0,0,0,,,,,,,,,1,1.76768146455,2,0.400381363609,2018_may._29_1114,60.0592309094,Experimento Piloto1,001,128,
2.5,Stim\\05_028.jpg,En28_29,Enojo,29,Miriam mira la película.,Afirmación,En28,28,,,,,,,,,,,,,0,1,1,1,,,,,,,,,1,1.02555707379,2,0.550357310838,2018_may._29_1114,60.0592309094,Experimento Piloto1,001,128,
0.25,Stim\\03_028.jpg,Tr28_29,Tristeza,29,Miriam mira la película.,Afirmación,Tr28,28,,,,,,,,,,,,,0,2,2,2,,,,,,,,,1,1.74989580107,4,0.383702841619,2018_may._29_1114,60.0592309094,Experimento Piloto1,001,128,
2.5,Stim\\02_075.jpg,Al75_22,Alegría,22,Enrique corre todas las mañanas.,Afirmación,Al75,75,,,,,,,,,,,,,0,3,3,3,,,,,,,,,1,0.986666553617,3,0.233514926552,2018_may._29_1114,60.0592309094,Experimento Piloto1,001,128,
2.5,Stim\\05_019.jpg,En19_17,Enojo,17,Brenda sube el autobús en las mañanas.,Afirmación,En19,19,,,,,,,,,,,,,0,4,4,4,,,,,,,,,1,1.48168910253,2,0.399998929005,2018_may._29_1114,60.0592309094,Experimento Piloto1,001,128,
2.5,Stim\\02_028.jpg,Al28_17,Alegría,17,Brenda sube el autobús en las mañanas.,Afirmación,Al28,28,,,,,,,,,,,,,0,5,5,5,,,,,,,,,1,0.516871747409,3,0.283725421771,2018_may._29_1114,60.0592309094,Experimento Piloto1,001,128,
0.25,Stim\\05_075.jpg,En75_24,Enojo,24,Guadalupe comenta los resultados con los compañeros.,Afirmación,En75,75,,,,,,,,,,,,,0,6,6,6,,,,,,,,,1,1.22424590768,2,0.283672764498,2018_may._29_1114,60.0592309094,Experimento Piloto1,001,128,
2.5,Stim\\03_078.jpg,Tr78_23,Tristeza,23,Óscar consigue un nuevo departamento.,Afirmación,Tr78,78,,,,,,,,,,,,,0,7,7,7,,,,,,,,,1,0.449308003102,4,0.716557499511,2018_may._29_1114,60.0592309094,Experimento Piloto1,001,128,
0.25,Stim\\05_075.jpg,En75_16,Enojo,16,Valeria modifica algunas imágenes.,Afirmación,En75,75,,,,,,,,,,,,,0,8,8,8,,,,,,,,,1,1.41748917625,2,0.283811993899,2018_may._29_1114,60.0592309094,Experimento Piloto1,001,128,
0.25,Stim\\02_078.jpg,Al78_23,Alegría,23,Óscar consigue un nuevo departamento.,Afirmación,Al78,78,,,,,,,,,,,,,0,9,9,9,,,,,,,,,1,0.716017093087,3,0.333658796933,2018_may._29_1114,60.0592309094,Experimento Piloto1,001,128,
2.5,Stim\\05_078.jpg,En78_24,Enojo,24,Guadalupe comenta los resultados con los compañeros.,Afirmación,En78,78,,,,,,,,,,,,,0,10,10,10,,,,,,,,,1,0.507564797453,2,0.333740460332,2018_may._29_1114,60.0592309094,Experimento Piloto1,001,128,
2.5,Stim\\03_028.jpg,Tr28_28,Tristeza,28,Antonio responde la pregunta.,Afirmación,Tr28,28,,,,,,,,,,,,,0,11,11,11,,,,,,,,,1,0.321173221902,4,0.33359453721,2018_may._29_1114,60.0592309094,Experimento Piloto1,001,128,
0.25,Stim\\02_019.jpg,Al19_20,Alegría,20,Karen analiza la idea.,Afirmación,Al19,19,,,,,,,,,,,,,0,12,12,12,,,,,,,,,1,0.926258397273,3,0.333656565693,2018_may._29_1114,60.0592309094,Experimento Piloto1,001,128,
2.5,Stim\\05_078.jpg,En78_27,Enojo,27,Claudia informa los avances en el reporte.,Afirmación,En78,78,,,,,,,,,,,,,0,13,13,13,,,,,,,,,1,0.513157178391,2,0.283782095277,2018_may._29_1114,60.0592309094,Experimento Piloto1,001,128,
0.25,Stim\\05_028.jpg,En28_28,Enojo,28,Antonio responde la pregunta.,Afirmación,En28,28,,,,,,,,,,,,,0,14,14,14,,,,,,,,,1,0.768437408798,2,0.333732427866,2018_may._29_1114,60.0592309094,Experimento Piloto1,001,128,
2.5,Stim\\03_078.jpg,Tr78_30,Tristeza,30,Marisol toma 2 litros de agua cada día.,Afirmación,Tr78,78,,,,,,,,,,,,,0,15,15,15,,,,,,,,,1,0.198881613062,4,0.40037422364,2018_may._29_1114,60.0592309094,Experimento Piloto1,001,128,
0.25,Stim\\03_028.jpg,Tr28_27,Tristeza,27,Claudia informa los avances en el reporte.,Afirmación,Tr28,28,,,,,,,,,,,,,0,16,16,16,,,,,,,,,1,0.963659787604,4,0.383790306242,2018_may._29_1114,60.0592309094,Experimento Piloto1,001,128,
0.25,Stim\\02_075.jpg,Al75_24,Alegría,24,Guadalupe comenta los resultados con los compañeros.,Afirmación,Al75,75,,,,,,,,,,,,,0,17,17,17,,,,,,,,,1,0.540619731483,3,0.450362041067,2018_may._29_1114,60.0592309094,Experimento Piloto1,001,128,
0.25,Stim\\02_019.jpg,Al19_16,Alegría,16,Valeria modifica algunas imágenes.,Afirmación,Al19,19,,,,,,,,,,,,,0,18,18,18,,,,,,,,,1,0.650946536803,3,0.400311302661,2018_may._29_1114,60.0592309094,Experimento Piloto1,001,128,
2.5,Stim\\02_028.jpg,Al28_30,Alegría,30,Marisol toma 2 litros de agua cada día.,Afirmación,Al28,28,,,,,,,,,,,,,0,19,19,19,,,,,,,,,1,0.398655276036,3,0.350302065325,2018_may._29_1114,60.0592309094,Experimento Piloto1,001,128,
2.5,Stim\\05_078.jpg,En78_16,Enojo,16,Valeria modifica algunas imágenes.,Afirmación,En78,78,,,,,,,,,,,,,0,20,20,20,,,,,,,,,1,0.767766251686,2,0.383747466426,2018_may._29_1114,60.0592309094,Experimento Piloto1,001,128,
0.25,Stim\\02_075.jpg,Al75_28,Alegría,28,Antonio responde la pregunta.,Afirmación,Al75,75,,,,,,,,,,,,,0,21,21,21,,,,,,,,,1,1.07097263339,3,0.300294166734,2018_may._29_1114,60.0592309094,Experimento Piloto1,001,128,
2.5,Stim\\03_075.jpg,Tr75_17,Tristeza,17,Brenda sube el autobús en las mañanas.,Afirmación,Tr75,75,,,,,,,,,,,,,0,22,22,22,,,,,,,,,1,0.349745147721,4,0.283761567866,2018_may._29_1114,60.0592309094,Experimento Piloto1,001,128,
0.25,Stim\\05_075.jpg,En75_18,Enojo,18,Sofía escucha la música.,Afirmación,En75,75,,,,,,,,,,,,,0,23,23,23,,,,,,,,,1,0.674259875247,2,0.433580882018,2018_may._29_1114,60.0592309094,Experimento Piloto1,001,128,
2.5,Stim\\02_075.jpg,Al75_25,Alegría,25,Luis decide la comida siguiente.,Afirmación,Al75,75,,,,,,,,,,,,,0,24,24,24,,,,,,,,,1,0.417723010247,3,0.233867908783,2018_may._29_1114,60.0592309094,Experimento Piloto1,001,128,
0.25,Stim\\02_028.jpg,Al28_18,Alegría,18,Sofía escucha la música.,Afirmación,Al28,28,,,,,,,,,,,,,0,25,25,25,,,,,,,,,1,2.65724265096,3,0.350331071451,2018_may._29_1114,60.0592309094,Experimento Piloto1,001,128,
0.25,Stim\\02_028.jpg,Al28_23,Alegría,23,Óscar consigue un nuevo departamento.,Afirmación,Al28,28,,,,,,,,,,,,,0,26,26,26,,,,,,,,,1,1.26547833778,3,0.300040251577,2018_may._29_1114,60.0592309094,Experimento Piloto1,001,128,
0.25,Stim\\02_075.jpg,Al75_19,Alegría,19,Armando acompaña a Rodrígo a la tienda.,Afirmación,Al75,75,,,,,,,,,,,,,0,27,27,27,,,,,,,,,1,0.498286853621,3,0.333614172125,2018_may._29_1114,60.0592309094,Experimento Piloto1,001,128,
2.5,Stim\\05_019.jpg,En19_16,Enojo,16,Valeria modifica algunas imágenes.,Afirmación,En19,19,,,,,,,,,,,,,0,28,28,28,,,,,,,,,1,0.302674453993,2,0.550061002113,2018_may._29_1114,60.0592309094,Experimento Piloto1,001,128,
2.5,Stim\\02_019.jpg,Al19_25,Alegría,25,Luis decide la comida siguiente.,Afirmación,Al19,19,,,,,,,,,,,,,0,29,29,29,,,,,,,,,1,0.400798605564,3,1.06679173513,2018_may._29_1114,60.0592309094,Experimento Piloto1,001,128,
0.25,Stim\\02_078.jpg,Al78_27,Alegría,27,Claudia informa los avances en el reporte.,Afirmación,Al78,78,,,,,,,,,,,,,0,30,30,30,,,,,,,,,1,0.546760105065,3,0.450300458832,2018_may._29_1114,60.0592309094,Experimento Piloto1,001,128,
0.25,Stim\\03_019.jpg,Tr19_22,Tristeza,22,Enrique corre todas las mañanas.,Afirmación,Tr19,19,,,,,,,,,,,,,0,31,31,31,,,,,,,,,1,1.01969560526,4,0.433716541434,2018_may._29_1114,60.0592309094,Experimento Piloto1,001,128,
2.5,Stim\\05_019.jpg,En19_26,Enojo,26,Víctor trae el café a Marco.,Afirmación,En19,19,,,,,,,,,,,,,0,32,32,32,,,,,,,,,1,0.572850891559,3,0.600205898864,2018_may._29_1114,60.0592309094,Experimento Piloto1,001,128,
2.5,Stim\\02_078.jpg,Al78_26,Alegría,26,Víctor trae el café a Marco.,Afirmación,Al78,78,,,,,,,,,,,,,0,33,33,33,,,,,,,,,1,0.683585121375,3,0.383515417425,2018_may._29_1114,60.0592309094,Experimento Piloto1,001,128,
0.25,Stim\\05_078.jpg,En78_17,Enojo,17,Brenda sube el autobús en las mañanas.,Afirmación,En78,78,,,,,,,,,,,,,0,34,34,34,,,,,,,,,1,1.16603329189,2,0.350364986305,2018_may._29_1114,60.0592309094,Experimento Piloto1,001,128,
0.25,Stim\\05_078.jpg,En78_21,Enojo,21,Mauro anuncia la actividad.,Afirmación,En78,78,,,,,,,,,,,,,0,35,35,35,,,,,,,,,1,0.505748567767,2,0.333735551603,2018_may._29_1114,60.0592309094,Experimento Piloto1,001,128,
2.5,Stim\\03_078.jpg,Tr78_20,Tristeza,20,Karen analiza la idea.,Afirmación,Tr78,78,,,,,,,,,,,,,0,36,36,36,,,,,,,,,1,0.425656854861,4,0.433717880179,2018_may._29_1114,60.0592309094,Experimento Piloto1,001,128,
0.25,Stim\\03_078.jpg,Tr78_28,Tristeza,28,Antonio responde la pregunta.,Afirmación,Tr78,78,,,,,,,,,,,,,0,37,37,37,,,,,,,,,1,1.33785665262,4,0.483723993777,2018_may._29_1114,60.0592309094,Experimento Piloto1,001,128,
2.5,Stim\\03_028.jpg,Tr28_17,Tristeza,17,Brenda sube el autobús en las mañanas.,Afirmación,Tr28,28,,,,,,,,,,,,,0,38,38,38,,,,,,,,,1,0.315761125188,4,0.433770091204,2018_may._29_1114,60.0592309094,Experimento Piloto1,001,128,
0.25,Stim\\02_028.jpg,Al28_27,Alegría,27,Claudia informa los avances en el reporte.,Afirmación,Al28,28,,,,,,,,,,,,,0,39,39,39,,,,,,,,,1,0.66298898749,3,0.383623855708,2018_may._29_1114,60.0592309094,Experimento Piloto1,001,128,
2.5,Stim\\02_019.jpg,Al19_28,Alegría,28,Antonio responde la pregunta.,Afirmación,Al19,19,,,,,,,,,,,,,0,40,40,40,,,,,,,,,1,0.255649277569,3,0.400336738801,2018_may._29_1114,60.0592309094,Experimento Piloto1,001,128,
0.25,Stim\\02_019.jpg,Al19_17,Alegría,17,Brenda sube el autobús en las mañanas.,Afirmación,Al19,19,,,,,,,,,,,,,0,41,41,41,,,,,,,,,1,1.41484649512,3,0.400297022722,2018_may._29_1114,60.0592309094,Experimento Piloto1,001,128,
2.5,Stim\\03_075.jpg,Tr75_21,Tristeza,21,Mauro anuncia la actividad.,Afirmación,Tr75,75,,,,,,,,,,,,,0,42,42,42,,,,,,,,,1,0.255631873894,4,0.400319781374,2018_may._29_1114,60.0592309094,Experimento Piloto1,001,128,
0.25,Stim\\03_075.jpg,Tr75_26,Tristeza,26,Víctor trae el café a Marco.,Afirmación,Tr75,75,,,,,,,,,,,,,0,43,43,43,,,,,,,,,1,0.555355735582,4,0.383817973623,2018_may._29_1114,60.0592309094,Experimento Piloto1,001,128,
0.25,Stim\\02_075.jpg,Al75_18,Alegría,18,Sofía escucha la música.,Afirmación,Al75,75,,,,,,,,,,,,,0,44,44,44,,,,,,,,,1,0.673988556414,4,0.333868087283,2018_may._29_1114,60.0592309094,Experimento Piloto1,001,128,
2.5,Stim\\05_028.jpg,En28_27,Enojo,27,Claudia informa los avances en el reporte.,Afirmación,En28,28,,,,,,,,,,,,,0,45,45,45,,,,,,,,,1,1.02957464525,2,1.96666303718,2018_may._29_1114,60.0592309094,Experimento Piloto1,001,128,
0.25,Stim\\02_019.jpg,Al19_23,Alegría,23,Óscar consigue un nuevo departamento.,Afirmación,Al19,19,,,,,,,,,,,,,0,46,46,46,,,,,,,,,1,0.666017673209,3,0.283671425754,2018_may._29_1114,60.0592309094,Experimento Piloto1,001,128,
0.25,Stim\\03_075.jpg,Tr75_21,Tristeza,21,Mauro anuncia la actividad.,Afirmación,Tr75,75,,,,,,,,,,,,,0,47,47,47,,,,,,,,,1,0.722724201729,4,0.433801774818,2018_may._29_1114,60.0592309094,Experimento Piloto1,001,128,
0.25,Stim\\02_078.jpg,Al78_28,Alegría,28,Antonio responde la pregunta.,Afirmación,Al78,78,,,,,,,,,,,,,0,48,48,48,,,,,,,,,1,0.404728712405,3,0.300173679753,2018_may._29_1114,60.0592309094,Experimento Piloto1,001,128,
2.5,Stim\\03_075.jpg,Tr75_23,Tristeza,23,Óscar consigue un nuevo departamento.,Afirmación,Tr75,75,,,,,,,,,,,,,0,49,49,49,,,,,,,,,1,0.297542601073,4,0.399750368824,2018_may._29_1114,60.0592309094,Experimento Piloto1,001,128,
0.25,Stim\\02_078.jpg,Al78_22,Alegría,22,Enrique corre todas las mañanas.,Afirmación,Al78,78,,,,,,,,,,,,,0,50,50,50,,,,,,,,,1,0.602843671265,3,0.433694229031,2018_may._29_1114,60.0592309094,Experimento Piloto1,001,128,
2.5,Stim\\03_028.jpg,Tr28_23,Tristeza,23,Óscar consigue un nuevo departamento.,Afirmación,Tr28,28,,,,,,,,,,,,,0,51,51,51,,,,,,,,,1,0.816077515076,4,1.2668103883,2018_may._29_1114,60.0592309094,Experimento Piloto1,001,128,
0.25,Stim\\02_028.jpg,Al28_19,Alegría,19,Armando acompaña a Rodrígo a la tienda.,Afirmación,Al28,28,,,,,,,,,,,,,0,52,52,52,,,,,,,,,1,0.715751575479,3,0.483621356719,2018_may._29_1114,60.0592309094,Experimento Piloto1,001,128,
0.25,Stim\\03_028.jpg,Tr28_28,Tristeza,28,Antonio responde la pregunta.,Afirmación,Tr28,28,,,,,,,,,,,,,0,53,53,53,,,,,,,,,1,1.1718648618,4,0.350319915248,2018_may._29_1114,60.0592309094,Experimento Piloto1,001,128,
2.5,Stim\\05_075.jpg,En75_16,Enojo,16,Valeria modifica algunas imágenes.,Afirmación,En75,75,,,,,,,,,,,,,0,54,54,54,,,,,,,,,1,0.819066038468,2,0.400031505114,2018_may._29_1114,60.0592309094,Experimento Piloto1,001,128,
0.25,Stim\\03_019.jpg,Tr19_28,Tristeza,28,Antonio responde la pregunta.,Afirmación,Tr19,19,,,,,,,,,,,,,0,55,55,55,,,,,,,,,1,1.32170827335,4,0.550359988326,2018_may._29_1114,60.0592309094,Experimento Piloto1,001,128,
2.5,Stim\\03_019.jpg,Tr19_24,Tristeza,24,Guadalupe comenta los resultados con los compañeros.,Afirmación,Tr19,19,,,,,,,,,,,,,0,56,56,56,,,,,,,,,1,0.539950359364,4,0.550299298588,2018_may._29_1114,60.0592309094,Experimento Piloto1,001,128,
0.25,Stim\\03_019.jpg,Tr19_30,Tristeza,30,Marisol toma 2 litros de agua cada día.,Afirmación,Tr19,19,,,,,,,,,,,,,0,57,57,57,,,,,,,,,1,1.31497528232,4,0.400408138494,2018_may._29_1114,60.0592309094,Experimento Piloto1,001,128,
0.25,Stim\\02_075.jpg,Al75_23,Alegría,23,Óscar consigue un nuevo departamento.,Afirmación,Al75,75,,,,,,,,,,,,,0,58,58,58,,,,,,,,,1,0.550674146974,3,0.400180551973,2018_may._29_1114,60.0592309094,Experimento Piloto1,001,128,
2.5,Stim\\02_078.jpg,Al78_22,Alegría,22,Enrique corre todas las mañanas.,Afirmación,Al78,78,,,,,,,,,,,,,0,59,59,59,,,,,,,,,1,1.06879405026,3,0.400291667745,2018_may._29_1114,60.0592309094,Experimento Piloto1,001,128,
2.5,Stim\\05_075.jpg,En75_20,Enojo,20,Karen analiza la idea.,Afirmación,En75,75,,,,,,,,,,,,,0,60,60,60,,,,,,,,,1,0.659097257984,2,0.600347805754,2018_may._29_1114,60.0592309094,Experimento Piloto1,001,128,
2.5,Stim\\03_028.jpg,Tr28_18,Tristeza,18,Sofía escucha la música.,Afirmación,Tr28,28,,,,,,,,,,,,,0,61,61,61,,,,,,,,,1,1.80756845669,4,0.433753133777,2018_may._29_1114,60.0592309094,Experimento Piloto1,001,128,
0.25,Stim\\02_028.jpg,Al28_22,Alegría,22,Enrique corre todas las mañanas.,Afirmación,Al28,28,,,,,,,,,,,,,0,62,62,62,,,,,,,,,1,0.819812611506,3,0.333731981618,2018_may._29_1114,60.0592309094,Experimento Piloto1,001,128,
2.5,Stim\\03_075.jpg,Tr75_29,Tristeza,29,Miriam mira la película.,Afirmación,Tr75,75,,,,,,,,,,,,,0,63,63,63,,,,,,,,,1,1.95763276103,4,1.16674773507,2018_may._29_1114,60.0592309094,Experimento Piloto1,001,128,
2.5,Stim\\05_075.jpg,En75_19,Enojo,19,Armando acompaña a Rodrígo a la tienda.,Afirmación,En75,75,,,,,,,,,,,,,0,64,64,64,,,,,,,,,1,0.664456697425,3,0.383649738097,2018_may._29_1114,60.0592309094,Experimento Piloto1,001,128,
0.25,Stim\\05_078.jpg,En78_27,Enojo,27,Claudia informa los avances en el reporte.,Afirmación,En78,78,,,,,,,,,,,,,0,65,65,65,,,,,,,,,1,9.82762596914,2,1.78324436634,2018_may._29_1114,60.0592309094,Experimento Piloto1,001,128,
0.25,Stim\\02_075.jpg,Al75_29,Alegría,29,Miriam mira la película.,Afirmación,Al75,75,,,,,,,,,,,,,0,66,66,66,,,,,,,,,1,1.59080389807,3,0.283687490684,2018_may._29_1114,60.0592309094,Experimento Piloto1,001,128,
2.5,Stim\\03_075.jpg,Tr75_19,Tristeza,19,Armando acompaña a Rodrígo a la tienda.,Afirmación,Tr75,75,,,,,,,,,,,,,0,67,67,67,,,,,,,,,1,0.965700033826,4,0.350347136382,2018_may._29_1114,60.0592309094,Experimento Piloto1,001,128,
2.5,Stim\\03_028.jpg,Tr28_22,Tristeza,22,Enrique corre todas las mañanas.,Afirmación,Tr28,28,,,,,,,,,,,,,0,68,68,68,,,,,,,,,1,1.8364438312,4,1.16676960122,2018_may._29_1114,60.0592309094,Experimento Piloto1,001,128,
0.25,Stim\\03_078.jpg,Tr78_25,Tristeza,25,Luis decide la comida siguiente.,Afirmación,Tr78,78,,,,,,,,,,,,,0,69,69,69,,,,,,,,,1,0.702541293566,4,0.500264178863,2018_may._29_1114,60.0592309094,Experimento Piloto1,001,128,
2.5,Stim\\02_028.jpg,Al28_19,Alegría,19,Armando acompaña a Rodrígo a la tienda.,Afirmación,Al28,28,,,,,,,,,,,,,0,70,70,70,,,,,,,,,1,0.448089299596,3,0.65031241828,2018_may._29_1114,60.0592309094,Experimento Piloto1,001,128,
0.25,Stim\\02_075.jpg,Al75_25,Alegría,25,Luis decide la comida siguiente.,Afirmación,Al75,75,,,,,,,,,,,,,0,71,71,71,,,,,,,,,1,0.618031724669,3,0.433772322445,2018_may._29_1114,60.0592309094,Experimento Piloto1,001,128,
2.5,Stim\\02_019.jpg,Al19_24,Alegría,24,Guadalupe comenta los resultados con los compañeros.,Afirmación,Al19,19,,,,,,,,,,,,,0,72,72,72,,,,,,,,,1,0.356926618073,3,0.333742691572,2018_may._29_1114,60.0592309094,Experimento Piloto1,001,128,
0.25,Stim\\03_028.jpg,Tr28_23,Tristeza,23,Óscar consigue un nuevo departamento.,Afirmación,Tr28,28,,,,,,,,,,,,,0,73,73,73,,,,,,,,,1,0.766024099181,4,0.533700655003,2018_may._29_1114,60.0592309094,Experimento Piloto1,001,128,
0.25,Stim\\03_028.jpg,Tr28_25,Tristeza,25,Luis decide la comida siguiente.,Afirmación,Tr28,28,,,,,,,,,,,,,0,74,74,74,,,,,,,,,1,0.617350750098,4,0.54992221896,2018_may._29_1114,60.0592309094,Experimento Piloto1,001,128,
0.25,Stim\\05_019.jpg,En19_23,Enojo,23,Óscar consigue un nuevo departamento.,Afirmación,En19,19,,,,,,,,,,,,,0,75,75,75,,,,,,,,,1,1.68966659021,2,0.650187468819,2018_may._29_1114,60.0592309094,Experimento Piloto1,001,128,
2.5,Stim\\03_019.jpg,Tr19_26,Tristeza,26,Víctor trae el café a Marco.,Afirmación,Tr19,19,,,,,,,,,,,,,0,76,76,76,,,,,,,,,1,0.572457747,4,0.550269399966,2018_may._29_1114,60.0592309094,Experimento Piloto1,001,128,
0.25,Stim\\05_028.jpg,En28_30,Enojo,30,Marisol toma 2 litros de agua cada día.,Afirmación,En28,28,,,,,,,,,,,,,0,77,77,77,,,,,,,,,1,0.847569242083,2,1.48334602165,2018_may._29_1114,60.0592309094,Experimento Piloto1,001,128,
2.5,Stim\\02_019.jpg,Al19_26,Alegría,26,Víctor trae el café a Marco.,Afirmación,Al19,19,,,,,,,,,,,,,0,78,78,78,,,,,,,,,1,2.40464258653,3,0.350108393659,2018_may._29_1114,60.0592309094,Experimento Piloto1,001,128,
0.25,Stim\\03_075.jpg,Tr75_27,Tristeza,27,Claudia informa los avances en el reporte.,Afirmación,Tr75,75,,,,,,,,,,,,,0,79,79,79,,,,,,,,,1,0.696635200227,4,0.383851442229,2018_may._29_1114,60.0592309094,Experimento Piloto1,001,128,
2.5,Stim\\02_078.jpg,Al78_27,Alegría,27,Claudia informa los avances en el reporte.,Afirmación,Al78,78,,,,,,,,,,,,,0,80,80,80,,,,,,,,,1,0.533753312276,3,0.45031027629,2018_may._29_1114,60.0592309094,Experimento Piloto1,001,128,
0.25,Stim\\02_019.jpg,Al19_26,Alegría,26,Víctor trae el café a Marco.,Afirmación,Al19,19,,,,,,,,,,,,,0,81,81,81,,,,,,,,,1,1.68851036143,3,0.333686018066,2018_may._29_1114,60.0592309094,Experimento Piloto1,001,128,
0.25,Stim\\03_019.jpg,Tr19_29,Tristeza,29,Miriam mira la película.,Afirmación,Tr19,19,,,,,,,,,,,,,0,82,82,82,,,,,,,,,1,3.73967716629,3,0.600235351238,2018_may._29_1114,60.0592309094,Experimento Piloto1,001,128,
2.5,Stim\\05_075.jpg,En75_27,Enojo,27,Claudia informa los avances en el reporte.,Afirmación,En75,75,,,,,,,,,,,,,0,83,83,83,,,,,,,,,1,0.347242588489,2,0.350401578648,2018_may._29_1114,60.0592309094,Experimento Piloto1,001,128,
0.25,Stim\\05_019.jpg,En19_25,Enojo,25,Luis decide la comida siguiente.,Afirmación,En19,19,,,,,,,,,,,,,0,84,84,84,,,,,,,,,1,0.652304023462,2,0.333600338434,2018_may._29_1114,60.0592309094,Experimento Piloto1,001,128,
2.5,Stim\\03_028.jpg,Tr28_20,Tristeza,20,Karen analiza la idea.,Afirmación,Tr28,28,,,,,,,,,,,,,0,85,85,85,,,,,,,,,1,1.39247831011,4,0.350341335156,2018_may._29_1114,60.0592309094,Experimento Piloto1,001,128,
2.5,Stim\\05_028.jpg,En28_26,Enojo,26,Víctor trae el café a Marco.,Afirmación,En28,28,,,,,,,,,,,,,0,86,86,86,,,,,,,,,1,0.606238726658,2,0.450418268325,2018_may._29_1114,60.0592309094,Experimento Piloto1,001,128,
0.25,Stim\\05_028.jpg,En28_21,Enojo,21,Mauro anuncia la actividad.,Afirmación,En28,28,,,,,,,,,,,,,0,87,87,87,,,,,,,,,1,3.43861054413,2,0.33367575436,2018_may._29_1114,60.0592309094,Experimento Piloto1,001,128,
0.25,Stim\\03_075.jpg,Tr75_22,Tristeza,22,Enrique corre todas las mañanas.,Afirmación,Tr75,75,,,,,,,,,,,,,0,88,88,88,,,,,,,,,1,1.06941076511,4,0.400397874788,2018_may._29_1114,60.0592309094,Experimento Piloto1,001,128,
0.25,Stim\\05_028.jpg,En28_27,Enojo,27,Claudia informa los avances en el reporte.,Afirmación,En28,28,,,,,,,,,,,,,0,89,89,89,,,,,,,,,1,0.5961419176,2,0.38372113779,2018_may._29_1114,60.0592309094,Experimento Piloto1,001,128,
2.5,Stim\\03_075.jpg,Tr75_22,Tristeza,22,Enrique corre todas las mañanas.,Afirmación,Tr75,75,,,,,,,,,,,,,0,90,90,90,,,,,,,,,1,0.570153321915,4,0.550208710227,2018_may._29_1114,60.0592309094,Experimento Piloto1,001,128,
0.25,Stim\\05_019.jpg,En19_28,Enojo,28,Antonio responde la pregunta.,Afirmación,En19,19,,,,,,,,,,,,,0,91,91,91,,,,,,,,,1,1.02112136788,2,0.33390110964,2018_may._29_1114,60.0592309094,Experimento Piloto1,001,128,
2.5,Stim\\03_019.jpg,Tr19_17,Tristeza,17,Brenda sube el autobús en las mañanas.,Afirmación,Tr19,19,,,,,,,,,,,,,0,92,92,92,,,,,,,,,1,0.6134572356,4,0.383726492767,2018_may._29_1114,60.0592309094,Experimento Piloto1,001,128,
0.25,Stim\\05_028.jpg,En28_29,Enojo,29,Miriam mira la película.,Afirmación,En28,28,,,,,,,,,,,,,0,93,93,93,,,,,,,,,1,1.54076565461,2,0.800246864438,2018_may._29_1114,60.0592309094,Experimento Piloto1,001,128,
0.25,Stim\\05_028.jpg,En28_18,Enojo,18,Sofía escucha la música.,Afirmación,En28,28,,,,,,,,,,,,,0,94,94,94,,,,,,,,,1,0.770589663288,2,0.483809227161,2018_may._29_1114,60.0592309094,Experimento Piloto1,001,128,
0.25,Stim\\05_028.jpg,En28_25,Enojo,25,Luis decide la comida siguiente.,Afirmación,En28,28,,,,,,,,,,,,,0,95,95,95,,,,,,,,,1,0.451352711805,2,0.350356061343,2018_may._29_1114,60.0592309094,Experimento Piloto1,001,128,
2.5,Stim\\03_075.jpg,Tr75_16,Tristeza,16,Valeria modifica algunas imágenes.,Afirmación,Tr75,75,,,,,,,,,,,,,0,96,96,96,,,,,,,,,1,0.518945015989,4,0.533706456228,2018_may._29_1114,60.0592309094,Experimento Piloto1,001,128,
2.5,Stim\\05_019.jpg,En19_18,Enojo,18,Sofía escucha la música.,Afirmación,En19,19,,,,,,,,,,,,,0,97,97,97,,,,,,,,,1,0.000471684220429,2,1.11682239237,2018_may._29_1114,60.0592309094,Experimento Piloto1,001,128,
0.25,Stim\\05_075.jpg,En75_28,Enojo,28,Antonio responde la pregunta.,Afirmación,En75,75,,,,,,,,,,,,,0,98,98,98,,,,,,,,,1,1.32171005834,2,0.400288990257,2018_may._29_1114,60.0592309094,Experimento Piloto1,001,128,
0.25,Stim\\03_019.jpg,Tr19_24,Tristeza,24,Guadalupe comenta los resultados con los compañeros.,Afirmación,Tr19,19,,,,,,,,,,,,,0,99,99,99,,,,,,,,,1,0.889932911064,4,0.350446649703,2018_may._29_1114,60.0592309094,Experimento Piloto1,001,128,
0.25,Stim\\02_075.jpg,Al75_21,Alegría,21,Mauro anuncia la actividad.,Afirmación,Al75,75,,,,,,,,,,,,,0,100,100,100,,,,,,,,,1,0.922177904829,3,0.649960328546,2018_may._29_1114,60.0592309094,Experimento Piloto1,001,128,
0.25,Stim\\03_019.jpg,Tr19_23,Tristeza,23,Óscar consigue un nuevo departamento.,Afirmación,Tr19,19,,,,,,,,,,,,,0,101,101,101,,,,,,,,,1,0.596514534746,4,1.05050591145,2018_may._29_1114,60.0592309094,Experimento Piloto1,001,128,
2.5,Stim\\05_028.jpg,En28_30,Enojo,30,Marisol toma 2 litros de agua cada día.,Afirmación,En28,28,,,,,,,,,,,,,0,102,102,102,,,,,,,,,1,2.81523722994,2,2.91635793737,2018_may._29_1114,60.0592309094,Experimento Piloto1,001,128,
0.25,Stim\\02_078.jpg,Al78_19,Alegría,19,Armando acompaña a Rodrígo a la tienda.,Afirmación,Al78,78,,,,,,,,,,,,,0,103,103,103,,,,,,,,,1,0.698922221637,3,0.350305189062,2018_may._29_1114,60.0592309094,Experimento Piloto1,001,128,
2.5,Stim\\03_075.jpg,Tr75_25,Tristeza,25,Luis decide la comida siguiente.,Afirmación,Tr75,75,,,,,,,,,,,,,0,104,104,104,,,,,,,,,1,0.551325669171,4,0.350458252153,2018_may._29_1114,60.0592309094,Experimento Piloto1,001,128,
2.5,Stim\\03_028.jpg,Tr28_29,Tristeza,29,Miriam mira la película.,Afirmación,Tr28,28,,,,,,,,,,,,,0,105,105,105,,,,,,,,,1,0.408471395052,4,0.500291399996,2018_may._29_1114,60.0592309094,Experimento Piloto1,001,128,
0.25,Stim\\03_028.jpg,Tr28_24,Tristeza,24,Guadalupe comenta los resultados con los compañeros.,Afirmación,Tr28,28,,,,,,,,,,,,,0,106,106,106,,,,,,,,,1,0.79063334205,4,0.30043696612,2018_may._29_1114,60.0592309094,Experimento Piloto1,001,128,
0.25,Stim\\02_075.jpg,Al75_30,Alegría,30,Marisol toma 2 litros de agua cada día.,Afirmación,Al75,75,,,,,,,,,,,,,0,107,107,107,,,,,,,,,1,0.648543937139,3,0.300003659234,2018_may._29_1114,60.0592309094,Experimento Piloto1,001,128,
2.5,Stim\\05_019.jpg,En19_27,Enojo,27,Claudia informa los avances en el reporte.,Afirmación,En19,19,,,,,,,,,,,,,0,108,108,108,,,,,,,,,1,1.31330452951,2,0.450312061282,2018_may._29_1114,60.0592309094,Experimento Piloto1,001,128,
2.5,Stim\\05_075.jpg,En75_18,Enojo,18,Sofía escucha la música.,Afirmación,En75,75,,,,,,,,,,,,,0,109,109,109,,,,,,,,,1,1.07406602508,2,1.46686786505,2018_may._29_1114,60.0592309094,Experimento Piloto1,001,128,
2.5,Stim\\02_028.jpg,Al28_23,Alegría,23,Óscar consigue un nuevo departamento.,Afirmación,Al28,28,,,,,,,,,,,,,0,110,110,110,,,,,,,,,1,0.567139808631,3,0.349951314334,2018_may._29_1114,60.0592309094,Experimento Piloto1,001,128,
2.5,Stim\\05_078.jpg,En78_29,Enojo,29,Miriam mira la película.,Afirmación,En78,78,,,,,,,,,,,,,0,111,111,111,,,,,,,,,1,0.0413939719024,2,0.600348252002,2018_may._29_1114,60.0592309094,Experimento Piloto1,001,128,
0.25,Stim\\03_078.jpg,Tr78_20,Tristeza,20,Karen analiza la idea.,Afirmación,Tr78,78,,,,,,,,,,,,,0,112,112,112,,,,,,,,,1,2.97436349405,2,2.23309723835,2018_may._29_1114,60.0592309094,Experimento Piloto1,001,128,
0.25,Stim\\02_019.jpg,Al19_25,Alegría,25,Luis decide la comida siguiente.,Afirmación,Al19,19,,,,,,,,,,,,,0,113,113,113,,,,,,,,,1,0.869368460792,3,0.350011557825,2018_may._29_1114,60.0592309094,Experimento Piloto1,001,128,
2.5,Stim\\03_078.jpg,Tr78_16,Tristeza,16,Valeria modifica algunas imágenes.,Afirmación,Tr78,78,,,,,,,,,,,,,0,114,114,114,,,,,,,,,1,0.402420717335,4,0.95019648303,2018_may._29_1114,60.0592309094,Experimento Piloto1,001,128,
0.25,Stim\\02_028.jpg,Al28_21,Alegría,21,Mauro anuncia la actividad.,Afirmación,Al28,28,,,,,,,,,,,,,0,115,115,115,,,,,,,,,1,0.823576714061,3,0.499976348852,2018_may._29_1114,60.0592309094,Experimento Piloto1,001,128,
2.5,Stim\\05_019.jpg,En19_30,Enojo,30,Marisol toma 2 litros de agua cada día.,Afirmación,En19,19,,,,,,,,,,,,,0,116,116,116,,,,,,,,,1,0.348957519861,2,0.433734391358,2018_may._29_1114,60.0592309094,Experimento Piloto1,001,128,
0.25,Stim\\05_078.jpg,En78_26,Enojo,26,Víctor trae el café a Marco.,Afirmación,En78,78,,,,,,,,,,,,,0,117,117,117,,,,,,,,,1,0.77192796128,2,0.500315051144,2018_may._29_1114,60.0592309094,Experimento Piloto1,001,128,
0.25,Stim\\02_078.jpg,Al78_21,Alegría,21,Mauro anuncia la actividad.,Afirmación,Al78,78,,,,,,,,,,,,,0,118,118,118,,,,,,,,,1,1.32249099248,3,0.450258065265,2018_may._29_1114,60.0592309094,Experimento Piloto1,001,128,
0.25,Stim\\03_075.jpg,Tr75_30,Tristeza,30,Marisol toma 2 litros de agua cada día.,Afirmación,Tr75,75,,,,,,,,,,,,,0,119,119,119,,,,,,,,,1,0.798785401976,4,0.450217010441,2018_may._29_1114,60.0592309094,Experimento Piloto1,001,128,
