Tiempo,ImagenesE,ClaveEn,Emocion,NumEn,Enunciado,ActoHabla,Clave,Cara,trials.thisRepN,trials.thisTrialN,trials.thisN,trials.thisIndex,Bloque3.thisRepN,Bloque3.thisTrialN,Bloque3.thisN,Bloque3.thisIndex,Bloque2.thisRepN,Bloque2.thisTrialN,Bloque2.thisN,Bloque2.thisIndex,Bloque1.thisRepN,Bloque1.thisTrialN,Bloque1.thisN,Bloque1.thisIndex,Sig_B3.keys,Sig_B3.rt,Resp_Bloque3.keys,Resp_Bloque3.rt,Sig_B2.keys,Sig_B2.rt,Resp_Bloque2.keys,Resp_Bloque2.rt,Sig_B1.keys,Sig_B1.rt,Resp_Bloque1.keys,Resp_Bloque1.rt,date,frameRate,expName,session,participant,
2.5,Stim\\03_019.jpg,Tr19_16,Tristeza,16,Valeria modifica algunas imágenes.,Afirmación,Tr19,19,,,,,0,0,0,0,,,,,,,,,1,2.28197925303,3,1.41665290735,,,,,,,,,2018_may._29_1246,59.9917009336,Experimento Piloto1,001,129,
2.5,Stim\\05_078.jpg,En78_19,Enojo,19,Armando acompaña a Rodrígo a la tienda.,Afirmación,En78,78,,,,,0,1,1,1,,,,,,,,,1,2.09716828818,3,0.95026386649,,,,,,,,,2018_may._29_1246,59.9917009336,Experimento Piloto1,001,129,
2.5,Stim\\02_075.jpg,Al75_21,Alegría,21,Mauro anuncia la actividad.,Afirmación,Al75,75,,,,,0,2,2,2,,,,,,,,,1,1.95628910807,3,1.51667896824,,,,,,,,,2018_may._29_1246,59.9917009336,Experimento Piloto1,001,129,
0.25,Stim\\02_075.jpg,Al75_16,Alegría,16,Valeria modifica algunas imágenes.,Afirmación,Al75,75,,,,,0,3,3,3,,,,,,,,,1,2.45189445697,3,1.21670877761,,,,,,,,,2018_may._29_1246,59.9917009336,Experimento Piloto1,001,129,
0.25,Stim\\05_078.jpg,En78_30,Enojo,30,Marisol toma 2 litros de agua cada día.,Afirmación,En78,78,,,,,0,4,4,4,,,,,,,,,1,2.59777429308,3,0.700284617025,,,,,,,,,2018_may._29_1246,59.9917009336,Experimento Piloto1,001,129,
0.25,Stim\\02_019.jpg,Al19_22,Alegría,22,Enrique corre todas las mañanas.,Afirmación,Al19,19,,,,,0,5,5,5,,,,,,,,,1,2.81920035914,3,0.649986657182,,,,,,,,,2018_may._29_1246,59.9917009336,Experimento Piloto1,001,129,
2.5,Stim\\05_028.jpg,En28_23,Enojo,23,Óscar consigue un nuevo departamento.,Afirmación,En28,28,,,,,0,6,6,6,,,,,,,,,1,1.82951315227,3,0.80034637776,,,,,,,,,2018_may._29_1246,59.9917009336,Experimento Piloto1,001,129,
0.25,Stim\\03_019.jpg,Tr19_16,Tristeza,16,Valeria modifica algunas imágenes.,Afirmación,Tr19,19,,,,,0,7,7,7,,,,,,,,,1,2.10204042472,3,0.550233253872,,,,,,,,,2018_may._29_1246,59.9917009336,Experimento Piloto1,001,129,
0.25,Stim\\02_078.jpg,Al78_17,Alegría,17,Brenda sube el autobús en las mañanas.,Afirmación,Al78,78,,,,,0,8,8,8,,,,,,,,,1,1.87986733937,3,0.800206255863,,,,,,,,,2018_may._29_1246,59.9917009336,Experimento Piloto1,001,129,
0.25,Stim\\02_078.jpg,Al78_16,Alegría,16,Valeria modifica algunas imágenes.,Afirmación,Al78,78,,,,,0,9,9,9,,,,,,,,,1,1.83087287017,3,0.500356552216,,,,,,,,,2018_may._29_1246,59.9917009336,Experimento Piloto1,001,129,
0.25,Stim\\05_075.jpg,En75_22,Enojo,22,Enrique corre todas las mañanas.,Afirmación,En75,75,,,,,0,10,10,10,,,,,,,,,1,2.40279601197,3,0.550285464897,,,,,,,,,2018_may._29_1246,59.9917009336,Experimento Piloto1,001,129,
0.25,Stim\\02_028.jpg,Al28_26,Alegría,26,Víctor trae el café a Marco.,Afirmación,Al28,28,,,,,0,11,11,11,,,,,,,,,1,0.95547247408,3,0.666350128028,,,,,,,,,2018_may._29_1246,59.9917009336,Experimento Piloto1,001,129,
2.5,Stim\\03_075.jpg,Tr75_28,Tristeza,28,Antonio responde la pregunta.,Afirmación,Tr75,75,,,,,0,12,12,12,,,,,,,,,1,0.972511564519,3,0.483718192553,,,,,,,,,2018_may._29_1246,59.9917009336,Experimento Piloto1,001,129,
0.25,Stim\\05_075.jpg,En75_23,Enojo,23,Óscar consigue un nuevo departamento.,Afirmación,En75,75,,,,,0,13,13,13,,,,,,,,,1,2.56612013177,3,0.433646034238,,,,,,,,,2018_may._29_1246,59.9917009336,Experimento Piloto1,001,129,
2.5,Stim\\02_078.jpg,Al78_28,Alegría,28,Antonio responde la pregunta.,Afirmación,Al78,78,,,,,0,14,14,14,,,,,,,,,1,1.02163455317,3,0.500168681775,,,,,,,,,2018_may._29_1246,59.9917009336,Experimento Piloto1,001,129,
2.5,Stim\\02_028.jpg,Al28_18,Alegría,18,Sofía escucha la música.,Afirmación,Al28,28,,,,,0,15,15,15,,,,,,,,,1,1.19106290045,3,0.483705697607,,,,,,,,,2018_may._29_1246,59.9917009336,Experimento Piloto1,001,129,
2.5,Stim\\02_019.jpg,Al19_22,Alegría,22,Enrique corre todas las mañanas.,Afirmación,Al19,19,,,,,0,16,16,16,,,,,,,,,1,1.64864300421,3,0.433849523362,,,,,,,,,2018_may._29_1246,59.9917009336,Experimento Piloto1,001,129,
2.5,Stim\\05_028.jpg,En28_28,Enojo,28,Antonio responde la pregunta.,Afirmación,En28,28,,,,,0,17,17,17,,,,,,,,,1,0.972138501124,3,0.400419294697,,,,,,,,,2018_may._29_1246,59.9917009336,Experimento Piloto1,001,129,
0.25,Stim\\03_078.jpg,Tr78_30,Tristeza,30,Marisol toma 2 litros de agua cada día.,Afirmación,Tr78,78,,,,,0,18,18,18,,,,,,,,,1,1.2159327522,3,0.400417955952,,,,,,,,,2018_may._29_1246,59.9917009336,Experimento Piloto1,001,129,
0.25,Stim\\03_019.jpg,Tr19_20,Tristeza,20,Karen analiza la idea.,Afirmación,Tr19,19,,,,,0,19,19,19,,,,,,,,,1,1.17435180235,3,0.399933330536,,,,,,,,,2018_may._29_1246,59.9917009336,Experimento Piloto1,001,129,
0.25,Stim\\05_028.jpg,En28_19,Enojo,19,Armando acompaña a Rodrígo a la tienda.,Afirmación,En28,28,,,,,0,20,20,20,,,,,,,,,1,1.11417614126,3,0.483760586119,,,,,,,,,2018_may._29_1246,59.9917009336,Experimento Piloto1,001,129,
0.25,Stim\\05_019.jpg,En19_26,Enojo,26,Víctor trae el café a Marco.,Afirmación,En19,19,,,,,0,21,21,21,,,,,,,,,1,1.28702944256,3,0.333607924652,,,,,,,,,2018_may._29_1246,59.9917009336,Experimento Piloto1,001,129,
0.25,Stim\\02_028.jpg,Al28_16,Alegría,16,Valeria modifica algunas imágenes.,Afirmación,Al28,28,,,,,0,22,22,22,,,,,,,,,1,0.91850796062,3,0.333778391418,,,,,,,,,2018_may._29_1246,59.9917009336,Experimento Piloto1,001,129,
2.5,Stim\\02_075.jpg,Al75_17,Alegría,17,Brenda sube el autobús en las mañanas.,Afirmación,Al75,75,,,,,0,23,23,23,,,,,,,,,1,1.38182726094,3,0.450357132338,,,,,,,,,2018_may._29_1246,59.9917009336,Experimento Piloto1,001,129,
2.5,Stim\\05_075.jpg,En75_30,Enojo,30,Marisol toma 2 litros de agua cada día.,Afirmación,En75,75,,,,,0,24,24,24,,,,,,,,,1,1.42875337029,3,0.433640233013,,,,,,,,,2018_may._29_1246,59.9917009336,Experimento Piloto1,001,129,
2.5,Stim\\03_075.jpg,Tr75_27,Tristeza,27,Claudia informa los avances en el reporte.,Afirmación,Tr75,75,,,,,0,25,25,25,,,,,,,,,1,1.84245434659,3,0.433864249549,,,,,,,,,2018_may._29_1246,59.9917009336,Experimento Piloto1,001,129,
2.5,Stim\\03_028.jpg,Tr28_24,Tristeza,24,Guadalupe comenta los resultados con los compañeros.,Afirmación,Tr28,28,,,,,0,26,26,26,,,,,,,,,1,1.37406477559,3,0.450274130195,,,,,,,,,2018_may._29_1246,59.9917009336,Experimento Piloto1,001,129,
0.25,Stim\\05_028.jpg,En28_24,Enojo,24,Guadalupe comenta los resultados con los compañeros.,Afirmación,En28,28,,,,,0,27,27,27,,,,,,,,,1,1.28327069498,3,0.350337318924,,,,,,,,,2018_may._29_1246,59.9917009336,Experimento Piloto1,001,129,
0.25,Stim\\03_028.jpg,Tr28_17,Tristeza,17,Brenda sube el autobús en las mañanas.,Afirmación,Tr28,28,,,,,0,28,28,28,,,,,,,,,1,0.898720874504,3,0.300426256166,,,,,,,,,2018_may._29_1246,59.9917009336,Experimento Piloto1,001,129,
0.25,Stim\\02_028.jpg,Al28_28,Alegría,28,Antonio responde la pregunta.,Afirmación,Al28,28,,,,,0,29,29,29,,,,,,,,,1,0.754733576508,3,0.300379846365,,,,,,,,,2018_may._29_1246,59.9917009336,Experimento Piloto1,001,129,
2.5,Stim\\02_028.jpg,Al28_24,Alegría,24,Guadalupe comenta los resultados con los compañeros.,Afirmación,Al28,28,,,,,0,30,30,30,,,,,,,,,1,1.30754525179,3,0.35030786655,,,,,,,,,2018_may._29_1246,59.9917009336,Experimento Piloto1,001,129,
0.25,Stim\\02_078.jpg,Al78_29,Alegría,29,Miriam mira la película.,Afirmación,Al78,78,,,,,0,31,31,31,,,,,,,,,1,0.708487102985,3,0.300326296596,,,,,,,,,2018_may._29_1246,59.9917009336,Experimento Piloto1,001,129,
0.25,Stim\\05_078.jpg,En78_19,Enojo,19,Armando acompaña a Rodrígo a la tienda.,Afirmación,En78,78,,,,,0,32,32,32,,,,,,,,,1,0.899259049687,3,0.350357846335,,,,,,,,,2018_may._29_1246,59.9917009336,Experimento Piloto1,001,129,
0.25,Stim\\03_019.jpg,Tr19_21,Tristeza,21,Mauro anuncia la actividad.,Afirmación,Tr19,19,,,,,0,33,33,33,,,,,,,,,1,0.823484786956,3,0.233601944928,,,,,,,,,2018_may._29_1246,59.9917009336,Experimento Piloto1,001,129,
0.25,Stim\\02_028.jpg,Al28_25,Alegría,25,Luis decide la comida siguiente.,Afirmación,Al28,28,,,,,0,34,34,34,,,,,,,,,1,0.696723111098,3,0.250271988205,,,,,,,,,2018_may._29_1246,59.9917009336,Experimento Piloto1,001,129,
2.5,Stim\\03_078.jpg,Tr78_26,Tristeza,26,Víctor trae el café a Marco.,Afirmación,Tr78,78,,,,,0,35,35,35,,,,,,,,,1,0.822622635666,3,0.283610289767,,,,,,,,,2018_may._29_1246,59.9917009336,Experimento Piloto1,001,129,
2.5,Stim\\05_078.jpg,En78_20,Enojo,20,Karen analiza la idea.,Afirmación,En78,78,,,,,0,36,36,36,,,,,,,,,1,0.676142149649,3,0.333867194786,,,,,,,,,2018_may._29_1246,59.9917009336,Experimento Piloto1,001,129,
2.5,Stim\\02_078.jpg,Al78_23,Alegría,23,Óscar consigue un nuevo departamento.,Afirmación,Al78,78,,,,,0,37,37,37,,,,,,,,,1,1.18269262522,3,0.333699405509,,,,,,,,,2018_may._29_1246,59.9917009336,Experimento Piloto1,001,129,
0.25,Stim\\03_078.jpg,Tr78_21,Tristeza,21,Mauro anuncia la actividad.,Afirmación,Tr78,78,,,,,0,38,38,38,,,,,,,,,1,1.07291247379,3,0.400180998222,,,,,,,,,2018_may._29_1246,59.9917009336,Experimento Piloto1,001,129,
2.5,Stim\\03_075.jpg,Tr75_18,Tristeza,18,Sofía escucha la música.,Afirmación,Tr75,75,,,,,0,39,39,39,,,,,,,,,1,0.874890780782,3,0.333891738431,,,,,,,,,2018_may._29_1246,59.9917009336,Experimento Piloto1,001,129,
2.5,Stim\\03_019.jpg,Tr19_19,Tristeza,19,Armando acompaña a Rodrígo a la tienda.,Afirmación,Tr19,19,,,,,0,40,40,40,,,,,,,,,1,0.863071454135,3,0.45028707139,,,,,,,,,2018_may._29_1246,59.9917009336,Experimento Piloto1,001,129,
0.25,Stim\\03_019.jpg,Tr19_17,Tristeza,17,Brenda sube el autobús en las mañanas.,Afirmación,Tr19,19,,,,,0,41,41,41,,,,,,,,,1,1.06604293085,3,0.400336738801,,,,,,,,,2018_may._29_1246,59.9917009336,Experimento Piloto1,001,129,
2.5,Stim\\05_078.jpg,En78_18,Enojo,18,Sofía escucha la música.,Afirmación,En78,78,,,,,0,42,42,42,,,,,,,,,1,1.3752120794,3,0.400418848448,,,,,,,,,2018_may._29_1246,59.9917009336,Experimento Piloto1,001,129,
0.25,Stim\\05_019.jpg,En19_24,Enojo,24,Guadalupe comenta los resultados con los compañeros.,Afirmación,En19,19,,,,,0,43,43,43,,,,,,,,,1,1.15660362371,3,0.350009772833,,,,,,,,,2018_may._29_1246,59.9917009336,Experimento Piloto1,001,129,
0.25,Stim\\02_075.jpg,Al75_20,Alegría,20,Karen analiza la idea.,Afirmación,Al75,75,,,,,0,44,44,44,,,,,,,,,1,0.808845618692,3,0.350236913106,,,,,,,,,2018_may._29_1246,59.9917009336,Experimento Piloto1,001,129,
0.25,Stim\\03_075.jpg,Tr75_23,Tristeza,23,Óscar consigue un nuevo departamento.,Afirmación,Tr75,75,,,,,0,45,45,45,,,,,,,,,1,0.849791557522,3,0.350185148328,,,,,,,,,2018_may._29_1246,59.9917009336,Experimento Piloto1,001,129,
0.25,Stim\\05_078.jpg,En78_16,Enojo,16,Valeria modifica algunas imágenes.,Afirmación,En78,78,,,,,0,46,46,46,,,,,,,,,1,1.16655138591,3,0.399879780768,,,,,,,,,2018_may._29_1246,59.9917009336,Experimento Piloto1,001,129,
2.5,Stim\\02_019.jpg,Al19_20,Alegría,20,Karen analiza la idea.,Afirmación,Al19,19,,,,,0,47,47,47,,,,,,,,,1,0.659176690143,3,0.350306081558,,,,,,,,,2018_may._29_1246,59.9917009336,Experimento Piloto1,001,129,
0.25,Stim\\03_075.jpg,Tr75_28,Tristeza,28,Antonio responde la pregunta.,Afirmación,Tr75,75,,,,,0,48,48,48,,,,,,,,,1,1.12221485417,3,0.283737916718,,,,,,,,,2018_may._29_1246,59.9917009336,Experimento Piloto1,001,129,
0.25,Stim\\05_078.jpg,En78_25,Enojo,25,Luis decide la comida siguiente.,Afirmación,En78,78,,,,,0,49,49,49,,,,,,,,,1,1.01827475137,3,0.233705028234,,,,,,,,,2018_may._29_1246,59.9917009336,Experimento Piloto1,001,129,
2.5,Stim\\03_019.jpg,Tr19_23,Tristeza,23,Óscar consigue un nuevo departamento.,Afirmación,Tr19,19,,,,,0,50,50,50,,,,,,,,,1,1.18308086104,3,0.550188182816,,,,,,,,,2018_may._29_1246,59.9917009336,Experimento Piloto1,001,129,
2.5,Stim\\03_075.jpg,Tr75_24,Tristeza,24,Guadalupe comenta los resultados con los compañeros.,Afirmación,Tr75,75,,,,,0,51,51,51,,,,,,,,,1,1.00770581185,3,0.35002673026,,,,,,,,,2018_may._29_1246,59.9917009336,Experimento Piloto1,001,129,
0.25,Stim\\02_078.jpg,Al78_20,Alegría,20,Karen analiza la idea.,Afirmación,Al78,78,,,,,0,52,52,52,,,,,,,,,1,1.17556738212,3,0.33375250903,,,,,,,,,2018_may._29_1246,59.9917009336,Experimento Piloto1,001,129,
2.5,Stim\\02_078.jpg,Al78_30,Alegría,30,Marisol toma 2 litros de agua cada día.,Afirmación,Al78,78,,,,,0,53,53,53,,,,,,,,,1,0.866248294217,3,0.350293140364,,,,,,,,,2018_may._29_1246,59.9917009336,Experimento Piloto1,001,129,
2.5,Stim\\03_028.jpg,Tr28_27,Tristeza,27,Claudia informa los avances en el reporte.,Afirmación,Tr28,28,,,,,0,54,54,54,,,,,,,,,1,0.963823114401,3,0.33374090658,,,,,,,,,2018_may._29_1246,59.9917009336,Experimento Piloto1,001,129,
2.5,Stim\\02_075.jpg,Al75_28,Alegría,28,Antonio responde la pregunta.,Afirmación,Al75,75,,,,,0,55,55,55,,,,,,,,,1,0.670961655687,3,0.350070462571,,,,,,,,,2018_may._29_1246,59.9917009336,Experimento Piloto1,001,129,
2.5,Stim\\03_078.jpg,Tr78_28,Tristeza,28,Antonio responde la pregunta.,Afirmación,Tr78,78,,,,,0,56,56,56,,,,,,,,,1,0.666860635833,3,0.350376588754,,,,,,,,,2018_may._29_1246,59.9917009336,Experimento Piloto1,001,129,
0.25,Stim\\03_028.jpg,Tr28_19,Tristeza,19,Armando acompaña a Rodrígo a la tienda.,Afirmación,Tr28,28,,,,,0,57,57,57,,,,,,,,,1,0.898407608352,3,0.300444552337,,,,,,,,,2018_may._29_1246,59.9917009336,Experimento Piloto1,001,129,
2.5,Stim\\05_078.jpg,En78_21,Enojo,21,Mauro anuncia la actividad.,Afirmación,En78,78,,,,,0,58,58,58,,,,,,,,,1,0.723389111368,3,0.333760095247,,,,,,,,,2018_may._29_1246,59.9917009336,Experimento Piloto1,001,129,
0.25,Stim\\05_028.jpg,En28_17,Enojo,17,Brenda sube el autobús en las mañanas.,Afirmación,En28,28,,,,,0,59,59,59,,,,,,,,,1,1.06605854953,3,0.300295505478,,,,,,,,,2018_may._29_1246,59.9917009336,Experimento Piloto1,001,129,
0.25,Stim\\03_075.jpg,Tr75_20,Tristeza,20,Karen analiza la idea.,Afirmación,Tr75,75,,,,,0,60,60,60,,,,,,,,,1,0.606926394949,3,0.28388383984,,,,,,,,,2018_may._29_1246,59.9917009336,Experimento Piloto1,001,129,
2.5,Stim\\03_078.jpg,Tr78_21,Tristeza,21,Mauro anuncia la actividad.,Afirmación,Tr78,78,,,,,0,61,61,61,,,,,,,,,1,0.97286231551,3,0.300402605018,,,,,,,,,2018_may._29_1246,59.9917009336,Experimento Piloto1,001,129,
0.25,Stim\\05_075.jpg,En75_17,Enojo,17,Brenda sube el autobús en las mañanas.,Afirmación,En75,75,,,,,0,62,62,62,,,,,,,,,1,0.799116518051,3,0.350459144649,,,,,,,,,2018_may._29_1246,59.9917009336,Experimento Piloto1,001,129,
0.25,Stim\\03_019.jpg,Tr19_26,Tristeza,26,Víctor trae el café a Marco.,Afirmación,Tr19,19,,,,,0,63,63,63,,,,,,,,,1,0.805958393614,3,0.350302957821,,,,,,,,,2018_may._29_1246,59.9917009336,Experimento Piloto1,001,129,
0.25,Stim\\05_019.jpg,En19_30,Enojo,30,Marisol toma 2 litros de agua cada día.,Afirmación,En19,19,,,,,0,64,64,64,,,,,,,,,1,1.26524048755,3,0.400265339109,,,,,,,,,2018_may._29_1246,59.9917009336,Experimento Piloto1,001,129,
0.25,Stim\\02_019.jpg,Al19_27,Alegría,27,Claudia informa los avances en el reporte.,Afirmación,Al19,19,,,,,0,65,65,65,,,,,,,,,1,1.53059610711,3,0.333663705662,,,,,,,,,2018_may._29_1246,59.9917009336,Experimento Piloto1,001,129,
0.25,Stim\\05_028.jpg,En28_23,Enojo,23,Óscar consigue un nuevo departamento.,Afirmación,En28,28,,,,,0,66,66,66,,,,,,,,,1,1.26640474879,3,0.400342093778,,,,,,,,,2018_may._29_1246,59.9917009336,Experimento Piloto1,001,129,
0.25,Stim\\05_019.jpg,En19_18,Enojo,18,Sofía escucha la música.,Afirmación,En19,19,,,,,0,67,67,67,,,,,,,,,1,0.858083739345,3,0.450383014727,,,,,,,,,2018_may._29_1246,59.9917009336,Experimento Piloto1,001,129,
0.25,Stim\\05_075.jpg,En75_25,Enojo,25,Luis decide la comida siguiente.,Afirmación,En75,75,,,,,0,68,68,68,,,,,,,,,1,0.967822835943,3,0.333867641035,,,,,,,,,2018_may._29_1246,59.9917009336,Experimento Piloto1,001,129,
0.25,Stim\\03_078.jpg,Tr78_16,Tristeza,16,Valeria modifica algunas imágenes.,Afirmación,Tr78,78,,,,,0,69,69,69,,,,,,,,,1,0.918412909778,3,0.350434154757,,,,,,,,,2018_may._29_1246,59.9917009336,Experimento Piloto1,001,129,
0.25,Stim\\05_019.jpg,En19_27,Enojo,27,Claudia informa los avances en el reporte.,Afirmación,En19,19,,,,,0,70,70,70,,,,,,,,,1,0.946870596089,3,0.30044633733,,,,,,,,,2018_may._29_1246,59.9917009336,Experimento Piloto1,001,129,
0.25,Stim\\05_075.jpg,En75_30,Enojo,30,Marisol toma 2 litros de agua cada día.,Afirmación,En75,75,,,,,0,71,71,71,,,,,,,,,1,1.21526828881,3,0.300198669645,,,,,,,,,2018_may._29_1246,59.9917009336,Experimento Piloto1,001,129,
2.5,Stim\\02_028.jpg,Al28_16,Alegría,16,Valeria modifica algunas imágenes.,Afirmación,Al28,28,,,,,0,72,72,72,,,,,,,,,1,0.802360295344,3,0.300219197056,,,,,,,,,2018_may._29_1246,59.9917009336,Experimento Piloto1,001,129,
0.25,Stim\\05_075.jpg,En75_29,Enojo,29,Miriam mira la película.,Afirmación,En75,75,,,,,0,73,73,73,,,,,,,,,1,0.60774436768,3,0.350238698098,,,,,,,,,2018_may._29_1246,59.9917009336,Experimento Piloto1,001,129,
2.5,Stim\\02_028.jpg,Al28_28,Alegría,28,Antonio responde la pregunta.,Afirmación,Al28,28,,,,,0,74,74,74,,,,,,,,,1,0.655766908562,3,0.300428041158,,,,,,,,,2018_may._29_1246,59.9917009336,Experimento Piloto1,001,129,
2.5,Stim\\03_019.jpg,Tr19_28,Tristeza,28,Antonio responde la pregunta.,Afirmación,Tr19,19,,,,,0,75,75,75,,,,,,,,,1,0.733737158096,3,0.333610602141,,,,,,,,,2018_may._29_1246,59.9917009336,Experimento Piloto1,001,129,
0.25,Stim\\02_028.jpg,Tr28_30,Tristeza,30,Marisol toma 2 litros de agua cada día.,Afirmación,Tr28,28,,,,,0,76,76,76,,,,,,,,,1,0.965611676706,3,0.333750277789,,,,,,,,,2018_may._29_1246,59.9917009336,Experimento Piloto1,001,129,
2.5,Stim\\02_075.jpg,Al75_27,Alegría,27,Claudia informa los avances en el reporte.,Afirmación,Al75,75,,,,,0,77,77,77,,,,,,,,,1,1.00820427095,3,0.383466776385,,,,,,,,,2018_may._29_1246,59.9917009336,Experimento Piloto1,001,129,
2.5,Stim\\02_075.jpg,Al75_20,Alegría,20,Karen analiza la idea.,Afirmación,Al75,75,,,,,0,78,78,78,,,,,,,,,1,0.677093996804,3,0.333756079015,,,,,,,,,2018_may._29_1246,59.9917009336,Experimento Piloto1,001,129,
2.5,Stim\\05_019.jpg,En19_28,Enojo,28,Antonio responde la pregunta.,Afirmación,En19,19,,,,,0,79,79,79,,,,,,,,,1,0.938222754547,3,0.333784192643,,,,,,,,,2018_may._29_1246,59.9917009336,Experimento Piloto1,001,129,
2.5,Stim\\02_078.jpg,Al78_21,Alegría,21,Mauro anuncia la actividad.,Afirmación,Al78,78,,,,,0,80,80,80,,,,,,,,,1,1.01657543868,3,0.350329732706,,,,,,,,,2018_may._29_1246,59.9917009336,Experimento Piloto1,001,129,
2.5,Stim\\03_078.jpg,Tr78_19,Tristeza,19,Armando acompaña a Rodrígo a la tienda.,Afirmación,Tr78,78,,,,,0,81,81,81,,,,,,,,,1,1.2145739268,3,0.350483688294,,,,,,,,,2018_may._29_1246,59.9917009336,Experimento Piloto1,001,129,
2.5,Stim\\05_075.jpg,En75_22,Enojo,22,Enrique corre todas las mañanas.,Afirmación,En75,75,,,,,0,82,82,82,,,,,,,,,1,1.1704707828,3,0.300287473013,,,,,,,,,2018_may._29_1246,59.9917009336,Experimento Piloto1,001,129,
0.25,Stim\\03_019.jpg,Tr19_19,Tristeza,19,Armando acompaña a Rodrígo a la tienda.,Afirmación,Tr19,19,,,,,0,83,83,83,,,,,,,,,1,1.01555933181,3,0.283734792981,,,,,,,,,2018_may._29_1246,59.9917009336,Experimento Piloto1,001,129,
2.5,Stim\\03_019.jpg,Tr19_27,Tristeza,27,Claudia informa los avances en el reporte.,Afirmación,Tr19,19,,,,,0,84,84,84,,,,,,,,,1,0.862478390437,3,0.350381051236,,,,,,,,,2018_may._29_1246,59.9917009336,Experimento Piloto1,001,129,
0.25,Stim\\05_078.jpg,En78_18,Enojo,18,Sofía escucha la música.,Afirmación,En78,78,,,,,0,85,85,85,,,,,,,,,1,1.07378176505,3,0.333756079015,,,,,,,,,2018_may._29_1246,59.9917009336,Experimento Piloto1,001,129,
2.5,Stim\\05_019.jpg,En19_25,Enojo,25,Luis decide la comida siguiente.,Afirmación,En19,19,,,,,0,86,86,86,,,,,,,,,1,0.667427817141,3,0.333740014084,,,,,,,,,2018_may._29_1246,59.9917009336,Experimento Piloto1,001,129,
0.25,Stim\\05_028.jpg,En28_16,Enojo,16,Valeria modifica algunas imágenes.,Afirmación,En28,28,,,,,0,87,87,87,,,,,,,,,1,0.868254179337,3,0.233749206794,,,,,,,,,2018_may._29_1246,59.9917009336,Experimento Piloto1,001,129,
2.5,Stim\\02_028.jpg,Al28_22,Alegría,22,Enrique corre todas las mañanas.,Afirmación,Al28,28,,,,,0,88,88,88,,,,,,,,,1,0.986802659281,3,0.383718460302,,,,,,,,,2018_may._29_1246,59.9917009336,Experimento Piloto1,001,129,
0.25,Stim\\03_078.jpg,Tr78_17,Tristeza,17,Brenda sube el autobús en las mañanas.,Afirmación,Tr78,78,,,,,0,89,89,89,,,,,,,,,1,1.06617502028,3,0.350357846335,,,,,,,,,2018_may._29_1246,59.9917009336,Experimento Piloto1,001,129,
2.5,Stim\\02_028.jpg,Al28_25,Alegría,25,Luis decide la comida siguiente.,Afirmación,Al28,28,,,,,0,90,90,90,,,,,,,,,1,0.818663968948,3,0.333613279628,,,,,,,,,2018_may._29_1246,59.9917009336,Experimento Piloto1,001,129,
0.25,Stim\\03_028.jpg,Tr28_18,Tristeza,18,Sofía escucha la música.,Afirmación,Tr28,28,,,,,0,91,91,91,,,,,,,,,1,0.874585100847,3,0.283989600634,,,,,,,,,2018_may._29_1246,59.9917009336,Experimento Piloto1,001,129,
2.5,Stim\\03_075.jpg,Tr75_26,Tristeza,26,Víctor trae el café a Marco.,Afirmación,Tr75,75,,,,,0,92,92,92,,,,,,,,,1,1.07256573904,3,0.350378819995,,,,,,,,,2018_may._29_1246,59.9917009336,Experimento Piloto1,001,129,
0.25,Stim\\02_019.jpg,Al19_19,Alegría,19,Armando acompaña a Rodrígo a la tienda.,Afirmación,Al19,19,,,,,0,93,93,93,,,,,,,,,1,1.26489419904,3,0.40031621139,,,,,,,,,2018_may._29_1246,59.9917009336,Experimento Piloto1,001,129,
0.25,Stim\\02_028.jpg,Al28_24,Alegría,24,Guadalupe comenta los resultados con los compañeros.,Afirmación,Al28,28,,,,,0,94,94,94,,,,,,,,,1,1.25759134921,3,0.350384174972,,,,,,,,,2018_may._29_1246,59.9917009336,Experimento Piloto1,001,129,
0.25,Stim\\05_078.jpg,En78_20,Enojo,20,Karen analiza la idea.,Afirmación,En78,78,,,,,0,95,95,95,,,,,,,,,1,0.708928888583,3,0.28370266312,,,,,,,,,2018_may._29_1246,59.9917009336,Experimento Piloto1,001,129,
2.5,Stim\\02_019.jpg,Al19_17,Alegría,17,Brenda sube el autobús en las mañanas.,Afirmación,Al19,19,,,,,0,96,96,96,,,,,,,,,1,0.86536427677,3,0.350331963947,,,,,,,,,2018_may._29_1246,59.9917009336,Experimento Piloto1,001,129,
0.25,Stim\\03_019.jpg,Tr19_18,Tristeza,18,Sofía escucha la música.,Afirmación,Tr19,19,,,,,0,97,97,97,,,,,,,,,1,0.70795562152,3,0.300419116197,,,,,,,,,2018_may._29_1246,59.9917009336,Experimento Piloto1,001,129,
0.25,Stim\\02_075.jpg,Al75_26,Alegría,26,Víctor trae el café a Marco.,Afirmación,Al75,75,,,,,0,98,98,98,,,,,,,,,1,0.921388491976,3,0.383703734115,,,,,,,,,2018_may._29_1246,59.9917009336,Experimento Piloto1,001,129,
2.5,Stim\\02_075.jpg,Al75_18,Alegría,18,Sofía escucha la música.,Afirmación,Al75,75,,,,,0,99,99,99,,,,,,,,,1,0.725195077348,3,0.283698200638,,,,,,,,,2018_may._29_1246,59.9917009336,Experimento Piloto1,001,129,
2.5,Stim\\05_019.jpg,En19_24,Enojo,24,Guadalupe comenta los resultados con los compañeros.,Afirmación,En19,19,,,,,0,100,100,100,,,,,,,,,1,1.02423528698,3,0.283658038311,,,,,,,,,2018_may._29_1246,59.9917009336,Experimento Piloto1,001,129,
2.5,Stim\\03_019.jpg,Tr19_30,Tristeza,30,Marisol toma 2 litros de agua cada día.,Afirmación,Tr19,19,,,,,0,101,101,101,,,,,,,,,1,0.965601859248,3,0.350349367622,,,,,,,,,2018_may._29_1246,59.9917009336,Experimento Piloto1,001,129,
2.5,Stim\\05_075.jpg,En75_17,Enojo,17,Brenda sube el autobús en las mañanas.,Afirmación,En75,75,,,,,0,102,102,102,,,,,,,,,1,1.01527417928,3,0.33372930413,,,,,,,,,2018_may._29_1246,59.9917009336,Experimento Piloto1,001,129,
0.25,Stim\\02_019.jpg,Al19_29,Alegría,29,Miriam mira la película.,Afirmación,Al19,19,,,,,0,103,103,103,,,,,,,,,1,0.724976862038,3,0.283768707835,,,,,,,,,2018_may._29_1246,59.9917009336,Experimento Piloto1,001,129,
0.25,Stim\\05_078.jpg,En78_22,Enojo,22,Enrique corre todas las mañanas.,Afirmación,En78,78,,,,,0,104,104,104,,,,,,,,,1,0.669813905625,3,0.283503636475,,,,,,,,,2018_may._29_1246,59.9917009336,Experimento Piloto1,001,129,
0.25,Stim\\03_028.jpg,Tr28_21,Tristeza,21,Mauro anuncia la actividad.,Afirmación,Tr28,28,,,,,0,105,105,105,,,,,,,,,1,0.606070044883,3,0.250495112245,,,,,,,,,2018_may._29_1246,59.9917009336,Experimento Piloto1,001,129,
2.5,Stim\\05_028.jpg,En28_19,Enojo,19,Armando acompaña a Rodrígo a la tienda.,Afirmación,En28,28,,,,,0,106,106,106,,,,,,,,,1,1.11512843466,3,0.300082645144,,,,,,,,,2018_may._29_1246,59.9917009336,Experimento Piloto1,001,129,
2.5,Stim\\03_019.jpg,Tr19_29,Tristeza,29,Miriam mira la película.,Afirmación,Tr19,19,,,,,0,107,107,107,,,,,,,,,1,0.874714512791,3,0.233607299904,,,,,,,,,2018_may._29_1246,59.9917009336,Experimento Piloto1,001,129,
2.5,Stim\\05_078.jpg,En78_17,Enojo,17,Brenda sube el autobús en las mañanas.,Afirmación,En78,78,,,,,0,108,108,108,,,,,,,,,1,0.816784372035,3,0.233858537574,,,,,,,,,2018_may._29_1246,59.9917009336,Experimento Piloto1,001,129,
2.5,Stim\\02_028.jpg,Al28_21,Alegría,21,Mauro anuncia la actividad.,Afirmación,Al28,28,,,,,0,109,109,109,,,,,,,,,1,0.773197537067,3,0.35042656854,,,,,,,,,2018_may._29_1246,59.9917009336,Experimento Piloto1,001,129,
0.25,Stim\\02_075.jpg,Al75_27,Alegría,27,Claudia informa los avances en el reporte.,Afirmación,Al75,75,,,,,0,110,110,110,,,,,,,,,1,2.54579754796,3,0.383680082967,,,,,,,,,2018_may._29_1246,59.9917009336,Experimento Piloto1,001,129,
0.25,Stim\\02_019.jpg,Al19_28,Alegría,28,Antonio responde la pregunta.,Afirmación,Al19,19,,,,,0,111,111,111,,,,,,,,,1,0.92114127054,3,0.299612745916,,,,,,,,,2018_may._29_1246,59.9917009336,Experimento Piloto1,001,129,
2.5,Stim\\05_019.jpg,En19_20,Enojo,20,Karen analiza la idea.,Afirmación,En19,19,,,,,0,112,112,112,,,,,,,,,1,0.708761545553,3,0.400063634976,,,,,,,,,2018_may._29_1246,59.9917009336,Experimento Piloto1,001,129,
2.5,Stim\\03_078.jpg,Tr78_22,Tristeza,22,Enrique corre todas las mañanas.,Afirmación,Tr78,78,,,,,0,113,113,113,,,,,,,,,1,1.11988053046,3,0.350337318923,,,,,,,,,2018_may._29_1246,59.9917009336,Experimento Piloto1,001,129,
2.5,Stim\\05_028.jpg,En28_18,Enojo,18,Sofía escucha la música.,Afirmación,En28,28,,,,,0,114,114,114,,,,,,,,,1,0.725239255908,3,0.333677093105,,,,,,,,,2018_may._29_1246,59.9917009336,Experimento Piloto1,001,129,
0.25,Stim\\03_075.jpg,Tr75_29,Tristeza,29,Miriam mira la película.,Afirmación,Tr75,75,,,,,0,115,115,115,,,,,,,,,1,1.54073084726,3,0.283816902627,,,,,,,,,2018_may._29_1246,59.9917009336,Experimento Piloto1,001,129,
0.25,Stim\\03_078.jpg,Tr78_24,Tristeza,24,Guadalupe comenta los resultados con los compañeros.,Afirmación,Tr78,78,,,,,0,116,116,116,,,,,,,,,1,1.10761584823,3,0.350336426427,,,,,,,,,2018_may._29_1246,59.9917009336,Experimento Piloto1,001,129,
2.5,Stim\\05_075.jpg,En75_23,Enojo,23,Óscar consigue un nuevo departamento.,Afirmación,En75,75,,,,,0,117,117,117,,,,,,,,,1,0.913536757009,3,0.333798026334,,,,,,,,,2018_may._29_1246,59.9917009336,Experimento Piloto1,001,129,
2.5,Stim\\03_019.jpg,Tr19_21,Tristeza,21,Mauro anuncia la actividad.,Afirmación,Tr19,19,,,,,0,118,118,118,,,,,,,,,1,0.723252113208,3,0.299991610535,,,,,,,,,2018_may._29_1246,59.9917009336,Experimento Piloto1,001,129,
0.25,Stim\\03_078.jpg,Tr78_29,Tristeza,29,Miriam mira la película.,Afirmación,Tr78,78,,,,,0,119,119,119,,,,,,,,,1,0.95828249824,3,0.40026266162,,,,,,,,,2018_may._29_1246,59.9917009336,Experimento Piloto1,001,129,
2.5,Stim\\02_078.jpg,Al78_17,Alegría,17,Brenda sube el autobús en las mañanas.,Afirmación,Al78,78,,,,,,,,,0,0,0,0,,,,,,,,,1,1.61512932716,3,0.450267882723,,,,,2018_may._29_1246,59.9917009336,Experimento Piloto1,001,129,
2.5,Stim\\05_019.jpg,En19_23,Enojo,23,Óscar consigue un nuevo departamento.,Afirmación,En19,19,,,,,,,,,0,1,1,1,,,,,,,,,1,1.7829636763,3,0.400361728693,,,,,2018_may._29_1246,59.9917009336,Experimento Piloto1,001,129,
0.25,Stim\\02_075.jpg,Al75_17,Alegría,17,Brenda sube el autobús en las mañanas.,Afirmación,Al75,75,,,,,,,,,0,2,2,2,,,,,,,,,1,1.26626016442,3,0.333899324648,,,,,2018_may._29_1246,59.9917009336,Experimento Piloto1,001,129,
2.5,Stim\\02_075.jpg,Al75_24,Alegría,24,Guadalupe comenta los resultados con los compañeros.,Afirmación,Al75,75,,,,,,,,,0,3,3,3,,,,,,,,,1,1.07227523154,3,0.333410683,,,,,2018_may._29_1246,59.9917009336,Experimento Piloto1,001,129,
0.25,Stim\\05_075.jpg,En75_19,Enojo,19,Armando acompaña a Rodrígo a la tienda.,Afirmación,En75,75,,,,,,,,,0,4,4,4,,,,,,,,,1,0.815060069454,3,0.383777365048,,,,,2018_may._29_1246,59.9917009336,Experimento Piloto1,001,129,
2.5,Stim\\02_019.jpg,Al19_29,Alegría,29,Miriam mira la película.,Afirmación,Al19,19,,,,,,,,,0,5,5,5,,,,,,,,,1,0.674175088112,3,0.350338657669,,,,,2018_may._29_1246,59.9917009336,Experimento Piloto1,001,129,
2.5,Stim\\02_078.jpg,Al78_24,Alegría,24,Guadalupe comenta los resultados con los compañeros.,Afirmación,Al78,78,,,,,,,,,0,6,6,6,,,,,,,,,1,0.791482552147,3,0.350518495644,,,,,2018_may._29_1246,59.9917009336,Experimento Piloto1,001,129,
0.25,Stim\\05_028.jpg,En28_20,Enojo,20,Karen analiza la idea.,Afirmación,En28,28,,,,,,,,,0,7,7,7,,,,,,,,,1,0.609204491398,3,0.350246284315,,,,,2018_may._29_1246,59.9917009336,Experimento Piloto1,001,129,
0.25,Stim\\03_078.jpg,Tr78_27,Tristeza,27,Claudia informa los avances en el reporte.,Afirmación,Tr78,78,,,,,,,,,0,8,8,8,,,,,,,,,1,0.846630782371,3,0.300367351419,,,,,2018_may._29_1246,59.9917009336,Experimento Piloto1,001,129,
0.25,Stim\\02_019.jpg,Al19_30,Alegría,30,Marisol toma 2 litros de agua cada día.,Afirmación,Al19,19,,,,,,,,,0,9,9,9,,,,,,,,,1,0.646123933801,3,0.300422239933,,,,,2018_may._29_1246,59.9917009336,Experimento Piloto1,001,129,
2.5,Stim\\02_019.jpg,Al19_19,Alegría,19,Armando acompaña a Rodrígo a la tienda.,Afirmación,Al19,19,,,,,,,,,0,10,10,10,,,,,,,,,1,0.763629085735,3,0.333751616533,,,,,2018_may._29_1246,59.9917009336,Experimento Piloto1,001,129,
0.25,Stim\\02_028.jpg,Al28_30,Alegría,30,Marisol toma 2 litros de agua cada día.,Afirmación,Al28,28,,,,,,,,,0,11,11,11,,,,,,,,,1,0.865113931598,3,0.333772143945,,,,,2018_may._29_1246,59.9917009336,Experimento Piloto1,001,129,
2.5,Stim\\02_019.jpg,Al19_16,Alegría,16,Valeria modifica algunas imágenes.,Afirmación,Al19,19,,,,,,,,,0,12,12,12,,,,,,,,,1,0.818136503718,3,0.350261456751,,,,,2018_may._29_1246,59.9917009336,Experimento Piloto1,001,129,
2.5,Stim\\03_075.jpg,Tr75_30,Tristeza,30,Marisol toma 2 litros de agua cada día.,Afirmación,Tr75,75,,,,,,,,,0,13,13,13,,,,,,,,,1,0.699202019183,3,0.35036141632,,,,,2018_may._29_1246,59.9917009336,Experimento Piloto1,001,129,
2.5,Stim\\02_078.jpg,Al78_19,Alegría,19,Armando acompaña a Rodrígo a la tienda.,Afirmación,Al78,78,,,,,,,,,0,14,14,14,,,,,,,,,1,0.665193006757,3,0.383703287866,,,,,2018_may._29_1246,59.9917009336,Experimento Piloto1,001,129,
2.5,Stim\\05_075.jpg,En75_25,Enojo,25,Luis decide la comida siguiente.,Afirmación,En75,75,,,,,,,,,0,15,15,15,,,,,,,,,1,0.61808482819,3,0.383707750348,,,,,2018_may._29_1246,59.9917009336,Experimento Piloto1,001,129,
0.25,Stim\\03_075.jpg,Tr75_24,Tristeza,24,Guadalupe comenta los resultados con los compañeros.,Afirmación,Tr75,75,,,,,,,,,0,16,16,16,,,,,,,,,1,0.957152598101,3,0.400323797607,,,,,2018_may._29_1246,59.9917009336,Experimento Piloto1,001,129,
2.5,Stim\\05_078.jpg,En78_25,Enojo,25,Luis decide la comida siguiente.,Afirmación,En78,78,,,,,,,,,0,17,17,17,,,,,,,,,1,1.01857596883,3,0.400290775249,,,,,2018_may._29_1246,59.9917009336,Experimento Piloto1,001,129,
2.5,Stim\\05_028.jpg,En28_17,Enojo,17,Brenda sube el autobús en las mañanas.,Afirmación,En28,28,,,,,,,,,0,18,18,18,,,,,,,,,1,1.21553514516,3,0.350592126577,,,,,2018_may._29_1246,59.9917009336,Experimento Piloto1,001,129,
0.25,Stim\\02_078.jpg,Al78_26,Alegría,26,Víctor trae el café a Marco.,Afirmación,Al78,78,,,,,,,,,0,19,19,19,,,,,,,,,1,1.83895799288,3,0.283762014114,,,,,2018_may._29_1246,59.9917009336,Experimento Piloto1,001,129,
2.5,Stim\\03_075.jpg,Tr75_20,Tristeza,20,Karen analiza la idea.,Afirmación,Tr75,75,,,,,,,,,0,20,20,20,,,,,,,,,1,0.576423107439,3,0.283830736318,,,,,2018_may._29_1246,59.9917009336,Experimento Piloto1,001,129,
2.5,Stim\\05_028.jpg,En28_21,Enojo,21,Mauro anuncia la actividad.,Afirmación,En28,28,,,,,,,,,0,21,21,21,,,,,,,,,1,0.972026046607,3,0.400525055491,,,,,2018_may._29_1246,59.9917009336,Experimento Piloto1,001,129,
0.25,Stim\\05_019.jpg,En19_21,Enojo,21,Mauro anuncia la actividad.,Afirmación,En19,19,,,,,,,,,0,22,22,22,,,,,,,,,1,0.76695631142,3,0.300464633501,,,,,2018_may._29_1246,59.9917009336,Experimento Piloto1,001,129,
0.25,Stim\\03_028.jpg,Tr28_16,Tristeza,16,Valeria modifica algunas imágenes.,Afirmación,Tr28,28,,,,,,,,,0,23,23,23,,,,,,,,,1,0.818580966805,3,0.283616537239,,,,,2018_may._29_1246,59.9917009336,Experimento Piloto1,001,129,
0.25,Stim\\05_075.jpg,En75_27,Enojo,27,Claudia informa los avances en el reporte.,Afirmación,En75,75,,,,,,,,,0,24,24,24,,,,,,,,,1,0.74697510739,3,0.250236288358,,,,,2018_may._29_1246,59.9917009336,Experimento Piloto1,001,129,
2.5,Stim\\02_078.jpg,Al78_18,Alegría,18,Sofía escucha la música.,Afirmación,Al78,78,,,,,,,,,0,25,25,25,,,,,,,,,1,0.558081865102,3,0.300380738862,,,,,2018_may._29_1246,59.9917009336,Experimento Piloto1,001,129,
2.5,Stim\\03_028.jpg,Tr28_25,Tristeza,25,Luis decide la comida siguiente.,Afirmación,Tr28,28,,,,,,,,,0,26,26,26,,,,,,,,,1,0.768161181237,3,0.283611628511,,,,,2018_may._29_1246,59.9917009336,Experimento Piloto1,001,129,
0.25,Stim\\03_075.jpg,Tr75_18,Tristeza,18,Sofía escucha la música.,Afirmación,Tr75,75,,,,,,,,,0,27,27,27,,,,,,,,,1,0.557583852245,3,0.200054353017,,,,,2018_may._29_1246,59.9917009336,Experimento Piloto1,001,129,
2.5,Stim\\02_028.jpg,Al28_27,Alegría,27,Claudia informa los avances en el reporte.,Afirmación,Al28,28,,,,,,,,,0,28,28,28,,,,,,,,,1,0.913698298813,3,0.283769154083,,,,,2018_may._29_1246,59.9917009336,Experimento Piloto1,001,129,
2.5,Stim\\02_028.jpg,Al28_20,Alegría,20,Karen analiza la idea.,Afirmación,Al28,28,,,,,,,,,0,29,29,29,,,,,,,,,1,0.725485584849,3,0.283819133868,,,,,2018_may._29_1246,59.9917009336,Experimento Piloto1,001,129,
0.25,Stim\\05_078.jpg,En78_29,Enojo,29,Miriam mira la película.,Afirmación,En78,78,,,,,,,,,0,30,30,30,,,,,,,,,1,1.49081219828,3,0.233774642935,,,,,2018_may._29_1246,59.9917009336,Experimento Piloto1,001,129,
0.25,Stim\\05_019.jpg,En19_22,Enojo,22,Enrique corre todas las mañanas.,Afirmación,En19,19,,,,,,,,,0,31,31,31,,,,,,,,,1,0.968778253082,3,0.349954438071,,,,,2018_may._29_1246,59.9917009336,Experimento Piloto1,001,129,
2.5,Stim\\03_019.jpg,Tr19_20,Tristeza,20,Karen analiza la idea.,Afirmación,Tr19,19,,,,,,,,,0,32,32,32,,,,,,,,,1,0.458725176335,3,0.33372216416,,,,,2018_may._29_1246,59.9917009336,Experimento Piloto1,001,129,
2.5,Stim\\05_078.jpg,En78_22,Enojo,22,Enrique corre todas las mañanas.,Afirmación,En78,78,,,,,,,,,0,33,33,33,,,,,,,,,1,0.720465740196,3,0.400253290411,,,,,2018_may._29_1246,59.9917009336,Experimento Piloto1,001,129,
2.5,Stim\\02_078.jpg,Al78_16,Alegría,16,Valeria modifica algunas imágenes.,Afirmación,Al78,78,,,,,,,,,0,34,34,34,,,,,,,,,1,0.718632553084,3,0.283695523151,,,,,2018_may._29_1246,59.9917009336,Experimento Piloto1,001,129,
2.5,Stim\\05_028.jpg,En28_24,Enojo,24,Guadalupe comenta los resultados con los compañeros.,Afirmación,En28,28,,,,,,,,,0,35,35,35,,,,,,,,,1,0.807672432489,3,0.283780310285,,,,,2018_may._29_1246,59.9917009336,Experimento Piloto1,001,129,
2.5,Stim\\02_075.jpg,Al75_16,Alegría,16,Valeria modifica algunas imágenes.,Afirmación,Al75,75,,,,,,,,,0,36,36,36,,,,,,,,,1,0.619269616842,3,0.300135302417,,,,,2018_may._29_1246,59.9917009336,Experimento Piloto1,001,129,
0.25,Stim\\02_019.jpg,Al19_18,Alegría,18,Sofía escucha la música.,Afirmación,Al19,19,,,,,,,,,0,37,37,37,,,,,,,,,1,0.708338056126,3,0.283826720085,,,,,2018_may._29_1246,59.9917009336,Experimento Piloto1,001,129,
2.5,Stim\\02_028.jpg,Al28_26,Alegría,26,Víctor trae el café a Marco.,Afirmación,Al28,28,,,,,,,,,0,38,38,38,,,,,,,,,1,0.621216150967,3,0.400158685818,,,,,2018_may._29_1246,59.9917009336,Experimento Piloto1,001,129,
2.5,Stim\\02_078.jpg,Al78_29,Alegría,29,Miriam mira la película.,Afirmación,Al78,78,,,,,,,,,0,39,39,39,,,,,,,,,1,0.507948124553,3,0.28373970171,,,,,2018_may._29_1246,59.9917009336,Experimento Piloto1,001,129,
0.25,Stim\\05_078.jpg,En78_24,Enojo,24,Guadalupe comenta los resultados con los compañeros.,Afirmación,En78,78,,,,,,,,,0,40,40,40,,,,,,,,,1,1.05711439927,3,0.250353651603,,,,,2018_may._29_1246,59.9917009336,Experimento Piloto1,001,129,
0.25,Stim\\03_075.jpg,Tr75_19,Tristeza,19,Armando acompaña a Rodrígo a la tienda.,Afirmación,Tr75,75,,,,,,,,,0,41,41,41,,,,,,,,,1,1.11368571462,3,0.233779105415,,,,,2018_may._29_1246,59.9917009336,Experimento Piloto1,001,129,
0.25,Stim\\02_028.jpg,Al28_17,Alegría,17,Brenda sube el autobús en las mañanas.,Afirmación,Al28,28,,,,,,,,,0,42,42,42,,,,,,,,,1,0.641922954376,3,0.300708731201,,,,,2018_may._29_1246,59.9917009336,Experimento Piloto1,001,129,
2.5,Stim\\05_075.jpg,En75_21,Enojo,21,Mauro anuncia la actividad.,Afirmación,En75,75,,,,,,,,,0,43,43,43,,,,,,,,,1,0.555289690867,3,0.350277075433,,,,,2018_may._29_1246,59.9917009336,Experimento Piloto1,001,129,
0.25,Stim\\03_019.jpg,Tr19_27,Tristeza,27,Claudia informa los avances en el reporte.,Afirmación,Tr19,19,,,,,,,,,0,44,44,44,,,,,,,,,1,0.746394092389,3,0.250283590655,,,,,2018_may._29_1246,59.9917009336,Experimento Piloto1,001,129,
2.5,Stim\\02_075.jpg,Al75_19,Alegría,19,Armando acompaña a Rodrígo a la tienda.,Afirmación,Al75,75,,,,,,,,,0,45,45,45,,,,,,,,,1,1.01583779061,3,0.300374937637,,,,,2018_may._29_1246,59.9917009336,Experimento Piloto1,001,129,
2.5,Stim\\03_019.jpg,Tr19_22,Tristeza,22,Enrique corre todas las mañanas.,Afirmación,Tr19,19,,,,,,,,,0,46,46,46,,,,,,,,,1,0.702939346854,3,0.300388771328,,,,,2018_may._29_1246,59.9917009336,Experimento Piloto1,001,129,
2.5,Stim\\02_075.jpg,Al75_23,Alegría,23,Óscar consigue un nuevo departamento.,Afirmación,Al75,75,,,,,,,,,0,47,47,47,,,,,,,,,1,0.91560467061,3,0.283778971541,,,,,2018_may._29_1246,59.9917009336,Experimento Piloto1,001,129,
2.5,Stim\\02_019.jpg,Al19_27,Alegría,27,Claudia informa los avances en el reporte.,Afirmación,Al19,19,,,,,,,,,0,48,48,48,,,,,,,,,1,0.7634282741,3,0.30043473488,,,,,2018_may._29_1246,59.9917009336,Experimento Piloto1,001,129,
2.5,Stim\\03_028.jpg,Tr28_16,Tristeza,16,Valeria modifica algunas imágenes.,Afirmación,Tr28,28,,,,,,,,,0,49,49,49,,,,,,,,,1,0.702343605667,3,0.300403943762,,,,,2018_may._29_1246,59.9917009336,Experimento Piloto1,001,129,
2.5,Stim\\02_078.jpg,Al78_20,Alegría,20,Karen analiza la idea.,Afirmación,Al78,78,,,,,,,,,0,50,50,50,,,,,,,,,1,0.509410925759,3,0.300316479138,,,,,2018_may._29_1246,59.9917009336,Experimento Piloto1,001,129,
2.5,Stim\\05_075.jpg,En75_24,Enojo,24,Guadalupe comenta los resultados con los compañeros.,Afirmación,En75,75,,,,,,,,,0,51,51,51,,,,,,,,,1,1.30718423709,3,0.350583647864,,,,,2018_may._29_1246,59.9917009336,Experimento Piloto1,001,129,
0.25,Stim\\03_028.jpg,Tr28_26,Tristeza,26,Víctor trae el café a Marco.,Afirmación,Tr28,28,,,,,,,,,0,52,52,52,,,,,,,,,1,1.121209011,3,0.283768707834,,,,,2018_may._29_1246,59.9917009336,Experimento Piloto1,001,129,
2.5,Stim\\03_028.jpg,Tr28_21,Tristeza,21,Mauro anuncia la actividad.,Afirmación,Tr28,28,,,,,,,,,0,53,53,53,,,,,,,,,1,0.989139660477,3,0.483767279841,,,,,2018_may._29_1246,59.9917009336,Experimento Piloto1,001,129,
2.5,Stim\\02_075.jpg,Al75_29,Alegría,29,Miriam mira la película.,Afirmación,Al75,75,,,,,,,,,0,54,54,54,,,,,,,,,1,0.725213819767,3,0.350350260118,,,,,2018_may._29_1246,59.9917009336,Experimento Piloto1,001,129,
0.25,Stim\\03_078.jpg,Tr78_26,Tristeza,26,Víctor trae el café a Marco.,Afirmación,Tr78,78,,,,,,,,,0,55,55,55,,,,,,,,,1,0.804905694393,3,0.199956624687,,,,,2018_may._29_1246,59.9917009336,Experimento Piloto1,001,129,
0.25,Stim\\05_019.jpg,En19_19,Enojo,19,Armando acompaña a Rodrígo a la tienda.,Afirmación,En19,19,,,,,,,,,0,56,56,56,,,,,,,,,1,0.698239908324,3,0.399993574028,,,,,2018_may._29_1246,59.9917009336,Experimento Piloto1,001,129,
0.25,Stim\\03_078.jpg,Tr78_19,Tristeza,19,Armando acompaña a Rodrígo a la tienda.,Afirmación,Tr78,78,,,,,,,,,0,57,57,57,,,,,,,,,1,0.666867329553,3,0.283835645047,,,,,2018_may._29_1246,59.9917009336,Experimento Piloto1,001,129,
2.5,Stim\\03_078.jpg,Tr78_18,Tristeza,18,Sofía escucha la música.,Afirmación,Tr78,78,,,,,,,,,0,58,58,58,,,,,,,,,1,0.774729952974,3,0.350385067468,,,,,2018_may._29_1246,59.9917009336,Experimento Piloto1,001,129,
2.5,Stim\\05_075.jpg,En75_26,Enojo,26,Víctor trae el café a Marco.,Afirmación,En75,75,,,,,,,,,0,59,59,59,,,,,,,,,1,0.606393128493,3,0.350334195186,,,,,2018_may._29_1246,59.9917009336,Experimento Piloto1,001,129,
2.5,Stim\\02_075.jpg,Al75_30,Alegría,30,Marisol toma 2 litros de agua cada día.,Afirmación,Al75,75,,,,,,,,,0,60,60,60,,,,,,,,,1,0.648480123664,3,0.350335980179,,,,,2018_may._29_1246,59.9917009336,Experimento Piloto1,001,129,
2.5,Stim\\03_019.jpg,Tr19_18,Tristeza,18,Sofía escucha la música.,Afirmación,Tr19,19,,,,,,,,,0,61,61,61,,,,,,,,,1,0.575211097654,3,0.283690614421,,,,,2018_may._29_1246,59.9917009336,Experimento Piloto1,001,129,
0.25,Stim\\03_078.jpg,Tr78_23,Tristeza,23,Óscar consigue un nuevo departamento.,Afirmación,Tr78,78,,,,,,,,,0,62,62,62,,,,,,,,,1,0.697772686583,3,0.300366012676,,,,,2018_may._29_1246,59.9917009336,Experimento Piloto1,001,129,
2.5,Stim\\03_019.jpg,Tr19_25,Tristeza,25,Luis decide la comida siguiente.,Afirmación,Tr19,19,,,,,,,,,0,63,63,63,,,,,,,,,1,0.918064390028,3,0.333730196626,,,,,2018_may._29_1246,59.9917009336,Experimento Piloto1,001,129,
0.25,Stim\\02_028.jpg,Al28_29,Alegría,29,Miriam mira la película.,Afirmación,Al28,28,,,,,,,,,0,64,64,64,,,,,,,,,1,0.458253492115,3,0.250323306734,,,,,2018_may._29_1246,59.9917009336,Experimento Piloto1,001,129,
2.5,Stim\\02_019.jpg,Al19_21,Alegría,21,Mauro anuncia la actividad.,Afirmación,Al19,19,,,,,,,,,0,65,65,65,,,,,,,,,1,0.557018902176,3,0.350371233778,,,,,2018_may._29_1246,59.9917009336,Experimento Piloto1,001,129,
2.5,Stim\\02_078.jpg,Al78_25,Alegría,25,Luis decide la comida siguiente.,Afirmación,Al78,78,,,,,,,,,0,66,66,66,,,,,,,,,1,0.66805568819,3,0.283795036472,,,,,2018_may._29_1246,59.9917009336,Experimento Piloto1,001,129,
2.5,Stim\\05_075.jpg,En75_29,Enojo,29,Miriam mira la película.,Afirmación,En75,75,,,,,,,,,0,67,67,67,,,,,,,,,1,0.675105961606,3,0.600338434544,,,,,2018_may._29_1246,59.9917009336,Experimento Piloto1,001,129,
0.25,Stim\\03_028.jpg,Tr28_20,Tristeza,20,Karen analiza la idea.,Afirmación,Tr28,28,,,,,,,,,0,68,68,68,,,,,,,,,1,1.02619743979,3,0.333776606426,,,,,2018_may._29_1246,59.9917009336,Experimento Piloto1,001,129,
2.5,Stim\\02_075.jpg,Al75_26,Alegría,26,Víctor trae el café a Marco.,Afirmación,Al75,75,,,,,,,,,0,69,69,69,,,,,,,,,1,0.972511564519,3,0.400222499293,,,,,2018_may._29_1246,59.9917009336,Experimento Piloto1,001,129,
0.25,Stim\\05_019.jpg,En19_20,Enojo,20,Karen analiza la idea.,Afirmación,En19,19,,,,,,,,,0,70,70,70,,,,,,,,,1,1.17560888319,3,0.400026150137,,,,,2018_may._29_1246,59.9917009336,Experimento Piloto1,001,129,
0.25,Stim\\05_028.jpg,En28_22,Enojo,22,Enrique corre todas las mañanas.,Afirmación,En28,28,,,,,,,,,0,71,71,71,,,,,,,,,1,2.13644258171,3,0.500232495249,,,,,2018_may._29_1246,59.9917009336,Experimento Piloto1,001,129,
2.5,Stim\\05_028.jpg,En28_22,Enojo,22,Enrique corre todas las mañanas.,Afirmación,En28,28,,,,,,,,,0,72,72,72,,,,,,,,,1,1.08348542955,3,0.450406219627,,,,,2018_may._29_1246,59.9917009336,Experimento Piloto1,001,129,
0.25,Stim\\05_019.jpg,En19_17,Enojo,17,Brenda sube el autobús en las mañanas.,Afirmación,En19,19,,,,,,,,,0,73,73,73,,,,,,,,,1,1.46654879767,3,0.350444418463,,,,,2018_may._29_1246,59.9917009336,Experimento Piloto1,001,129,
2.5,Stim\\05_078.jpg,En78_26,Enojo,26,Víctor trae el café a Marco.,Afirmación,En78,78,,,,,,,,,0,74,74,74,,,,,,,,,1,0.605497508597,3,0.35033821142,,,,,2018_may._29_1246,59.9917009336,Experimento Piloto1,001,129,
2.5,Stim\\03_078.jpg,Tr78_29,Tristeza,29,Miriam mira la película.,Afirmación,Tr78,78,,,,,,,,,0,75,75,75,,,,,,,,,1,0.675345596826,3,0.333668168143,,,,,2018_may._29_1246,59.9917009336,Experimento Piloto1,001,129,
0.25,Stim\\02_075.jpg,Al75_22,Alegría,22,Enrique corre todas las mañanas.,Afirmación,Al75,75,,,,,,,,,0,76,76,76,,,,,,,,,1,0.869906635977,3,0.333854253592,,,,,2018_may._29_1246,59.9917009336,Experimento Piloto1,001,129,
2.5,Stim\\02_019.jpg,Al19_23,Alegría,23,Óscar consigue un nuevo departamento.,Afirmación,Al19,19,,,,,,,,,0,77,77,77,,,,,,,,,1,0.713008934779,3,0.300447229825,,,,,2018_may._29_1246,59.9917009336,Experimento Piloto1,001,129,
0.25,Stim\\05_075.jpg,En75_21,Enojo,21,Mauro anuncia la actividad.,Afirmación,En75,75,,,,,,,,,0,78,78,78,,,,,,,,,1,0.45614630868,3,0.283778525293,,,,,2018_may._29_1246,59.9917009336,Experimento Piloto1,001,129,
0.25,Stim\\02_078.jpg,Al78_25,Alegría,25,Luis decide la comida siguiente.,Afirmación,Al78,78,,,,,,,,,0,79,79,79,,,,,,,,,1,0.35150247266,3,0.283660269552,,,,,2018_may._29_1246,59.9917009336,Experimento Piloto1,001,129,
0.25,Stim\\03_078.jpg,Tr78_22,Tristeza,22,Enrique corre todas las mañanas.,Afirmación,Tr78,78,,,,,,,,,0,80,80,80,,,,,,,,,1,0.403304288533,3,0.400311302661,,,,,2018_may._29_1246,59.9917009336,Experimento Piloto1,001,129,
0.25,Stim\\05_028.jpg,En28_26,Enojo,26,Víctor trae el café a Marco.,Afirmación,En28,28,,,,,,,,,0,81,81,81,,,,,,,,,1,0.503276353404,3,0.183793072981,,,,,2018_may._29_1246,59.9917009336,Experimento Piloto1,001,129,
2.5,Stim\\05_019.jpg,En19_29,Enojo,29,Miriam mira la película.,Afirmación,En19,19,,,,,,,,,0,82,82,82,,,,,,,,,1,0.725816700924,3,0.299883618501,,,,,2018_may._29_1246,59.9917009336,Experimento Piloto1,001,129,
0.25,Stim\\02_019.jpg,Al19_21,Alegría,21,Mauro anuncia la actividad.,Afirmación,Al19,19,,,,,,,,,0,83,83,83,,,,,,,,,1,0.585650178989,3,0.333005043496,,,,,2018_may._29_1246,59.9917009336,Experimento Piloto1,001,129,
2.5,Stim\\05_078.jpg,En78_30,Enojo,30,Marisol toma 2 litros de agua cada día.,Afirmación,En78,78,,,,,,,,,0,84,84,84,,,,,,,,,1,0.647451075592,3,0.283722744283,,,,,2018_may._29_1246,59.9917009336,Experimento Piloto1,001,129,
0.25,Stim\\02_078.jpg,Al78_30,Alegría,30,Marisol toma 2 litros de agua cada día.,Afirmación,Al78,78,,,,,,,,,0,85,85,85,,,,,,,,,1,0.53363862652,3,0.233979024556,,,,,2018_may._29_1246,59.9917009336,Experimento Piloto1,001,129,
0.25,Stim\\03_075.jpg,Tr75_16,Tristeza,16,Valeria modifica algunas imágenes.,Afirmación,Tr75,75,,,,,,,,,0,86,86,86,,,,,,,,,1,0.501397648987,3,0.233870140024,,,,,2018_may._29_1246,59.9917009336,Experimento Piloto1,001,129,
0.25,Stim\\02_019.jpg,Al19_24,Alegría,24,Guadalupe comenta los resultados con los compañeros.,Afirmación,Al19,19,,,,,,,,,0,87,87,87,,,,,,,,,1,0.731310907285,3,0.233866123791,,,,,2018_may._29_1246,59.9917009336,Experimento Piloto1,001,129,
2.5,Stim\\02_028.jpg,Al28_29,Alegría,29,Miriam mira la película.,Afirmación,Al28,28,,,,,,,,,0,88,88,88,,,,,,,,,1,0.659914338218,3,0.234045515519,,,,,2018_may._29_1246,59.9917009336,Experimento Piloto1,001,129,
0.25,Stim\\03_019.jpg,Tr19_25,Tristeza,25,Luis decide la comida siguiente.,Afirmación,Tr19,19,,,,,,,,,0,89,89,89,,,,,,,,,1,0.819673828353,3,0.283593332339,,,,,2018_may._29_1246,59.9917009336,Experimento Piloto1,001,129,
0.25,Stim\\03_075.jpg,Tr75_25,Tristeza,25,Luis decide la comida siguiente.,Afirmación,Tr75,75,,,,,,,,,0,90,90,90,,,,,,,,,1,0.733575616291,3,0.233721093166,,,,,2018_may._29_1246,59.9917009336,Experimento Piloto1,001,129,
2.5,Stim\\03_078.jpg,Tr78_25,Tristeza,25,Luis decide la comida siguiente.,Afirmación,Tr78,78,,,,,,,,,0,91,91,91,,,,,,,,,1,0.683563701466,3,0.283807977667,,,,,2018_may._29_1246,59.9917009336,Experimento Piloto1,001,129,
2.5,Stim\\02_019.jpg,Al19_18,Alegría,18,Sofía escucha la música.,Afirmación,Al19,19,,,,,,,,,0,92,92,92,,,,,,,,,1,0.674416954571,3,0.283750411663,,,,,2018_may._29_1246,59.9917009336,Experimento Piloto1,001,129,
2.5,Stim\\03_028.jpg,Tr28_19,Tristeza,19,Armando acompaña a Rodrígo a la tienda.,Afirmación,Tr28,28,,,,,,,,,0,93,93,93,,,,,,,,,1,0.665296536312,3,0.233728679382,,,,,2018_may._29_1246,59.9917009336,Experimento Piloto1,001,129,
0.25,Stim\\03_078.jpg,Tr78_18,Tristeza,18,Sofía escucha la música.,Afirmación,Tr78,78,,,,,,,,,0,94,94,94,,,,,,,,,1,0.508028895455,3,0.300166986031,,,,,2018_may._29_1246,59.9917009336,Experimento Piloto1,001,129,
0.25,Stim\\05_019.jpg,En19_29,Enojo,29,Miriam mira la película.,Afirmación,En19,19,,,,,,,,,0,95,95,95,,,,,,,,,1,0.408748961358,3,0.233728233135,,,,,2018_may._29_1246,59.9917009336,Experimento Piloto1,001,129,
2.5,Stim\\03_078.jpg,Tr78_24,Tristeza,24,Guadalupe comenta los resultados con los compañeros.,Afirmación,Tr78,78,,,,,,,,,0,96,96,96,,,,,,,,,1,1.07391742447,3,0.283467044133,,,,,2018_may._29_1246,59.9917009336,Experimento Piloto1,001,129,
2.5,Stim\\05_019.jpg,En19_22,Enojo,22,Enrique corre todas las mañanas.,Afirmación,En19,19,,,,,,,,,0,97,97,97,,,,,,,,,1,0.770152786418,3,0.23370145825,,,,,2018_may._29_1246,59.9917009336,Experimento Piloto1,001,129,
0.25,Stim\\02_028.jpg,Al28_20,Alegría,20,Karen analiza la idea.,Afirmación,Al28,28,,,,,,,,,0,98,98,98,,,,,,,,,1,0.559014077342,3,0.200348876749,,,,,2018_may._29_1246,59.9917009336,Experimento Piloto1,001,129,
2.5,Stim\\03_078.jpg,Tr78_27,Tristeza,27,Claudia informa los avances en el reporte.,Afirmación,Tr78,78,,,,,,,,,0,99,99,99,,,,,,,,,1,0.596974170268,3,0.2503313392,,,,,2018_may._29_1246,59.9917009336,Experimento Piloto1,001,129,
0.25,Stim\\03_075.jpg,Tr75_17,Tristeza,17,Brenda sube el autobús en las mañanas.,Afirmación,Tr75,75,,,,,,,,,0,100,100,100,,,,,,,,,1,0.649004911406,3,0.283705786856,,,,,2018_may._29_1246,59.9917009336,Experimento Piloto1,001,129,
2.5,Stim\\05_028.jpg,En28_25,Enojo,25,Luis decide la comida siguiente.,Afirmación,En28,28,,,,,,,,,0,101,101,101,,,,,,,,,1,0.619477568447,3,0.30006970395,,,,,2018_may._29_1246,59.9917009336,Experimento Piloto1,001,129,
2.5,Stim\\02_028.jpg,Tr28_30,Tristeza,30,Marisol toma 2 litros de agua cada día.,Afirmación,Tr28,28,,,,,,,,,0,102,102,102,,,,,,,,,1,0.648802314778,3,0.250493773501,,,,,2018_may._29_1246,59.9917009336,Experimento Piloto1,001,129,
0.25,Stim\\02_078.jpg,Al78_18,Alegría,18,Sofía escucha la música.,Afirmación,Al78,78,,,,,,,,,0,103,103,103,,,,,,,,,1,1.07063839358,3,0.283699093135,,,,,2018_may._29_1246,59.9917009336,Experimento Piloto1,001,129,
0.25,Stim\\02_078.jpg,Al78_24,Alegría,24,Guadalupe comenta los resultados con los compañeros.,Afirmación,Al78,78,,,,,,,,,0,104,104,104,,,,,,,,,1,0.690553285145,3,0.350336426428,,,,,2018_may._29_1246,59.9917009336,Experimento Piloto1,001,129,
0.25,Stim\\05_075.jpg,En75_26,Enojo,26,Víctor trae el café a Marco.,Afirmación,En75,75,,,,,,,,,0,105,105,105,,,,,,,,,1,0.705003690471,3,0.400432682139,,,,,2018_may._29_1246,59.9917009336,Experimento Piloto1,001,129,
0.25,Stim\\05_019.jpg,En19_16,Enojo,16,Valeria modifica algunas imágenes.,Afirmación,En19,19,,,,,,,,,0,106,106,106,,,,,,,,,1,0.919280862295,3,0.333768573961,,,,,2018_may._29_1246,59.9917009336,Experimento Piloto1,001,129,
2.5,Stim\\05_019.jpg,En19_21,Enojo,21,Mauro anuncia la actividad.,Afirmación,En19,19,,,,,,,,,0,107,107,107,,,,,,,,,1,0.623478182485,3,0.233627827316,,,,,2018_may._29_1246,59.9917009336,Experimento Piloto1,001,129,
0.25,Stim\\03_028.jpg,Tr28_22,Tristeza,22,Enrique corre todas las mañanas.,Afirmación,Tr28,28,,,,,,,,,0,108,108,108,,,,,,,,,1,0.548869965987,3,0.250291623121,,,,,2018_may._29_1246,59.9917009336,Experimento Piloto1,001,129,
2.5,Stim\\05_075.jpg,En75_28,Enojo,28,Antonio responde la pregunta.,Afirmación,En75,75,,,,,,,,,0,109,109,109,,,,,,,,,1,0.705609249116,3,0.30036512018,,,,,2018_may._29_1246,59.9917009336,Experimento Piloto1,001,129,
2.5,Stim\\05_078.jpg,En78_28,Enojo,28,Antonio responde la pregunta.,Afirmación,En78,78,,,,,,,,,0,110,110,110,,,,,,,,,1,0.566977820577,3,0.250104645175,,,,,2018_may._29_1246,59.9917009336,Experimento Piloto1,001,129,
2.5,Stim\\03_028.jpg,Tr28_26,Tristeza,26,Víctor trae el café a Marco.,Afirmación,Tr28,28,,,,,,,,,0,111,111,111,,,,,,,,,1,0.555227662383,3,0.300267391849,,,,,2018_may._29_1246,59.9917009336,Experimento Piloto1,001,129,
2.5,Stim\\05_028.jpg,En28_20,Enojo,20,Karen analiza la idea.,Afirmación,En28,28,,,,,,,,,0,112,112,112,,,,,,,,,1,0.507416196842,3,0.300315586643,,,,,2018_may._29_1246,59.9917009336,Experimento Piloto1,001,129,
2.5,Stim\\02_019.jpg,Al19_30,Alegría,30,Marisol toma 2 litros de agua cada día.,Afirmación,Al19,19,,,,,,,,,0,113,113,113,,,,,,,,,1,0.715575307487,3,0.233742066825,,,,,2018_may._29_1246,59.9917009336,Experimento Piloto1,001,129,
2.5,Stim\\05_078.jpg,En78_23,Enojo,23,Óscar consigue un nuevo departamento.,Afirmación,En78,78,,,,,,,,,0,114,114,114,,,,,,,,,1,0.549803070723,3,0.25026618698,,,,,2018_may._29_1246,59.9917009336,Experimento Piloto1,001,129,
0.25,Stim\\05_078.jpg,En78_23,Enojo,23,Óscar consigue un nuevo departamento.,Afirmación,En78,78,,,,,,,,,0,115,115,115,,,,,,,,,1,0.567201390866,3,0.233726448142,,,,,2018_may._29_1246,59.9917009336,Experimento Piloto1,001,129,
2.5,Stim\\05_019.jpg,En19_19,Enojo,19,Armando acompaña a Rodrígo a la tienda.,Afirmación,En19,19,,,,,,,,,0,116,116,116,,,,,,,,,1,0.56511785858,3,0.233798294083,,,,,2018_may._29_1246,59.9917009336,Experimento Piloto1,001,129,
2.5,Stim\\03_078.jpg,Tr78_17,Tristeza,17,Brenda sube el autobús en las mañanas.,Afirmación,Tr78,78,,,,,,,,,0,117,117,117,,,,,,,,,1,0.866563345362,3,0.30041376122,,,,,2018_may._29_1246,59.9917009336,Experimento Piloto1,001,129,
0.25,Stim\\05_075.jpg,En75_20,Enojo,20,Karen analiza la idea.,Afirmación,En75,75,,,,,,,,,0,118,118,118,,,,,,,,,1,0.559733875495,3,0.233555535127,,,,,2018_may._29_1246,59.9917009336,Experimento Piloto1,001,129,
0.25,Stim\\05_078.jpg,En78_28,Enojo,28,Antonio responde la pregunta.,Afirmación,En78,78,,,,,,,,,0,119,119,119,,,,,,,,,1,0.555047824407,3,0.300332990317,,,,,2018_may._29_1246,59.9917009336,Experimento Piloto1,001,129,
2.5,Stim\\05_028.jpg,En28_16,Enojo,16,Valeria modifica algunas imágenes.,Afirmación,En28,28,,,,,,,,,,,,,0,0,0,0,,,,,,,,,1,0.85167249318,3,0.283579944897,2018_may._29_1246,59.9917009336,Experimento Piloto1,001,129,
2.5,Stim\\05_028.jpg,En28_29,Enojo,29,Miriam mira la película.,Afirmación,En28,28,,,,,,,,,,,,,0,1,1,1,,,,,,,,,1,0.674490585504,3,0.283799945201,2018_may._29_1246,59.9917009336,Experimento Piloto1,001,129,
0.25,Stim\\03_028.jpg,Tr28_29,Tristeza,29,Miriam mira la película.,Afirmación,Tr28,28,,,,,,,,,,,,,0,2,2,2,,,,,,,,,1,0.416834976567,3,0.233718415677,2018_may._29_1246,59.9917009336,Experimento Piloto1,001,129,
2.5,Stim\\02_075.jpg,Al75_22,Alegría,22,Enrique corre todas las mañanas.,Afirmación,Al75,75,,,,,,,,,,,,,0,3,3,3,,,,,,,,,1,0.470155820904,3,0.283712926825,2018_may._29_1246,59.9917009336,Experimento Piloto1,001,129,
2.5,Stim\\05_019.jpg,En19_17,Enojo,17,Brenda sube el autobús en las mañanas.,Afirmación,En19,19,,,,,,,,,,,,,0,4,4,4,,,,,,,,,1,0.566544513692,3,0.283813778891,2018_may._29_1246,59.9917009336,Experimento Piloto1,001,129,
2.5,Stim\\02_028.jpg,Al28_17,Alegría,17,Brenda sube el autobús en las mañanas.,Afirmación,Al28,28,,,,,,,,,,,,,0,5,5,5,,,,,,,,,1,0.633645944988,3,0.283715158066,2018_may._29_1246,59.9917009336,Experimento Piloto1,001,129,
0.25,Stim\\05_075.jpg,En75_24,Enojo,24,Guadalupe comenta los resultados con los compañeros.,Afirmación,En75,75,,,,,,,,,,,,,0,6,6,6,,,,,,,,,1,0.907005023861,3,0.233816144007,2018_may._29_1246,59.9917009336,Experimento Piloto1,001,129,
2.5,Stim\\03_078.jpg,Tr78_23,Tristeza,23,Óscar consigue un nuevo departamento.,Afirmación,Tr78,78,,,,,,,,,,,,,0,7,7,7,,,,,,,,,1,0.716057701661,3,0.250232718374,2018_may._29_1246,59.9917009336,Experimento Piloto1,001,129,
0.25,Stim\\05_075.jpg,En75_16,Enojo,16,Valeria modifica algunas imágenes.,Afirmación,En75,75,,,,,,,,,,,,,0,8,8,8,,,,,,,,,1,0.801619523531,3,0.233803202812,2018_may._29_1246,59.9917009336,Experimento Piloto1,001,129,
0.25,Stim\\02_078.jpg,Al78_23,Alegría,23,Óscar consigue un nuevo departamento.,Afirmación,Al78,78,,,,,,,,,,,,,0,9,9,9,,,,,,,,,1,0.766400732561,3,0.183819401617,2018_may._29_1246,59.9917009336,Experimento Piloto1,001,129,
2.5,Stim\\05_078.jpg,En78_24,Enojo,24,Guadalupe comenta los resultados con los compañeros.,Afirmación,En78,78,,,,,,,,,,,,,0,10,10,10,,,,,,,,,1,0.955882129817,3,0.250395598923,2018_may._29_1246,59.9917009336,Experimento Piloto1,001,129,
2.5,Stim\\03_028.jpg,Tr28_28,Tristeza,28,Antonio responde la pregunta.,Afirmación,Tr28,28,,,,,,,,,,,,,0,11,11,11,,,,,,,,,1,0.721621522724,3,0.233858983822,2018_may._29_1246,59.9917009336,Experimento Piloto1,001,129,
0.25,Stim\\02_019.jpg,Al19_20,Alegría,20,Karen analiza la idea.,Afirmación,Al19,19,,,,,,,,,,,,,0,12,12,12,,,,,,,,,1,0.609318730906,3,0.250354097851,2018_may._29_1246,59.9917009336,Experimento Piloto1,001,129,
2.5,Stim\\05_078.jpg,En78_27,Enojo,27,Claudia informa los avances en el reporte.,Afirmación,En78,78,,,,,,,,,,,,,0,13,13,13,,,,,,,,,1,0.964290782389,3,0.233755454267,2018_may._29_1246,59.9917009336,Experimento Piloto1,001,129,
0.25,Stim\\05_028.jpg,En28_28,Enojo,28,Antonio responde la pregunta.,Afirmación,En28,28,,,,,,,,,,,,,0,14,14,14,,,,,,,,,1,0.705271885568,3,0.200545672153,2018_may._29_1246,59.9917009336,Experimento Piloto1,001,129,
2.5,Stim\\03_078.jpg,Tr78_30,Tristeza,30,Marisol toma 2 litros de agua cada día.,Afirmación,Tr78,78,,,,,,,,,,,,,0,15,15,15,,,,,,,,,1,0.715038024799,3,0.183755588141,2018_may._29_1246,59.9917009336,Experimento Piloto1,001,129,
0.25,Stim\\03_028.jpg,Tr28_27,Tristeza,27,Claudia informa los avances en el reporte.,Afirmación,Tr28,28,,,,,,,,,,,,,0,16,16,16,,,,,,,,,1,0.696572279248,3,0.200522467252,2018_may._29_1246,59.9917009336,Experimento Piloto1,001,129,
0.25,Stim\\02_075.jpg,Al75_24,Alegría,24,Guadalupe comenta los resultados con los compañeros.,Afirmación,Al75,75,,,,,,,,,,,,,0,17,17,17,,,,,,,,,1,0.79021029887,3,0.133826675461,2018_may._29_1246,59.9917009336,Experimento Piloto1,001,129,
0.25,Stim\\02_019.jpg,Al19_16,Alegría,16,Valeria modifica algunas imágenes.,Afirmación,Al19,19,,,,,,,,,,,,,0,18,18,18,,,,,,,,,1,0.66854388359,3,0.133781158156,2018_may._29_1246,59.9917009336,Experimento Piloto1,001,129,
2.5,Stim\\02_028.jpg,Al28_30,Alegría,30,Marisol toma 2 litros de agua cada día.,Afirmación,Al28,28,,,,,,,,,,,,,0,19,19,19,,,,,,,,,1,0.596819768433,3,0.300316032891,2018_may._29_1246,59.9917009336,Experimento Piloto1,001,129,
2.5,Stim\\05_078.jpg,En78_16,Enojo,16,Valeria modifica algunas imágenes.,Afirmación,En78,78,,,,,,,,,,,,,0,20,20,20,,,,,,,,,1,0.768761384904,3,0.333629790808,2018_may._29_1246,59.9917009336,Experimento Piloto1,001,129,
0.25,Stim\\02_075.jpg,Al75_28,Alegría,28,Antonio responde la pregunta.,Afirmación,Al75,75,,,,,,,,,,,,,0,21,21,21,,,,,,,,,1,0.871914752336,3,0.283906152244,2018_may._29_1246,59.9917009336,Experimento Piloto1,001,129,
2.5,Stim\\03_075.jpg,Tr75_17,Tristeza,17,Brenda sube el autobús en las mañanas.,Afirmación,Tr75,75,,,,,,,,,,,,,0,22,22,22,,,,,,,,,1,0.565526621821,3,0.283581729889,2018_may._29_1246,59.9917009336,Experimento Piloto1,001,129,
0.25,Stim\\05_075.jpg,En75_18,Enojo,18,Sofía escucha la música.,Afirmación,En75,75,,,,,,,,,,,,,0,23,23,23,,,,,,,,,1,0.45884967955,3,0.300337899046,2018_may._29_1246,59.9917009336,Experimento Piloto1,001,129,
2.5,Stim\\02_075.jpg,Al75_25,Alegría,25,Luis decide la comida siguiente.,Afirmación,Al75,75,,,,,,,,,,,,,0,24,24,24,,,,,,,,,1,0.715710966903,3,0.283855279963,2018_may._29_1246,59.9917009336,Experimento Piloto1,001,129,
0.25,Stim\\02_028.jpg,Al28_18,Alegría,18,Sofía escucha la música.,Afirmación,Al28,28,,,,,,,,,,,,,0,25,25,25,,,,,,,,,1,0.608822056793,3,0.350392207438,2018_may._29_1246,59.9917009336,Experimento Piloto1,001,129,
0.25,Stim\\02_028.jpg,Al28_23,Alegría,23,Óscar consigue un nuevo departamento.,Afirmación,Al28,28,,,,,,,,,,,,,0,26,26,26,,,,,,,,,1,0.499465841049,3,0.283741486703,2018_may._29_1246,59.9917009336,Experimento Piloto1,001,129,
0.25,Stim\\02_075.jpg,Al75_19,Alegría,19,Armando acompaña a Rodrígo a la tienda.,Afirmación,Al75,75,,,,,,,,,,,,,0,27,27,27,,,,,,,,,1,0.715754252968,3,0.233932614755,2018_may._29_1246,59.9917009336,Experimento Piloto1,001,129,
2.5,Stim\\05_019.jpg,En19_16,Enojo,16,Valeria modifica algunas imágenes.,Afirmación,En19,19,,,,,,,,,,,,,0,28,28,28,,,,,,,,,1,0.76873684126,3,0.400163594546,2018_may._29_1246,59.9917009336,Experimento Piloto1,001,129,
2.5,Stim\\02_019.jpg,Al19_25,Alegría,25,Luis decide la comida siguiente.,Afirmación,Al19,19,,,,,,,,,,,,,0,29,29,29,,,,,,,,,1,0.701200764333,3,0.350218170686,2018_may._29_1246,59.9917009336,Experimento Piloto1,001,129,
0.25,Stim\\02_078.jpg,Al78_27,Alegría,27,Claudia informa los avances en el reporte.,Afirmación,Al78,78,,,,,,,,,,,,,0,30,30,30,,,,,,,,,1,0.697448710476,3,0.25056829693,2018_may._29_1246,59.9917009336,Experimento Piloto1,001,129,
0.25,Stim\\03_019.jpg,Tr19_22,Tristeza,22,Enrique corre todas las mañanas.,Afirmación,Tr19,19,,,,,,,,,,,,,0,31,31,31,,,,,,,,,1,0.50275647439,3,0.283907937236,2018_may._29_1246,59.9917009336,Experimento Piloto1,001,129,
2.5,Stim\\05_019.jpg,En19_26,Enojo,26,Víctor trae el café a Marco.,Afirmación,En19,19,,,,,,,,,,,,,0,32,32,32,,,,,,,,,1,0.722377913219,3,0.283957024525,2018_may._29_1246,59.9917009336,Experimento Piloto1,001,129,
2.5,Stim\\02_078.jpg,Al78_26,Alegría,26,Víctor trae el café a Marco.,Afirmación,Al78,78,,,,,,,,,,,,,0,33,33,33,,,,,,,,,1,0.833564638589,3,0.350432369764,2018_may._29_1246,59.9917009336,Experimento Piloto1,001,129,
0.25,Stim\\05_078.jpg,En78_17,Enojo,17,Brenda sube el autobús en las mañanas.,Afirmación,En78,78,,,,,,,,,,,,,0,34,34,34,,,,,,,,,1,1.16650140613,3,0.283756212889,2018_may._29_1246,59.9917009336,Experimento Piloto1,001,129,
0.25,Stim\\05_078.jpg,En78_21,Enojo,21,Mauro anuncia la actividad.,Afirmación,En78,78,,,,,,,,,,,,,0,35,35,35,,,,,,,,,1,0.922815593336,3,0.30009067761,2018_may._29_1246,59.9917009336,Experimento Piloto1,001,129,
2.5,Stim\\03_078.jpg,Tr78_20,Tristeza,20,Karen analiza la idea.,Afirmación,Tr78,78,,,,,,,,,,,,,0,36,36,36,,,,,,,,,1,1.17565083051,3,0.350037440214,2018_may._29_1246,59.9917009336,Experimento Piloto1,001,129,
0.25,Stim\\03_078.jpg,Tr78_28,Tristeza,28,Antonio responde la pregunta.,Afirmación,Tr78,78,,,,,,,,,,,,,0,37,37,37,,,,,,,,,1,1.93804961029,3,0.283641080884,2018_may._29_1246,59.9917009336,Experimento Piloto1,001,129,
2.5,Stim\\03_028.jpg,Tr28_17,Tristeza,17,Brenda sube el autobús en las mañanas.,Afirmación,Tr28,28,,,,,,,,,,,,,0,38,38,38,,,,,,,,,1,0.916184346866,3,0.350341781404,2018_may._29_1246,59.9917009336,Experimento Piloto1,001,129,
0.25,Stim\\02_028.jpg,Al28_27,Alegría,27,Claudia informa los avances en el reporte.,Afirmación,Al28,28,,,,,,,,,,,,,0,39,39,39,,,,,,,,,1,0.91356888687,3,0.283533535097,2018_may._29_1246,59.9917009336,Experimento Piloto1,001,129,
2.5,Stim\\02_019.jpg,Al19_28,Alegría,28,Antonio responde la pregunta.,Afirmación,Al19,19,,,,,,,,,,,,,0,40,40,40,,,,,,,,,1,1.33877681616,3,0.283815117636,2018_may._29_1246,59.9917009336,Experimento Piloto1,001,129,
0.25,Stim\\02_019.jpg,Al19_17,Alegría,17,Brenda sube el autobús en las mañanas.,Afirmación,Al19,19,,,,,,,,,,,,,0,41,41,41,,,,,,,,,1,1.58234392697,3,0.283766476595,2018_may._29_1246,59.9917009336,Experimento Piloto1,001,129,
2.5,Stim\\03_075.jpg,Tr75_21,Tristeza,21,Mauro anuncia la actividad.,Afirmación,Tr75,75,,,,,,,,,,,,,0,42,42,42,,,,,,,,,1,0.723345379057,3,0.350353830103,2018_may._29_1246,59.9917009336,Experimento Piloto1,001,129,
0.25,Stim\\03_075.jpg,Tr75_26,Tristeza,26,Víctor trae el café a Marco.,Afirmación,Tr75,75,,,,,,,,,,,,,0,43,43,43,,,,,,,,,1,1.5227068873,3,0.300458832276,2018_may._29_1246,59.9917009336,Experimento Piloto1,001,129,
0.25,Stim\\02_075.jpg,Al75_18,Alegría,18,Sofía escucha la música.,Afirmación,Al75,75,,,,,,,,,,,,,0,44,44,44,,,,,,,,,1,0.558848519304,3,0.283715158066,2018_may._29_1246,59.9917009336,Experimento Piloto1,001,129,
2.5,Stim\\05_028.jpg,En28_27,Enojo,27,Claudia informa los avances en el reporte.,Afirmación,En28,28,,,,,,,,,,,,,0,45,45,45,,,,,,,,,1,1.03041091416,3,0.333657011941,2018_may._29_1246,59.9917009336,Experimento Piloto1,001,129,
0.25,Stim\\02_019.jpg,Al19_23,Alegría,23,Óscar consigue un nuevo departamento.,Afirmación,Al19,19,,,,,,,,,,,,,0,46,46,46,,,,,,,,,1,1.26609951511,3,0.400377793625,2018_may._29_1246,59.9917009336,Experimento Piloto1,001,129,
0.25,Stim\\03_075.jpg,Tr75_21,Tristeza,21,Mauro anuncia la actividad.,Afirmación,Tr75,75,,,,,,,,,,,,,0,47,47,47,,,,,,,,,1,1.12272045325,3,0.283575928665,2018_may._29_1246,59.9917009336,Experimento Piloto1,001,129,
0.25,Stim\\02_078.jpg,Al78_28,Alegría,28,Antonio responde la pregunta.,Afirmación,Al78,78,,,,,,,,,,,,,0,48,48,48,,,,,,,,,1,0.621574041927,3,0.283725421771,2018_may._29_1246,59.9917009336,Experimento Piloto1,001,129,
2.5,Stim\\03_075.jpg,Tr75_23,Tristeza,23,Óscar consigue un nuevo departamento.,Afirmación,Tr75,75,,,,,,,,,,,,,0,49,49,49,,,,,,,,,1,0.666450980095,3,0.233661295923,2018_may._29_1246,59.9917009336,Experimento Piloto1,001,129,
0.25,Stim\\02_078.jpg,Al78_22,Alegría,22,Enrique corre todas las mañanas.,Afirmación,Al78,78,,,,,,,,,,,,,0,50,50,50,,,,,,,,,1,0.554123644632,3,0.250380872736,2018_may._29_1246,59.9917009336,Experimento Piloto1,001,129,
2.5,Stim\\03_028.jpg,Tr28_23,Tristeza,23,Óscar consigue un nuevo departamento.,Afirmación,Tr28,28,,,,,,,,,,,,,0,51,51,51,,,,,,,,,1,0.650568118431,3,0.2003020207,2018_may._29_1246,59.9917009336,Experimento Piloto1,001,129,
0.25,Stim\\02_028.jpg,Al28_19,Alegría,19,Armando acompaña a Rodrígo a la tienda.,Afirmación,Al28,28,,,,,,,,,,,,,0,52,52,52,,,,,,,,,1,0.64849261861,3,0.233863892551,2018_may._29_1246,59.9917009336,Experimento Piloto1,001,129,
0.25,Stim\\03_028.jpg,Tr28_28,Tristeza,28,Antonio responde la pregunta.,Afirmación,Tr28,28,,,,,,,,,,,,,0,53,53,53,,,,,,,,,1,0.555061658097,3,0.250617830467,2018_may._29_1246,59.9917009336,Experimento Piloto1,001,129,
2.5,Stim\\05_075.jpg,En75_16,Enojo,16,Valeria modifica algunas imágenes.,Afirmación,En75,75,,,,,,,,,,,,,0,54,54,54,,,,,,,,,1,0.767473512946,3,0.23377553543,2018_may._29_1246,59.9917009336,Experimento Piloto1,001,129,
0.25,Stim\\03_019.jpg,Tr19_28,Tristeza,28,Antonio responde la pregunta.,Afirmación,Tr19,19,,,,,,,,,,,,,0,55,55,55,,,,,,,,,1,1.02174923892,3,0.233852290101,2018_may._29_1246,59.9917009336,Experimento Piloto1,001,129,
2.5,Stim\\03_019.jpg,Tr19_24,Tristeza,24,Guadalupe comenta los resultados con los compañeros.,Afirmación,Tr19,19,,,,,,,,,,,,,0,56,56,56,,,,,,,,,1,1.22441235821,3,0.283846801249,2018_may._29_1246,59.9917009336,Experimento Piloto1,001,129,
0.25,Stim\\03_019.jpg,Tr19_30,Tristeza,30,Marisol toma 2 litros de agua cada día.,Afirmación,Tr19,19,,,,,,,,,,,,,0,57,57,57,,,,,,,,,1,0.714441837364,3,0.233675129612,2018_may._29_1246,59.9917009336,Experimento Piloto1,001,129,
0.25,Stim\\02_075.jpg,Al75_23,Alegría,23,Óscar consigue un nuevo departamento.,Afirmación,Al75,75,,,,,,,,,,,,,0,58,58,58,,,,,,,,,1,0.816752242174,3,0.18366321479,2018_may._29_1246,59.9917009336,Experimento Piloto1,001,129,
2.5,Stim\\02_078.jpg,Al78_22,Alegría,22,Enrique corre todas las mañanas.,Afirmación,Al78,78,,,,,,,,,,,,,0,59,59,59,,,,,,,,,1,0.767533310188,3,0.233755454267,2018_may._29_1246,59.9917009336,Experimento Piloto1,001,129,
2.5,Stim\\05_075.jpg,En75_20,Enojo,20,Karen analiza la idea.,Afirmación,En75,75,,,,,,,,,,,,,0,60,60,60,,,,,,,,,1,0.825605804081,3,0.233649693472,2018_may._29_1246,59.9917009336,Experimento Piloto1,001,129,
2.5,Stim\\03_028.jpg,Tr28_18,Tristeza,18,Sofía escucha la música.,Afirmación,Tr28,28,,,,,,,,,,,,,0,61,61,61,,,,,,,,,1,1.2345390659,3,0.233741174328,2018_may._29_1246,59.9917009336,Experimento Piloto1,001,129,
0.25,Stim\\02_028.jpg,Al28_22,Alegría,22,Enrique corre todas las mañanas.,Afirmación,Al28,28,,,,,,,,,,,,,0,62,62,62,,,,,,,,,1,0.720566146014,3,0.183780131786,2018_may._29_1246,59.9917009336,Experimento Piloto1,001,129,
2.5,Stim\\03_075.jpg,Tr75_29,Tristeza,29,Miriam mira la película.,Afirmación,Tr75,75,,,,,,,,,,,,,0,63,63,63,,,,,,,,,1,0.525028269816,3,0.283636172156,2018_may._29_1246,59.9917009336,Experimento Piloto1,001,129,
2.5,Stim\\05_075.jpg,En75_19,Enojo,19,Armando acompaña a Rodrígo a la tienda.,Afirmación,En75,75,,,,,,,,,,,,,0,64,64,64,,,,,,,,,1,0.565024592732,3,0.333701190501,2018_may._29_1246,59.9917009336,Experimento Piloto1,001,129,
0.25,Stim\\05_078.jpg,En78_27,Enojo,27,Claudia informa los avances en el reporte.,Afirmación,En78,78,,,,,,,,,,,,,0,65,65,65,,,,,,,,,1,0.647277038841,3,0.350178900855,2018_may._29_1246,59.9917009336,Experimento Piloto1,001,129,
0.25,Stim\\02_075.jpg,Al75_29,Alegría,29,Miriam mira la película.,Afirmación,Al75,75,,,,,,,,,,,,,0,66,66,66,,,,,,,,,1,0.557372776903,3,0.283749519167,2018_may._29_1246,59.9917009336,Experimento Piloto1,001,129,
2.5,Stim\\03_075.jpg,Tr75_19,Tristeza,19,Armando acompaña a Rodrígo a la tienda.,Afirmación,Tr75,75,,,,,,,,,,,,,0,67,67,67,,,,,,,,,1,0.866066671248,3,0.350347582629,2018_may._29_1246,59.9917009336,Experimento Piloto1,001,129,
2.5,Stim\\03_028.jpg,Tr28_22,Tristeza,22,Enrique corre todas las mañanas.,Afirmación,Tr28,28,,,,,,,,,,,,,0,68,68,68,,,,,,,,,1,0.819978615792,3,0.333684233074,2018_may._29_1246,59.9917009336,Experimento Piloto1,001,129,
0.25,Stim\\03_078.jpg,Tr78_25,Tristeza,25,Luis decide la comida siguiente.,Afirmación,Tr78,78,,,,,,,,,,,,,0,69,69,69,,,,,,,,,1,0.717734701946,3,0.28385349497,2018_may._29_1246,59.9917009336,Experimento Piloto1,001,129,
2.5,Stim\\02_028.jpg,Al28_19,Alegría,19,Armando acompaña a Rodrígo a la tienda.,Afirmación,Al28,28,,,,,,,,,,,,,0,70,70,70,,,,,,,,,1,0.715368694626,3,0.30012548496,2018_may._29_1246,59.9917009336,Experimento Piloto1,001,129,
0.25,Stim\\02_075.jpg,Al75_25,Alegría,25,Luis decide la comida siguiente.,Afirmación,Al75,75,,,,,,,,,,,,,0,71,71,71,,,,,,,,,1,0.50124815588,3,0.283716050561,2018_may._29_1246,59.9917009336,Experimento Piloto1,001,129,
2.5,Stim\\02_019.jpg,Al19_24,Alegría,24,Guadalupe comenta los resultados con los compañeros.,Afirmación,Al19,19,,,,,,,,,,,,,0,72,72,72,,,,,,,,,1,1.2732488556,3,0.283748180424,2018_may._29_1246,59.9917009336,Experimento Piloto1,001,129,
0.25,Stim\\03_028.jpg,Tr28_23,Tristeza,23,Óscar consigue un nuevo departamento.,Afirmación,Tr28,28,,,,,,,,,,,,,0,73,73,73,,,,,,,,,1,1.38264478742,3,0.333645409491,2018_may._29_1246,59.9917009336,Experimento Piloto1,001,129,
0.25,Stim\\03_028.jpg,Tr28_25,Tristeza,25,Luis decide la comida siguiente.,Afirmación,Tr28,28,,,,,,,,,,,,,0,74,74,74,,,,,,,,,1,1.1681226254,3,0.350319469,2018_may._29_1246,59.9917009336,Experimento Piloto1,001,129,
0.25,Stim\\05_019.jpg,En19_23,Enojo,23,Óscar consigue un nuevo departamento.,Afirmación,En19,19,,,,,,,,,,,,,0,75,75,75,,,,,,,,,1,1.11649440003,3,0.333575794791,2018_may._29_1246,59.9917009336,Experimento Piloto1,001,129,
2.5,Stim\\03_019.jpg,Tr19_26,Tristeza,26,Víctor trae el café a Marco.,Afirmación,Tr19,19,,,,,,,,,,,,,0,76,76,76,,,,,,,,,1,0.771051530051,3,0.299839886188,2018_may._29_1246,59.9917009336,Experimento Piloto1,001,129,
0.25,Stim\\05_028.jpg,En28_30,Enojo,30,Marisol toma 2 litros de agua cada día.,Afirmación,En28,28,,,,,,,,,,,,,0,77,77,77,,,,,,,,,1,0.648900935604,3,0.233706366978,2018_may._29_1246,59.9917009336,Experimento Piloto1,001,129,
2.5,Stim\\02_019.jpg,Al19_26,Alegría,26,Víctor trae el café a Marco.,Afirmación,Al19,19,,,,,,,,,,,,,0,78,78,78,,,,,,,,,1,0.67203488232,3,0.333640054513,2018_may._29_1246,59.9917009336,Experimento Piloto1,001,129,
0.25,Stim\\03_075.jpg,Tr75_27,Tristeza,27,Claudia informa los avances en el reporte.,Afirmación,Tr75,75,,,,,,,,,,,,,0,79,79,79,,,,,,,,,1,1.32884288765,3,0.333778391418,2018_may._29_1246,59.9917009336,Experimento Piloto1,001,129,
2.5,Stim\\02_078.jpg,Al78_27,Alegría,27,Claudia informa los avances en el reporte.,Afirmación,Al78,78,,,,,,,,,,,,,0,80,80,80,,,,,,,,,1,0.783687490684,3,0.350326608969,2018_may._29_1246,59.9917009336,Experimento Piloto1,001,129,
0.25,Stim\\02_019.jpg,Al19_26,Alegría,26,Víctor trae el café a Marco.,Afirmación,Al19,19,,,,,,,,,,,,,0,81,81,81,,,,,,,,,1,1.88819789853,3,0.233820160239,2018_may._29_1246,59.9917009336,Experimento Piloto1,001,129,
0.25,Stim\\03_019.jpg,Tr19_29,Tristeza,29,Miriam mira la película.,Afirmación,Tr19,19,,,,,,,,,,,,,0,82,82,82,,,,,,,,,1,0.558139431106,3,0.250152393719,2018_may._29_1246,59.9917009336,Experimento Piloto1,001,129,
2.5,Stim\\05_075.jpg,En75_27,Enojo,27,Claudia informa los avances en el reporte.,Afirmación,En75,75,,,,,,,,,,,,,0,83,83,83,,,,,,,,,1,1.26385354852,3,0.350292694116,2018_may._29_1246,59.9917009336,Experimento Piloto1,001,129,
0.25,Stim\\05_019.jpg,En19_25,Enojo,25,Luis decide la comida siguiente.,Afirmación,En19,19,,,,,,,,,,,,,0,84,84,84,,,,,,,,,1,2.0849745594,3,0.300296844223,2018_may._29_1246,59.9917009336,Experimento Piloto1,001,129,
2.5,Stim\\03_028.jpg,Tr28_20,Tristeza,20,Karen analiza la idea.,Afirmación,Tr28,28,,,,,,,,,,,,,0,85,85,85,,,,,,,,,1,0.509535875222,3,0.25036123782,2018_may._29_1246,59.9917009336,Experimento Piloto1,001,129,
2.5,Stim\\05_028.jpg,En28_26,Enojo,26,Víctor trae el café a Marco.,Afirmación,En28,28,,,,,,,,,,,,,0,86,86,86,,,,,,,,,1,0.305071252431,3,0.449988531424,2018_may._29_1246,59.9917009336,Experimento Piloto1,001,129,
0.25,Stim\\05_028.jpg,En28_21,Enojo,21,Mauro anuncia la actividad.,Afirmación,En28,28,,,,,,,,,,,,,0,87,87,87,,,,,,,,,1,0.506270231773,3,0.233698334513,2018_may._29_1246,59.9917009336,Experimento Piloto1,001,129,
0.25,Stim\\03_075.jpg,Tr75_22,Tristeza,22,Enrique corre todas las mañanas.,Afirmación,Tr75,75,,,,,,,,,,,,,0,88,88,88,,,,,,,,,1,0.653282199253,3,0.300331205325,2018_may._29_1246,59.9917009336,Experimento Piloto1,001,129,
0.25,Stim\\05_028.jpg,En28_27,Enojo,27,Claudia informa los avances en el reporte.,Afirmación,En28,28,,,,,,,,,,,,,0,89,89,89,,,,,,,,,1,0.844966277033,3,0.250406308877,2018_may._29_1246,59.9917009336,Experimento Piloto1,001,129,
2.5,Stim\\03_075.jpg,Tr75_22,Tristeza,22,Enrique corre todas las mañanas.,Afirmación,Tr75,75,,,,,,,,,,,,,0,90,90,90,,,,,,,,,1,0.553641696706,3,0.300328527836,2018_may._29_1246,59.9917009336,Experimento Piloto1,001,129,
0.25,Stim\\05_019.jpg,En19_28,Enojo,28,Antonio responde la pregunta.,Afirmación,En19,19,,,,,,,,,,,,,0,91,91,91,,,,,,,,,1,0.655365285291,3,0.283699985631,2018_may._29_1246,59.9917009336,Experimento Piloto1,001,129,
2.5,Stim\\03_019.jpg,Tr19_17,Tristeza,17,Brenda sube el autobús en las mañanas.,Afirmación,Tr19,19,,,,,,,,,,,,,0,92,92,92,,,,,,,,,1,0.766229819546,3,0.300374045141,2018_may._29_1246,59.9917009336,Experimento Piloto1,001,129,
0.25,Stim\\05_028.jpg,En28_29,Enojo,29,Miriam mira la película.,Afirmación,En28,28,,,,,,,,,,,,,0,93,93,93,,,,,,,,,1,0.556259834192,3,0.283675888235,2018_may._29_1246,59.9917009336,Experimento Piloto1,001,129,
0.25,Stim\\05_028.jpg,En28_18,Enojo,18,Sofía escucha la música.,Afirmación,En28,28,,,,,,,,,,,,,0,94,94,94,,,,,,,,,1,0.457939333466,3,0.300319602875,2018_may._29_1246,59.9917009336,Experimento Piloto1,001,129,
0.25,Stim\\05_028.jpg,En28_25,Enojo,25,Luis decide la comida siguiente.,Afirmación,En28,28,,,,,,,,,,,,,0,95,95,95,,,,,,,,,1,0.65178860693,3,0.249951582083,2018_may._29_1246,59.9917009336,Experimento Piloto1,001,129,
2.5,Stim\\03_075.jpg,Tr75_16,Tristeza,16,Valeria modifica algunas imágenes.,Afirmación,Tr75,75,,,,,,,,,,,,,0,96,96,96,,,,,,,,,1,0.801653884634,3,0.400230531758,2018_may._29_1246,59.9917009336,Experimento Piloto1,001,129,
2.5,Stim\\05_019.jpg,En19_18,Enojo,18,Sofía escucha la música.,Afirmación,En19,19,,,,,,,,,,,,,0,97,97,97,,,,,,,,,1,0.675167097594,3,0.333717255432,2018_may._29_1246,59.9917009336,Experimento Piloto1,001,129,
0.25,Stim\\05_075.jpg,En75_28,Enojo,28,Antonio responde la pregunta.,Afirmación,En75,75,,,,,,,,,,,,,0,98,98,98,,,,,,,,,1,0.922224760878,3,0.400428665906,2018_may._29_1246,59.9917009336,Experimento Piloto1,001,129,
0.25,Stim\\03_019.jpg,Tr19_24,Tristeza,24,Guadalupe comenta los resultados con los compañeros.,Afirmación,Tr19,19,,,,,,,,,,,,,0,99,99,99,,,,,,,,,1,1.10766448927,3,0.23361533237,2018_may._29_1246,59.9917009336,Experimento Piloto1,001,129,
0.25,Stim\\02_075.jpg,Al75_21,Alegría,21,Mauro anuncia la actividad.,Afirmación,Al75,75,,,,,,,,,,,,,0,100,100,100,,,,,,,,,1,0.756614958414,3,0.300286134268,2018_may._29_1246,59.9917009336,Experimento Piloto1,001,129,
0.25,Stim\\03_019.jpg,Tr19_23,Tristeza,23,Óscar consigue un nuevo departamento.,Afirmación,Tr19,19,,,,,,,,,,,,,0,101,101,101,,,,,,,,,1,0.965704496306,3,0.333590074729,2018_may._29_1246,59.9917009336,Experimento Piloto1,001,129,
2.5,Stim\\05_028.jpg,En28_30,Enojo,30,Marisol toma 2 litros de agua cada día.,Afirmación,En28,28,,,,,,,,,,,,,0,102,102,102,,,,,,,,,1,0.815861977254,3,0.350464499626,2018_may._29_1246,59.9917009336,Experimento Piloto1,001,129,
0.25,Stim\\02_078.jpg,Al78_19,Alegría,19,Armando acompaña a Rodrígo a la tienda.,Afirmación,Al78,78,,,,,,,,,,,,,0,103,103,103,,,,,,,,,1,0.848791515575,3,0.350643445106,2018_may._29_1246,59.9917009336,Experimento Piloto1,001,129,
2.5,Stim\\03_075.jpg,Tr75_25,Tristeza,25,Luis decide la comida siguiente.,Afirmación,Tr75,75,,,,,,,,,,,,,0,104,104,104,,,,,,,,,1,0.769386132216,3,0.28386063494,2018_may._29_1246,59.9917009336,Experimento Piloto1,001,129,
2.5,Stim\\03_028.jpg,Tr28_29,Tristeza,29,Miriam mira la película.,Afirmación,Tr28,28,,,,,,,,,,,,,0,105,105,105,,,,,,,,,1,0.624389421065,3,0.283744610439,2018_may._29_1246,59.9917009336,Experimento Piloto1,001,129,
0.25,Stim\\03_028.jpg,Tr28_24,Tristeza,24,Guadalupe comenta los resultados con los compañeros.,Afirmación,Tr28,28,,,,,,,,,,,,,0,106,106,106,,,,,,,,,1,0.856866820831,3,0.28373256174,2018_may._29_1246,59.9917009336,Experimento Piloto1,001,129,
0.25,Stim\\02_075.jpg,Al75_30,Alegría,30,Marisol toma 2 litros de agua cada día.,Afirmación,Al75,75,,,,,,,,,,,,,0,107,107,107,,,,,,,,,1,0.765156146666,3,0.283724975524,2018_may._29_1246,59.9917009336,Experimento Piloto1,001,129,
2.5,Stim\\05_019.jpg,En19_27,Enojo,27,Claudia informa los avances en el reporte.,Afirmación,En19,19,,,,,,,,,,,,,0,108,108,108,,,,,,,,,1,0.813671791677,3,0.233827300208,2018_may._29_1246,59.9917009336,Experimento Piloto1,001,129,
2.5,Stim\\05_075.jpg,En75_18,Enojo,18,Sofía escucha la música.,Afirmación,En75,75,,,,,,,,,,,,,0,109,109,109,,,,,,,,,1,0.675373264206,3,0.300338791542,2018_may._29_1246,59.9917009336,Experimento Piloto1,001,129,
2.5,Stim\\02_028.jpg,Al28_23,Alegría,23,Óscar consigue un nuevo departamento.,Afirmación,Al28,28,,,,,,,,,,,,,0,110,110,110,,,,,,,,,1,0.816582667903,3,0.283736577973,2018_may._29_1246,59.9917009336,Experimento Piloto1,001,129,
2.5,Stim\\05_078.jpg,En78_29,Enojo,29,Miriam mira la película.,Afirmación,En78,78,,,,,,,,,,,,,0,111,111,111,,,,,,,,,1,0.564996032855,3,0.283751750409,2018_may._29_1246,59.9917009336,Experimento Piloto1,001,129,
0.25,Stim\\03_078.jpg,Tr78_20,Tristeza,20,Karen analiza la idea.,Afirmación,Tr78,78,,,,,,,,,,,,,0,112,112,112,,,,,,,,,1,0.558721338601,3,0.250049756661,2018_may._29_1246,59.9917009336,Experimento Piloto1,001,129,
0.25,Stim\\02_019.jpg,Al19_25,Alegría,25,Luis decide la comida siguiente.,Afirmación,Al19,19,,,,,,,,,,,,,0,113,113,113,,,,,,,,,1,0.651354407548,3,0.23377330419,2018_may._29_1246,59.9917009336,Experimento Piloto1,001,129,
2.5,Stim\\03_078.jpg,Tr78_16,Tristeza,16,Valeria modifica algunas imágenes.,Afirmación,Tr78,78,,,,,,,,,,,,,0,114,114,114,,,,,,,,,1,0.868207323289,3,0.250335355432,2018_may._29_1246,59.9917009336,Experimento Piloto1,001,129,
0.25,Stim\\02_028.jpg,Al28_21,Alegría,21,Mauro anuncia la actividad.,Afirmación,Al28,28,,,,,,,,,,,,,0,115,115,115,,,,,,,,,1,1.12315643762,3,0.233747421802,2018_may._29_1246,59.9917009336,Experimento Piloto1,001,129,
2.5,Stim\\05_019.jpg,En19_30,Enojo,30,Marisol toma 2 litros de agua cada día.,Afirmación,En19,19,,,,,,,,,,,,,0,116,116,116,,,,,,,,,1,0.66601499572,3,0.283434021775,2018_may._29_1246,59.9917009336,Experimento Piloto1,001,129,
0.25,Stim\\05_078.jpg,En78_26,Enojo,26,Víctor trae el café a Marco.,Afirmación,En78,78,,,,,,,,,,,,,0,117,117,117,,,,,,,,,1,0.648844708346,3,0.250340710409,2018_may._29_1246,59.9917009336,Experimento Piloto1,001,129,
0.25,Stim\\02_078.jpg,Al78_21,Alegría,21,Mauro anuncia la actividad.,Afirmación,Al78,78,,,,,,,,,,,,,0,118,118,118,,,,,,,,,1,0.506118953674,3,0.283787896503,2018_may._29_1246,59.9917009336,Experimento Piloto1,001,129,
0.25,Stim\\03_075.jpg,Tr75_30,Tristeza,30,Marisol toma 2 litros de agua cada día.,Afirmación,Tr75,75,,,,,,,,,,,,,0,119,119,119,,,,,,,,,1,0.663545458845,3,0.283904367252,2018_may._29_1246,59.9917009336,Experimento Piloto1,001,129,
