Tiempo,ImagenesE,ClaveEn,Emocion,NumEn,Enunciado,ActoHabla,Clave,Cara,trials.thisRepN,trials.thisTrialN,trials.thisN,trials.thisIndex,Bloque2.thisRepN,Bloque2.thisTrialN,Bloque2.thisN,Bloque2.thisIndex,Bloque1.thisRepN,Bloque1.thisTrialN,Bloque1.thisN,Bloque1.thisIndex,Bloque3.thisRepN,Bloque3.thisTrialN,Bloque3.thisN,Bloque3.thisIndex,Sig_B2.keys,Sig_B2.rt,Resp_Bloque2.keys,Resp_Bloque2.rt,Sig_B1.keys,Sig_B1.rt,Resp_Bloque1.keys,Resp_Bloque1.rt,Sig_B3.keys,Sig_B3.rt,Resp_Bloque3.keys,Resp_Bloque3.rt,date,frameRate,expName,session,participant,
2.5,Stim\\02_078.jpg,Al78_17,Alegría,17,Brenda sube el autobús en las mañanas.,Afirmación,Al78,78,,,,,0,0,0,0,,,,,,,,,1,3.76192216555,3,2.49960194742,,,,,,,,,2018_may._30_1303,60.0392239866,Experimento Piloto1,001,130,
2.5,Stim\\05_019.jpg,En19_23,Enojo,23,Óscar consigue un nuevo departamento.,Afirmación,En19,19,,,,,0,1,1,1,,,,,,,,,1,4.61348113043,4,2.79960507115,,,,,,,,,2018_may._30_1303,60.0392239866,Experimento Piloto1,001,130,
0.25,Stim\\02_075.jpg,Al75_17,Alegría,17,Brenda sube el autobús en las mañanas.,Afirmación,Al75,75,,,,,0,2,2,2,,,,,,,,,1,5.83087138707,3,2.94954237341,,,,,,,,,2018_may._30_1303,60.0392239866,Experimento Piloto1,001,130,
2.5,Stim\\02_075.jpg,Al75_24,Alegría,24,Guadalupe comenta los resultados con los compañeros.,Afirmación,Al75,75,,,,,0,3,3,3,,,,,,,,,1,4.35582865889,3,2.99950957424,,,,,,,,,2018_may._30_1303,60.0392239866,Experimento Piloto1,001,130,
0.25,Stim\\05_075.jpg,En75_19,Enojo,19,Armando acompaña a Rodrígo a la tienda.,Afirmación,En75,75,,,,,0,4,4,4,,,,,,,,,1,3.63027386196,2,4.94907158253,,,,,,,,,2018_may._30_1303,60.0392239866,Experimento Piloto1,001,130,
2.5,Stim\\02_019.jpg,Al19_29,Alegría,29,Miriam mira la película.,Afirmación,Al19,19,,,,,0,5,5,5,,,,,,,,,1,2.15805230911,3,1.7831782624,,,,,,,,,2018_may._30_1303,60.0392239866,Experimento Piloto1,001,130,
2.5,Stim\\02_078.jpg,Al78_24,Alegría,24,Guadalupe comenta los resultados con los compañeros.,Afirmación,Al78,78,,,,,0,6,6,6,,,,,,,,,1,2.44077495303,3,3.83260104154,,,,,,,,,2018_may._30_1303,60.0392239866,Experimento Piloto1,001,130,
0.25,Stim\\05_028.jpg,En28_20,Enojo,20,Karen analiza la idea.,Afirmación,En28,28,,,,,0,7,7,7,,,,,,,,,1,4.30573606258,4,0.900364584031,,,,,,,,,2018_may._30_1303,60.0392239866,Experimento Piloto1,001,130,
0.25,Stim\\03_078.jpg,Tr78_27,Tristeza,27,Claudia informa los avances en el reporte.,Afirmación,Tr78,78,,,,,0,8,8,8,,,,,,,,,1,3.72801406571,2,2.79963496972,,,,,,,,,2018_may._30_1303,60.0392239866,Experimento Piloto1,001,130,
0.25,Stim\\02_019.jpg,Al19_30,Alegría,30,Marisol toma 2 litros de agua cada día.,Afirmación,Al19,19,,,,,0,9,9,9,,,,,,,,,1,3.88181765444,3,3.7824892566,,,,,,,,,2018_may._30_1303,60.0392239866,Experimento Piloto1,001,130,
2.5,Stim\\02_019.jpg,Al19_19,Alegría,19,Armando acompaña a Rodrígo a la tienda.,Afirmación,Al19,19,,,,,0,10,10,10,,,,,,,,,1,5.01447715437,3,0.550370608369,,,,,,,,,2018_may._30_1303,60.0392239866,Experimento Piloto1,001,130,
0.25,Stim\\02_028.jpg,Al28_30,Alegría,30,Marisol toma 2 litros de agua cada día.,Afirmación,Al28,28,,,,,0,11,11,11,,,,,,,,,1,5.01403224583,3,1.11681370515,,,,,,,,,2018_may._30_1303,60.0392239866,Experimento Piloto1,001,130,
2.5,Stim\\02_019.jpg,Al19_16,Alegría,16,Valeria modifica algunas imágenes.,Afirmación,Al19,19,,,,,0,12,12,12,,,,,,,,,1,4.39872150153,2,1.51676372545,,,,,,,,,2018_may._30_1303,60.0392239866,Experimento Piloto1,001,130,
2.5,Stim\\03_075.jpg,Tr75_30,Tristeza,30,Marisol toma 2 litros de agua cada día.,Afirmación,Tr75,75,,,,,0,13,13,13,,,,,,,,,1,4.99725022424,4,0.800172251451,,,,,,,,,2018_may._30_1303,60.0392239866,Experimento Piloto1,001,130,
2.5,Stim\\02_078.jpg,Al78_19,Alegría,19,Armando acompaña a Rodrígo a la tienda.,Afirmación,Al78,78,,,,,0,14,14,14,,,,,,,,,1,5.11477033884,3,0.550359452187,,,,,,,,,2018_may._30_1303,60.0392239866,Experimento Piloto1,001,130,
2.5,Stim\\05_075.jpg,En75_25,Enojo,25,Luis decide la comida siguiente.,Afirmación,En75,75,,,,,0,15,15,15,,,,,,,,,1,5.06319754028,2,1.43362116283,,,,,,,,,2018_may._30_1303,60.0392239866,Experimento Piloto1,001,130,
0.25,Stim\\03_075.jpg,Tr75_24,Tristeza,24,Guadalupe comenta los resultados con los compañeros.,Afirmación,Tr75,75,,,,,0,16,16,16,,,,,,,,,1,3.15745880022,4,3.98251424644,,,,,,,,,2018_may._30_1303,60.0392239866,Experimento Piloto1,001,130,
2.5,Stim\\05_078.jpg,En78_25,Enojo,25,Luis decide la comida siguiente.,Afirmación,En78,78,,,,,0,17,17,17,,,,,,,,,1,2.76797863368,2,2.08311935776,,,,,,,,,2018_may._30_1303,60.0392239866,Experimento Piloto1,001,130,
2.5,Stim\\05_028.jpg,En28_17,Enojo,17,Brenda sube el autobús en las mañanas.,Afirmación,En28,28,,,,,0,18,18,18,,,,,,,,,1,3.36478662686,2,0.550267525246,,,,,,,,,2018_may._30_1303,60.0392239866,Experimento Piloto1,001,130,
0.25,Stim\\02_078.jpg,Al78_26,Alegría,26,Víctor trae el café a Marco.,Afirmación,Al78,78,,,,,0,19,19,19,,,,,,,,,1,3.43872221553,4,0.750131419825,,,,,,,,,2018_may._30_1303,60.0392239866,Experimento Piloto1,001,130,
2.5,Stim\\03_075.jpg,Tr75_20,Tristeza,20,Karen analiza la idea.,Afirmación,Tr75,75,,,,,0,20,20,20,,,,,,,,,1,2.72452753569,4,1.31657808658,,,,,,,,,2018_may._30_1303,60.0392239866,Experimento Piloto1,001,130,
2.5,Stim\\05_028.jpg,En28_21,Enojo,21,Mauro anuncia la actividad.,Afirmación,En28,28,,,,,0,21,21,21,,,,,,,,,1,3.32277869258,2,0.966862122977,,,,,,,,,2018_may._30_1303,60.0392239866,Experimento Piloto1,001,130,
0.25,Stim\\05_019.jpg,En19_21,Enojo,21,Mauro anuncia la actividad.,Afirmación,En19,19,,,,,0,22,22,22,,,,,,,,,1,3.74940805298,2,0.600268640865,,,,,,,,,2018_may._30_1303,60.0392239866,Experimento Piloto1,001,130,
0.25,Stim\\03_028.jpg,Tr28_16,Tristeza,16,Valeria modifica algunas imágenes.,Afirmación,Tr28,28,,,,,0,23,23,23,,,,,,,,,1,2.55084586173,3,2.54963876282,,,,,,,,,2018_may._30_1303,60.0392239866,Experimento Piloto1,001,130,
0.25,Stim\\05_075.jpg,En75_27,Enojo,27,Claudia informa los avances en el reporte.,Afirmación,En75,75,,,,,0,24,24,24,,,,,,,,,1,2.99582134044,4,4.14909567988,,,,,,,,,2018_may._30_1303,60.0392239866,Experimento Piloto1,001,130,
2.5,Stim\\02_078.jpg,Al78_18,Alegría,18,Sofía escucha la música.,Afirmación,Al78,78,,,,,0,25,25,25,,,,,,,,,1,1.59095501381,3,0.550323752404,,,,,,,,,2018_may._30_1303,60.0392239866,Experimento Piloto1,001,130,
2.5,Stim\\03_028.jpg,Tr28_25,Tristeza,25,Luis decide la comida siguiente.,Afirmación,Tr28,28,,,,,0,26,26,26,,,,,,,,,1,2.44984135909,4,1.06670013521,,,,,,,,,2018_may._30_1303,60.0392239866,Experimento Piloto1,001,130,
0.25,Stim\\03_075.jpg,Tr75_18,Tristeza,18,Sofía escucha la música.,Afirmación,Tr75,75,,,,,0,27,27,27,,,,,,,,,1,3.37244780022,3,1.36662114944,,,,,,,,,2018_may._30_1303,60.0392239866,Experimento Piloto1,001,130,
2.5,Stim\\02_028.jpg,Al28_27,Alegría,27,Claudia informa los avances en el reporte.,Afirmación,Al28,28,,,,,0,28,28,28,,,,,,,,,1,3.77904021134,3,1.01679496276,,,,,,,,,2018_may._30_1303,60.0392239866,Experimento Piloto1,001,130,
2.5,Stim\\02_028.jpg,Al28_20,Alegría,20,Karen analiza la idea.,Afirmación,Al28,28,,,,,0,29,29,29,,,,,,,,,1,2.67480264714,3,1.10008344824,,,,,,,,,2018_may._30_1303,60.0392239866,Experimento Piloto1,001,130,
0.25,Stim\\05_078.jpg,En78_29,Enojo,29,Miriam mira la película.,Afirmación,En78,78,,,,,0,30,30,30,,,,,,,,,1,2.35813575735,2,0.850142576007,,,,,,,,,2018_may._30_1303,60.0392239866,Experimento Piloto1,001,130,
0.25,Stim\\05_019.jpg,En19_22,Enojo,22,Enrique corre todas las mañanas.,Afirmación,En19,19,,,,,0,31,31,31,,,,,,,,,1,2.96937315644,3,2.91676595669,,,,,,,,,2018_may._30_1303,60.0392239866,Experimento Piloto1,001,130,
2.5,Stim\\03_019.jpg,Tr19_20,Tristeza,20,Karen analiza la idea.,Afirmación,Tr19,19,,,,,0,32,32,32,,,,,,,,,1,2.041724121,2,2.96615125105,,,,,,,,,2018_may._30_1303,60.0392239866,Experimento Piloto1,001,130,
2.5,Stim\\05_078.jpg,En78_22,Enojo,22,Enrique corre todas las mañanas.,Afirmación,En78,78,,,,,0,33,33,33,,,,,,,,,1,2.40246997871,3,0.450296085073,,,,,,,,,2018_may._30_1303,60.0392239866,Experimento Piloto1,001,130,
2.5,Stim\\02_078.jpg,Al78_16,Alegría,16,Valeria modifica algunas imágenes.,Afirmación,Al78,78,,,,,0,34,34,34,,,,,,,,,1,2.45126399543,3,0.600287383251,,,,,,,,,2018_may._30_1303,60.0392239866,Experimento Piloto1,001,130,
2.5,Stim\\05_028.jpg,En28_24,Enojo,24,Guadalupe comenta los resultados con los compañeros.,Afirmación,En28,28,,,,,0,35,35,35,,,,,,,,,1,2.75269154049,2,1.36667469912,,,,,,,,,2018_may._30_1303,60.0392239866,Experimento Piloto1,001,130,
2.5,Stim\\02_075.jpg,Al75_16,Alegría,16,Valeria modifica algunas imágenes.,Afirmación,Al75,75,,,,,0,36,36,36,,,,,,,,,1,3.06768277173,3,0.550369269627,,,,,,,,,2018_may._30_1303,60.0392239866,Experimento Piloto1,001,130,
0.25,Stim\\02_019.jpg,Al19_18,Alegría,18,Sofía escucha la música.,Afirmación,Al19,19,,,,,0,37,37,37,,,,,,,,,1,1.94107215372,3,0.966785814691,,,,,,,,,2018_may._30_1303,60.0392239866,Experimento Piloto1,001,130,
2.5,Stim\\02_028.jpg,Al28_26,Alegría,26,Víctor trae el café a Marco.,Afirmación,Al28,28,,,,,0,38,38,38,,,,,,,,,1,2.72207451437,2,1.26673717374,,,,,,,,,2018_may._30_1303,60.0392239866,Experimento Piloto1,001,130,
2.5,Stim\\02_078.jpg,Al78_29,Alegría,29,Miriam mira la película.,Afirmación,Al78,78,,,,,0,39,39,39,,,,,,,,,1,1.64019215408,3,0.3836303109,,,,,,,,,2018_may._30_1303,60.0392239866,Experimento Piloto1,001,130,
0.25,Stim\\05_078.jpg,En78_24,Enojo,24,Guadalupe comenta los resultados con los compañeros.,Afirmación,En78,78,,,,,0,40,40,40,,,,,,,,,1,2.34030951712,3,2.74954148092,,,,,,,,,2018_may._30_1303,60.0392239866,Experimento Piloto1,001,130,
0.25,Stim\\03_075.jpg,Tr75_19,Tristeza,19,Armando acompaña a Rodrígo a la tienda.,Afirmación,Tr75,75,,,,,0,41,41,41,,,,,,,,,1,7.0132231995,2,0.450277788934,,,,,,,,,2018_may._30_1303,60.0392239866,Experimento Piloto1,001,130,
0.25,Stim\\02_028.jpg,Al28_17,Alegría,17,Brenda sube el autobús en las mañanas.,Afirmación,Al28,28,,,,,0,42,42,42,,,,,,,,,1,2.44823486887,3,0.700161095269,,,,,,,,,2018_may._30_1303,60.0392239866,Experimento Piloto1,001,130,
2.5,Stim\\05_075.jpg,En75_21,Enojo,21,Mauro anuncia la actividad.,Afirmación,En75,75,,,,,0,43,43,43,,,,,,,,,1,4.2545952314,4,2.49979383375,,,,,,,,,2018_may._30_1303,60.0392239866,Experimento Piloto1,001,130,
0.25,Stim\\03_019.jpg,Tr19_27,Tristeza,27,Claudia informa los avances en el reporte.,Afirmación,Tr19,19,,,,,0,44,44,44,,,,,,,,,1,3.36303555252,4,1.26660865452,,,,,,,,,2018_may._30_1303,60.0392239866,Experimento Piloto1,001,130,
2.5,Stim\\02_075.jpg,Al75_19,Alegría,19,Armando acompaña a Rodrígo a la tienda.,Afirmación,Al75,75,,,,,0,45,45,45,,,,,,,,,1,2.3981690474,3,0.400315943077,,,,,,,,,2018_may._30_1303,60.0392239866,Experimento Piloto1,001,130,
2.5,Stim\\03_019.jpg,Tr19_22,Tristeza,22,Enrique corre todas las mañanas.,Afirmación,Tr19,19,,,,,0,46,46,46,,,,,,,,,1,1.95264379203,4,1.91634603799,,,,,,,,,2018_may._30_1303,60.0392239866,Experimento Piloto1,001,130,
2.5,Stim\\02_075.jpg,Al75_23,Alegría,23,Óscar consigue un nuevo departamento.,Afirmación,Al75,75,,,,,0,47,47,47,,,,,,,,,1,2.86637035847,2,1.43346586878,,,,,,,,,2018_may._30_1303,60.0392239866,Experimento Piloto1,001,130,
2.5,Stim\\02_019.jpg,Al19_27,Alegría,27,Claudia informa los avances en el reporte.,Afirmación,Al19,19,,,,,0,48,48,48,,,,,,,,,1,3.16237466029,3,0.300018296138,,,,,,,,,2018_may._30_1303,60.0392239866,Experimento Piloto1,001,130,
2.5,Stim\\03_028.jpg,Tr28_16,Tristeza,16,Valeria modifica algunas imágenes.,Afirmación,Tr28,28,,,,,0,49,49,49,,,,,,,,,1,4.70072693682,4,1.36663096688,,,,,,,,,2018_may._30_1303,60.0392239866,Experimento Piloto1,001,130,
2.5,Stim\\02_078.jpg,Al78_20,Alegría,20,Karen analiza la idea.,Afirmación,Al78,78,,,,,0,50,50,50,,,,,,,,,1,3.44146485133,3,1.01681415139,,,,,,,,,2018_may._30_1303,60.0392239866,Experimento Piloto1,001,130,
2.5,Stim\\05_075.jpg,En75_24,Enojo,24,Guadalupe comenta los resultados con los compañeros.,Afirmación,En75,75,,,,,0,51,51,51,,,,,,,,,1,4.239753493,2,2.84946829636,,,,,,,,,2018_may._30_1303,60.0392239866,Experimento Piloto1,001,130,
0.25,Stim\\03_028.jpg,Tr28_26,Tristeza,26,Víctor trae el café a Marco.,Afirmación,Tr28,28,,,,,0,52,52,52,,,,,,,,,1,2.25558009916,4,0.650097505031,,,,,,,,,2018_may._30_1303,60.0392239866,Experimento Piloto1,001,130,
2.5,Stim\\03_028.jpg,Tr28_21,Tristeza,21,Mauro anuncia la actividad.,Afirmación,Tr28,28,,,,,0,53,53,53,,,,,,,,,1,3.07201226288,2,0.700364137783,,,,,,,,,2018_may._30_1303,60.0392239866,Experimento Piloto1,001,130,
2.5,Stim\\02_075.jpg,Al75_29,Alegría,29,Miriam mira la película.,Afirmación,Al75,75,,,,,0,54,54,54,,,,,,,,,1,2.28398463124,3,0.250359898434,,,,,,,,,2018_may._30_1303,60.0392239866,Experimento Piloto1,001,130,
0.25,Stim\\03_078.jpg,Tr78_26,Tristeza,26,Víctor trae el café a Marco.,Afirmación,Tr78,78,,,,,0,55,55,55,,,,,,,,,1,2.03793057285,4,0.350426835527,,,,,,,,,2018_may._30_1303,60.0392239866,Experimento Piloto1,001,130,
0.25,Stim\\05_019.jpg,En19_19,Enojo,19,Armando acompaña a Rodrígo a la tienda.,Afirmación,En19,19,,,,,0,56,56,56,,,,,,,,,1,5.61418709364,2,0.400394036351,,,,,,,,,2018_may._30_1303,60.0392239866,Experimento Piloto1,001,130,
0.25,Stim\\03_078.jpg,Tr78_19,Tristeza,19,Armando acompaña a Rodrígo a la tienda.,Afirmación,Tr78,78,,,,,0,57,57,57,,,,,,,,,1,4.76583753921,4,0.966814374518,,,,,,,,,2018_may._30_1303,60.0392239866,Experimento Piloto1,001,130,
2.5,Stim\\03_078.jpg,Tr78_18,Tristeza,18,Sofía escucha la música.,Afirmación,Tr78,78,,,,,0,58,58,58,,,,,,,,,1,2.20765314091,4,2.0330838811,,,,,,,,,2018_may._30_1303,60.0392239866,Experimento Piloto1,001,130,
2.5,Stim\\05_075.jpg,En75_26,Enojo,26,Víctor trae el café a Marco.,Afirmación,En75,75,,,,,0,59,59,59,,,,,,,,,1,1.33789933554,2,0.850168012102,,,,,,,,,2018_may._30_1303,60.0392239866,Experimento Piloto1,001,130,
2.5,Stim\\02_075.jpg,Al75_30,Alegría,30,Marisol toma 2 litros de agua cada día.,Afirmación,Al75,75,,,,,0,60,60,60,,,,,,,,,1,1.88228844532,3,0.400303448153,,,,,,,,,2018_may._30_1303,60.0392239866,Experimento Piloto1,001,130,
2.5,Stim\\03_019.jpg,Tr19_18,Tristeza,18,Sofía escucha la música.,Afirmación,Tr19,19,,,,,0,61,61,61,,,,,,,,,1,2.15779660941,3,1.26670102771,,,,,,,,,2018_may._30_1303,60.0392239866,Experimento Piloto1,001,130,
0.25,Stim\\03_078.jpg,Tr78_23,Tristeza,23,Óscar consigue un nuevo departamento.,Afirmación,Tr78,78,,,,,0,62,62,62,,,,,,,,,1,2.44900776917,4,0.750191663208,,,,,,,,,2018_may._30_1303,60.0392239866,Experimento Piloto1,001,130,
2.5,Stim\\03_019.jpg,Tr19_25,Tristeza,25,Luis decide la comida siguiente.,Afirmación,Tr19,19,,,,,0,63,63,63,,,,,,,,,1,3.01758571295,2,1.31681102766,,,,,,,,,2018_may._30_1303,60.0392239866,Experimento Piloto1,001,130,
0.25,Stim\\02_028.jpg,Al28_29,Alegría,29,Miriam mira la película.,Afirmación,Al28,28,,,,,0,64,64,64,,,,,,,,,1,1.89118304617,3,0.350333569844,,,,,,,,,2018_may._30_1303,60.0392239866,Experimento Piloto1,001,130,
2.5,Stim\\02_019.jpg,Al19_21,Alegría,21,Mauro anuncia la actividad.,Afirmación,Al19,19,,,,,0,65,65,65,,,,,,,,,1,2.67162715147,2,1.61671553074,,,,,,,,,2018_may._30_1303,60.0392239866,Experimento Piloto1,001,130,
2.5,Stim\\02_078.jpg,Al78_25,Alegría,25,Luis decide la comida siguiente.,Afirmación,Al78,78,,,,,0,66,66,66,,,,,,,,,1,2.20001294117,3,0.850152839695,,,,,,,,,2018_may._30_1303,60.0392239866,Experimento Piloto1,001,130,
2.5,Stim\\05_075.jpg,En75_29,Enojo,29,Miriam mira la película.,Afirmación,En75,75,,,,,0,67,67,67,,,,,,,,,1,1.85764488534,2,1.00002900607,,,,,,,,,2018_may._30_1303,60.0392239866,Experimento Piloto1,001,130,
0.25,Stim\\03_028.jpg,Tr28_20,Tristeza,20,Karen analiza la idea.,Afirmación,Tr28,28,,,,,0,68,68,68,,,,,,,,,1,3.07553583143,4,1.26681749825,,,,,,,,,2018_may._30_1303,60.0392239866,Experimento Piloto1,001,130,
2.5,Stim\\02_075.jpg,Al75_26,Alegría,26,Víctor trae el café a Marco.,Afirmación,Al75,75,,,,,0,69,69,69,,,,,,,,,1,1.75479024146,3,0.583835584651,,,,,,,,,2018_may._30_1303,60.0392239866,Experimento Piloto1,001,130,
0.25,Stim\\05_019.jpg,En19_20,Enojo,20,Karen analiza la idea.,Afirmación,En19,19,,,,,0,70,70,70,,,,,,,,,1,2.35913312003,2,0.500414563727,,,,,,,,,2018_may._30_1303,60.0392239866,Experimento Piloto1,001,130,
0.25,Stim\\05_028.jpg,En28_22,Enojo,22,Enrique corre todas las mañanas.,Afirmación,En28,28,,,,,0,71,71,71,,,,,,,,,1,2.96904204096,3,1.00010888434,,,,,,,,,2018_may._30_1303,60.0392239866,Experimento Piloto1,001,130,
2.5,Stim\\05_028.jpg,En28_22,Enojo,22,Enrique corre todas las mañanas.,Afirmación,En28,28,,,,,0,72,72,72,,,,,,,,,1,1.71655354298,2,1.81655220424,,,,,,,,,2018_may._30_1303,60.0392239866,Experimento Piloto1,001,130,
0.25,Stim\\05_019.jpg,En19_17,Enojo,17,Brenda sube el autobús en las mañanas.,Afirmación,En19,19,,,,,0,73,73,73,,,,,,,,,1,2.71509520686,3,0.950067160216,,,,,,,,,2018_may._30_1303,60.0392239866,Experimento Piloto1,001,130,
2.5,Stim\\05_078.jpg,En78_26,Enojo,26,Víctor trae el café a Marco.,Afirmación,En78,78,,,,,0,74,74,74,,,,,,,,,1,1.68897189088,2,0.550500466328,,,,,,,,,2018_may._30_1303,60.0392239866,Experimento Piloto1,001,130,
2.5,Stim\\03_078.jpg,Tr78_29,Tristeza,29,Miriam mira la película.,Afirmación,Tr78,78,,,,,0,75,75,75,,,,,,,,,1,1.49126783316,4,0.450282251407,,,,,,,,,2018_may._30_1303,60.0392239866,Experimento Piloto1,001,130,
0.25,Stim\\02_075.jpg,Al75_22,Alegría,22,Enrique corre todas las mañanas.,Afirmación,Al75,75,,,,,0,76,76,76,,,,,,,,,1,2.40204381256,3,0.33383000656,,,,,,,,,2018_may._30_1303,60.0392239866,Experimento Piloto1,001,130,
2.5,Stim\\02_019.jpg,Al19_23,Alegría,23,Óscar consigue un nuevo departamento.,Afirmación,Al19,19,,,,,0,77,77,77,,,,,,,,,1,2.71637593656,3,0.550278235181,,,,,,,,,2018_may._30_1303,60.0392239866,Experimento Piloto1,001,130,
0.25,Stim\\05_075.jpg,En75_21,Enojo,21,Mauro anuncia la actividad.,Afirmación,En75,75,,,,,0,78,78,78,,,,,,,,,1,1.7883614246,2,0.600271764596,,,,,,,,,2018_may._30_1303,60.0392239866,Experimento Piloto1,001,130,
0.25,Stim\\02_078.jpg,Al78_25,Alegría,25,Luis decide la comida siguiente.,Afirmación,Al78,78,,,,,0,79,79,79,,,,,,,,,1,3.067309709,3,0.333745219576,,,,,,,,,2018_may._30_1303,60.0392239866,Experimento Piloto1,001,130,
0.25,Stim\\03_078.jpg,Tr78_22,Tristeza,22,Enrique corre todas las mañanas.,Afirmación,Tr78,78,,,,,0,80,80,80,,,,,,,,,1,1.8979294126,4,0.334082136275,,,,,,,,,2018_may._30_1303,60.0392239866,Experimento Piloto1,001,130,
0.25,Stim\\05_028.jpg,En28_26,Enojo,26,Víctor trae el café a Marco.,Afirmación,En28,28,,,,,0,81,81,81,,,,,,,,,1,2.77098589412,2,0.699979472625,,,,,,,,,2018_may._30_1303,60.0392239866,Experimento Piloto1,001,130,
2.5,Stim\\05_019.jpg,En19_29,Enojo,29,Miriam mira la película.,Afirmación,En19,19,,,,,0,82,82,82,,,,,,,,,1,3.0719265834,2,0.700312373099,,,,,,,,,2018_may._30_1303,60.0392239866,Experimento Piloto1,001,130,
0.25,Stim\\02_019.jpg,Al19_21,Alegría,21,Mauro anuncia la actividad.,Afirmación,Al19,19,,,,,0,83,83,83,,,,,,,,,1,1.63926886845,3,0.28380613233,,,,,,,,,2018_may._30_1303,60.0392239866,Experimento Piloto1,001,130,
2.5,Stim\\05_078.jpg,En78_30,Enojo,30,Marisol toma 2 litros de agua cada día.,Afirmación,En78,78,,,,,0,84,84,84,,,,,,,,,1,1.6314247337,2,0.450367484638,,,,,,,,,2018_may._30_1303,60.0392239866,Experimento Piloto1,001,130,
0.25,Stim\\02_078.jpg,Al78_30,Alegría,30,Marisol toma 2 litros de agua cada día.,Afirmación,Al78,78,,,,,0,85,85,85,,,,,,,,,1,1.69999419879,3,0.900225801125,,,,,,,,,2018_may._30_1303,60.0392239866,Experimento Piloto1,001,130,
0.25,Stim\\03_075.jpg,Tr75_16,Tristeza,16,Valeria modifica algunas imágenes.,Afirmación,Tr75,75,,,,,0,86,86,86,,,,,,,,,1,4.15130058771,3,0.900278458305,,,,,,,,,2018_may._30_1303,60.0392239866,Experimento Piloto1,001,130,
0.25,Stim\\02_019.jpg,Al19_24,Alegría,24,Guadalupe comenta los resultados con los compañeros.,Afirmación,Al19,19,,,,,0,87,87,87,,,,,,,,,1,4.48979209339,3,0.800194563816,,,,,,,,,2018_may._30_1303,60.0392239866,Experimento Piloto1,001,130,
2.5,Stim\\02_028.jpg,Al28_29,Alegría,29,Miriam mira la película.,Afirmación,Al28,28,,,,,0,88,88,88,,,,,,,,,1,1.60711987541,3,1.25000245436,,,,,,,,,2018_may._30_1303,60.0392239866,Experimento Piloto1,001,130,
0.25,Stim\\03_019.jpg,Tr19_25,Tristeza,25,Luis decide la comida siguiente.,Afirmación,Tr19,19,,,,,0,89,89,89,,,,,,,,,1,2.66830841042,2,0.383882886863,,,,,,,,,2018_may._30_1303,60.0392239866,Experimento Piloto1,001,130,
0.25,Stim\\03_075.jpg,Tr75_25,Tristeza,25,Luis decide la comida siguiente.,Afirmación,Tr75,75,,,,,0,90,90,90,,,,,,,,,1,1.49989914811,4,0.383878870637,,,,,,,,,2018_may._30_1303,60.0392239866,Experimento Piloto1,001,130,
2.5,Stim\\03_078.jpg,Tr78_25,Tristeza,25,Luis decide la comida siguiente.,Afirmación,Tr78,78,,,,,0,91,91,91,,,,,,,,,1,1.61658968901,4,0.650251014097,,,,,,,,,2018_may._30_1303,60.0392239866,Experimento Piloto1,001,130,
2.5,Stim\\02_019.jpg,Al19_18,Alegría,18,Sofía escucha la música.,Afirmación,Al19,19,,,,,0,92,92,92,,,,,,,,,1,1.99083274206,3,0.400220446158,,,,,,,,,2018_may._30_1303,60.0392239866,Experimento Piloto1,001,130,
2.5,Stim\\03_028.jpg,Tr28_19,Tristeza,19,Armando acompaña a Rodrígo a la tienda.,Afirmación,Tr28,28,,,,,0,93,93,93,,,,,,,,,1,2.86494727588,4,0.800232494835,,,,,,,,,2018_may._30_1303,60.0392239866,Experimento Piloto1,001,130,
0.25,Stim\\03_078.jpg,Tr78_18,Tristeza,18,Sofía escucha la música.,Afirmación,Tr78,78,,,,,0,94,94,94,,,,,,,,,1,4.45710314113,4,0.300053103427,,,,,,,,,2018_may._30_1303,60.0392239866,Experimento Piloto1,001,130,
0.25,Stim\\05_019.jpg,En19_29,Enojo,29,Miriam mira la película.,Afirmación,En19,19,,,,,0,95,95,95,,,,,,,,,1,3.00724482465,4,1.21678425283,,,,,,,,,2018_may._30_1303,60.0392239866,Experimento Piloto1,001,130,
2.5,Stim\\03_078.jpg,Tr78_24,Tristeza,24,Guadalupe comenta los resultados con los compañeros.,Afirmación,Tr78,78,,,,,0,96,96,96,,,,,,,,,1,2.60700474361,3,2.49968093319,,,,,,,,,2018_may._30_1303,60.0392239866,Experimento Piloto1,001,130,
2.5,Stim\\05_019.jpg,En19_22,Enojo,22,Enrique corre todas las mañanas.,Afirmación,En19,19,,,,,0,97,97,97,,,,,,,,,1,2.75118188593,2,0.550334462339,,,,,,,,,2018_may._30_1303,60.0392239866,Experimento Piloto1,001,130,
0.25,Stim\\02_028.jpg,Al28_20,Alegría,20,Karen analiza la idea.,Afirmación,Al28,28,,,,,0,98,98,98,,,,,,,,,1,2.25813932733,3,0.400374401471,,,,,,,,,2018_may._30_1303,60.0392239866,Experimento Piloto1,001,130,
2.5,Stim\\03_078.jpg,Tr78_27,Tristeza,27,Claudia informa los avances en el reporte.,Afirmación,Tr78,78,,,,,0,99,99,99,,,,,,,,,1,3.01296660732,2,4.13235605178,,,,,,,,,2018_may._30_1303,60.0392239866,Experimento Piloto1,001,130,
0.25,Stim\\03_075.jpg,Tr75_17,Tristeza,17,Brenda sube el autobús en las mañanas.,Afirmación,Tr75,75,,,,,0,100,100,100,,,,,,,,,1,2.91072242973,3,1.00009683566,,,,,,,,,2018_may._30_1303,60.0392239866,Experimento Piloto1,001,130,
2.5,Stim\\05_028.jpg,En28_25,Enojo,25,Luis decide la comida siguiente.,Afirmación,En28,28,,,,,0,101,101,101,,,,,,,,,1,3.28453173041,2,1.26674743743,,,,,,,,,2018_may._30_1303,60.0392239866,Experimento Piloto1,001,130,
2.5,Stim\\02_028.jpg,Tr28_30,Tristeza,30,Marisol toma 2 litros de agua cada día.,Afirmación,Tr28,28,,,,,0,102,102,102,,,,,,,,,1,1.93085889215,3,0.35037864082,,,,,,,,,2018_may._30_1303,60.0392239866,Experimento Piloto1,001,130,
0.25,Stim\\02_078.jpg,Al78_18,Alegría,18,Sofía escucha la música.,Afirmación,Al78,78,,,,,0,103,103,103,,,,,,,,,1,1.54042911139,3,0.233759053242,,,,,,,,,2018_may._30_1303,60.0392239866,Experimento Piloto1,001,130,
0.25,Stim\\02_078.jpg,Al78_24,Alegría,24,Guadalupe comenta los resultados con los compañeros.,Afirmación,Al78,78,,,,,0,104,104,104,,,,,,,,,1,4.68968142406,3,1.21681906011,,,,,,,,,2018_may._30_1303,60.0392239866,Experimento Piloto1,001,130,
0.25,Stim\\05_075.jpg,En75_26,Enojo,26,Víctor trae el café a Marco.,Afirmación,En75,75,,,,,0,105,105,105,,,,,,,,,1,1.63643787568,2,0.283793637406,,,,,,,,,2018_may._30_1303,60.0392239866,Experimento Piloto1,001,130,
0.25,Stim\\05_019.jpg,En19_16,Enojo,16,Valeria modifica algunas imágenes.,Afirmación,En19,19,,,,,0,106,106,106,,,,,,,,,1,2.45173434007,2,0.45036391466,,,,,,,,,2018_may._30_1303,60.0392239866,Experimento Piloto1,001,130,
2.5,Stim\\05_019.jpg,En19_21,Enojo,21,Mauro anuncia la actividad.,Afirmación,En19,19,,,,,0,107,107,107,,,,,,,,,1,1.7388824183,2,0.300385557653,,,,,,,,,2018_may._30_1303,60.0392239866,Experimento Piloto1,001,130,
0.25,Stim\\03_028.jpg,Tr28_22,Tristeza,22,Enrique corre todas las mañanas.,Afirmación,Tr28,28,,,,,0,108,108,108,,,,,,,,,1,1.63568059404,3,1.15027332646,,,,,,,,,2018_may._30_1303,60.0392239866,Experimento Piloto1,001,130,
2.5,Stim\\05_075.jpg,En75_28,Enojo,28,Antonio responde la pregunta.,Afirmación,En75,75,,,,,0,109,109,109,,,,,,,,,1,5.03725450821,2,0.433687207429,,,,,,,,,2018_may._30_1303,60.0392239866,Experimento Piloto1,001,130,
2.5,Stim\\05_078.jpg,En78_28,Enojo,28,Antonio responde la pregunta.,Afirmación,En78,78,,,,,0,110,110,110,,,,,,,,,1,1.5001387829,2,0.350425050538,,,,,,,,,2018_may._30_1303,60.0392239866,Experimento Piloto1,001,130,
2.5,Stim\\03_028.jpg,Tr28_26,Tristeza,26,Víctor trae el café a Marco.,Afirmación,Tr28,28,,,,,0,111,111,111,,,,,,,,,1,1.3213216952,4,0.350335801081,,,,,,,,,2018_may._30_1303,60.0392239866,Experimento Piloto1,001,130,
2.5,Stim\\05_028.jpg,En28_20,Enojo,20,Karen analiza la idea.,Afirmación,En28,28,,,,,0,112,112,112,,,,,,,,,1,2.30872101066,4,0.800300324422,,,,,,,,,2018_may._30_1303,60.0392239866,Experimento Piloto1,001,130,
2.5,Stim\\02_019.jpg,Al19_30,Alegría,30,Marisol toma 2 litros de agua cada día.,Afirmación,Al19,19,,,,,0,113,113,113,,,,,,,,,1,1.07976313194,3,0.483681183091,,,,,,,,,2018_may._30_1303,60.0392239866,Experimento Piloto1,001,130,
2.5,Stim\\05_078.jpg,En78_23,Enojo,23,Óscar consigue un nuevo departamento.,Afirmación,En78,78,,,,,0,114,114,114,,,,,,,,,1,2.41522104859,4,0.283803901094,,,,,,,,,2018_may._30_1303,60.0392239866,Experimento Piloto1,001,130,
0.25,Stim\\05_078.jpg,En78_23,Enojo,23,Óscar consigue un nuevo departamento.,Afirmación,En78,78,,,,,0,115,115,115,,,,,,,,,1,4.56555015596,3,1.2667518999,,,,,,,,,2018_may._30_1303,60.0392239866,Experimento Piloto1,001,130,
2.5,Stim\\05_019.jpg,En19_19,Enojo,19,Armando acompaña a Rodrígo a la tienda.,Afirmación,En19,19,,,,,0,116,116,116,,,,,,,,,1,4.14707685717,2,0.400349411623,,,,,,,,,2018_may._30_1303,60.0392239866,Experimento Piloto1,001,130,
2.5,Stim\\03_078.jpg,Tr78_17,Tristeza,17,Brenda sube el autobús en las mañanas.,Afirmación,Tr78,78,,,,,0,117,117,117,,,,,,,,,1,1.88102422677,4,2.44970569992,,,,,,,,,2018_may._30_1303,60.0392239866,Experimento Piloto1,001,130,
0.25,Stim\\05_075.jpg,En75_20,Enojo,20,Karen analiza la idea.,Afirmación,En75,75,,,,,0,118,118,118,,,,,,,,,1,2.40886648728,2,0.383867268208,,,,,,,,,2018_may._30_1303,60.0392239866,Experimento Piloto1,001,130,
0.25,Stim\\05_078.jpg,En78_28,Enojo,28,Antonio responde la pregunta.,Afirmación,En78,78,,,,,0,119,119,119,,,,,,,,,1,3.38696199312,2,0.383869499444,,,,,,,,,2018_may._30_1303,60.0392239866,Experimento Piloto1,001,130,
2.5,Stim\\05_028.jpg,En28_16,Enojo,16,Valeria modifica algunas imágenes.,Afirmación,En28,28,,,,,,,,,0,0,0,0,,,,,,,,,1,2.58548402212,2,0.450276450192,,,,,2018_may._30_1303,60.0392239866,Experimento Piloto1,001,130,
2.5,Stim\\05_028.jpg,En28_29,Enojo,29,Miriam mira la película.,Afirmación,En28,28,,,,,,,,,0,1,1,1,,,,,,,,,1,1.24139166678,2,0.333579215586,,,,,2018_may._30_1303,60.0392239866,Experimento Piloto1,001,130,
0.25,Stim\\03_028.jpg,Tr28_29,Tristeza,29,Miriam mira la película.,Afirmación,Tr28,28,,,,,,,,,0,2,2,2,,,,,,,,,1,1.3999839351,4,1.61657764033,,,,,2018_may._30_1303,60.0392239866,Experimento Piloto1,001,130,
2.5,Stim\\02_075.jpg,Al75_22,Alegría,22,Enrique corre todas las mañanas.,Afirmación,Al75,75,,,,,,,,,0,3,3,3,,,,,,,,,1,2.45293653025,3,1.31703058133,,,,,2018_may._30_1303,60.0392239866,Experimento Piloto1,001,130,
2.5,Stim\\05_019.jpg,En19_17,Enojo,17,Brenda sube el autobús en las mañanas.,Afirmación,En19,19,,,,,,,,,0,4,4,4,,,,,,,,,1,1.79917533502,2,0.333828667818,,,,,2018_may._30_1303,60.0392239866,Experimento Piloto1,001,130,
2.5,Stim\\02_028.jpg,Al28_17,Alegría,17,Brenda sube el autobús en las mañanas.,Afirmación,Al28,28,,,,,,,,,0,5,5,5,,,,,,,,,1,2.31645849231,3,0.250438437956,,,,,2018_may._30_1303,60.0392239866,Experimento Piloto1,001,130,
0.25,Stim\\05_075.jpg,En75_24,Enojo,24,Guadalupe comenta los resultados con los compañeros.,Afirmación,En75,75,,,,,,,,,0,6,6,6,,,,,,,,,1,3.45620261412,2,2.09946004079,,,,,2018_may._30_1303,60.0392239866,Experimento Piloto1,001,130,
2.5,Stim\\03_078.jpg,Tr78_23,Tristeza,23,Óscar consigue un nuevo departamento.,Afirmación,Tr78,78,,,,,,,,,0,7,7,7,,,,,,,,,1,2.24881320535,4,0.483699032982,,,,,2018_may._30_1303,60.0392239866,Experimento Piloto1,001,130,
0.25,Stim\\05_075.jpg,En75_16,Enojo,16,Valeria modifica algunas imágenes.,Afirmación,En75,75,,,,,,,,,0,8,8,8,,,,,,,,,1,2.61823991146,2,0.233680959967,,,,,2018_may._30_1303,60.0392239866,Experimento Piloto1,001,130,
0.25,Stim\\02_078.jpg,Al78_23,Alegría,23,Óscar consigue un nuevo departamento.,Afirmación,Al78,78,,,,,,,,,0,9,9,9,,,,,,,,,1,3.41325399057,3,0.866891575298,,,,,2018_may._30_1303,60.0392239866,Experimento Piloto1,001,130,
2.5,Stim\\05_078.jpg,En78_24,Enojo,24,Guadalupe comenta los resultados con los compañeros.,Afirmación,En78,78,,,,,,,,,0,10,10,10,,,,,,,,,1,2.58965955795,2,1.11675435426,,,,,2018_may._30_1303,60.0392239866,Experimento Piloto1,001,130,
2.5,Stim\\03_028.jpg,Tr28_28,Tristeza,28,Antonio responde la pregunta.,Afirmación,Tr28,28,,,,,,,,,0,11,11,11,,,,,,,,,1,3.48746982253,4,0.283724469077,,,,,2018_may._30_1303,60.0392239866,Experimento Piloto1,001,130,
0.25,Stim\\02_019.jpg,Al19_20,Alegría,20,Karen analiza la idea.,Afirmación,Al19,19,,,,,,,,,0,12,12,12,,,,,,,,,1,2.50711987541,3,0.250256369064,,,,,2018_may._30_1303,60.0392239866,Experimento Piloto1,001,130,
2.5,Stim\\05_078.jpg,En78_27,Enojo,27,Claudia informa los avances en el reporte.,Afirmación,En78,78,,,,,,,,,0,13,13,13,,,,,,,,,1,1.77908438982,2,1.73333824205,,,,,2018_may._30_1303,60.0392239866,Experimento Piloto1,001,130,
0.25,Stim\\05_028.jpg,En28_28,Enojo,28,Antonio responde la pregunta.,Afirmación,En28,28,,,,,,,,,0,14,14,14,,,,,,,,,1,3.78764296647,2,0.333692562396,,,,,2018_may._30_1303,60.0392239866,Experimento Piloto1,001,130,
2.5,Stim\\03_078.jpg,Tr78_30,Tristeza,30,Marisol toma 2 litros de agua cada día.,Afirmación,Tr78,78,,,,,,,,,0,15,15,15,,,,,,,,,1,1.99790219152,4,0.400227139867,,,,,2018_may._30_1303,60.0392239866,Experimento Piloto1,001,130,
0.25,Stim\\03_028.jpg,Tr28_27,Tristeza,27,Claudia informa los avances en el reporte.,Afirmación,Tr28,28,,,,,,,,,0,16,16,16,,,,,,,,,1,2.39605071154,4,1.00030924937,,,,,2018_may._30_1303,60.0392239866,Experimento Piloto1,001,130,
0.25,Stim\\02_075.jpg,Al75_24,Alegría,24,Guadalupe comenta los resultados con los compañeros.,Afirmación,Al75,75,,,,,,,,,0,17,17,17,,,,,,,,,1,2.58969882771,3,0.300296308196,,,,,2018_may._30_1303,60.0392239866,Experimento Piloto1,001,130,
0.25,Stim\\02_019.jpg,Al19_16,Alegría,16,Valeria modifica algunas imágenes.,Afirmación,Al19,19,,,,,,,,,0,18,18,18,,,,,,,,,1,2.35171024271,2,1.05019077071,,,,,2018_may._30_1303,60.0392239866,Experimento Piloto1,001,130,
2.5,Stim\\02_028.jpg,Al28_30,Alegría,30,Marisol toma 2 litros de agua cada día.,Afirmación,Al28,28,,,,,,,,,0,19,19,19,,,,,,,,,1,2.36282403131,3,1.05026038529,,,,,2018_may._30_1303,60.0392239866,Experimento Piloto1,001,130,
2.5,Stim\\05_078.jpg,En78_16,Enojo,16,Valeria modifica algunas imágenes.,Afirmación,En78,78,,,,,,,,,0,20,20,20,,,,,,,,,1,4.51648125092,3,0.483729824045,,,,,2018_may._30_1303,60.0392239866,Experimento Piloto1,001,130,
0.25,Stim\\02_075.jpg,Al75_28,Alegría,28,Antonio responde la pregunta.,Afirmación,Al75,75,,,,,,,,,0,21,21,21,,,,,,,,,1,2.00477886216,3,0.283732055281,,,,,2018_may._30_1303,60.0392239866,Experimento Piloto1,001,130,
2.5,Stim\\03_075.jpg,Tr75_17,Tristeza,17,Brenda sube el autobús en las mañanas.,Afirmación,Tr75,75,,,,,,,,,0,22,22,22,,,,,,,,,1,1.84807600484,4,1.00014993909,,,,,2018_may._30_1303,60.0392239866,Experimento Piloto1,001,130,
0.25,Stim\\05_075.jpg,En75_18,Enojo,18,Sofía escucha la música.,Afirmación,En75,75,,,,,,,,,0,23,23,23,,,,,,,,,1,1.59072475021,2,0.383747227689,,,,,2018_may._30_1303,60.0392239866,Experimento Piloto1,001,130,
2.5,Stim\\02_075.jpg,Al75_25,Alegría,25,Luis decide la comida siguiente.,Afirmación,Al75,75,,,,,,,,,0,24,24,24,,,,,,,,,1,2.15175263621,3,0.300331561732,,,,,2018_may._30_1303,60.0392239866,Experimento Piloto1,001,130,
0.25,Stim\\02_028.jpg,Al28_18,Alegría,18,Sofía escucha la música.,Afirmación,Al28,28,,,,,,,,,0,25,25,25,,,,,,,,,1,4.19053509512,3,0.766660419205,,,,,2018_may._30_1303,60.0392239866,Experimento Piloto1,001,130,
0.25,Stim\\02_028.jpg,Al28_23,Alegría,23,Óscar consigue un nuevo departamento.,Afirmación,Al28,28,,,,,,,,,0,26,26,26,,,,,,,,,1,1.98153830364,3,0.450039046637,,,,,2018_may._30_1303,60.0392239866,Experimento Piloto1,001,130,
0.25,Stim\\02_075.jpg,Al75_19,Alegría,19,Armando acompaña a Rodrígo a la tienda.,Afirmación,Al75,75,,,,,,,,,0,27,27,27,,,,,,,,,1,1.88145619414,3,0.283729377797,,,,,2018_may._30_1303,60.0392239866,Experimento Piloto1,001,130,
2.5,Stim\\05_019.jpg,En19_16,Enojo,16,Valeria modifica algunas imágenes.,Afirmación,En19,19,,,,,,,,,0,28,28,28,,,,,,,,,1,3.18381327229,2,1.56668540905,,,,,2018_may._30_1303,60.0392239866,Experimento Piloto1,001,130,
2.5,Stim\\02_019.jpg,Al19_25,Alegría,25,Luis decide la comida siguiente.,Afirmación,Al19,19,,,,,,,,,0,29,29,29,,,,,,,,,1,1.83563730806,3,0.816830662543,,,,,2018_may._30_1303,60.0392239866,Experimento Piloto1,001,130,
0.25,Stim\\02_078.jpg,Al78_27,Alegría,27,Claudia informa los avances en el reporte.,Afirmación,Al78,78,,,,,,,,,0,30,30,30,,,,,,,,,1,3.61243691179,3,0.300403407544,,,,,2018_may._30_1303,60.0392239866,Experimento Piloto1,001,130,
0.25,Stim\\03_019.jpg,Tr19_22,Tristeza,22,Enrique corre todas las mañanas.,Afirmación,Tr19,19,,,,,,,,,0,31,31,31,,,,,,,,,1,1.83671544149,2,0.950174705812,,,,,2018_may._30_1303,60.0392239866,Experimento Piloto1,001,130,
2.5,Stim\\05_019.jpg,En19_26,Enojo,26,Víctor trae el café a Marco.,Afirmación,En19,19,,,,,,,,,0,32,32,32,,,,,,,,,1,1.08889602885,2,0.549947565944,,,,,2018_may._30_1303,60.0392239866,Experimento Piloto1,001,130,
2.5,Stim\\02_078.jpg,Al78_26,Alegría,26,Víctor trae el café a Marco.,Afirmación,Al78,78,,,,,,,,,0,33,33,33,,,,,,,,,1,11.1302551196,3,1.51671820823,,,,,2018_may._30_1303,60.0392239866,Experimento Piloto1,001,130,
0.25,Stim\\05_078.jpg,En78_17,Enojo,17,Brenda sube el autobús en las mañanas.,Afirmación,En78,78,,,,,,,,,0,34,34,34,,,,,,,,,1,2.96556800585,2,0.800285152014,,,,,2018_may._30_1303,60.0392239866,Experimento Piloto1,001,130,
0.25,Stim\\05_078.jpg,En78_21,Enojo,21,Mauro anuncia la actividad.,Afirmación,En78,78,,,,,,,,,0,35,35,35,,,,,,,,,1,1.63596976228,2,0.283900736754,,,,,2018_may._30_1303,60.0392239866,Experimento Piloto1,001,130,
2.5,Stim\\03_078.jpg,Tr78_20,Tristeza,20,Karen analiza la idea.,Afirmación,Tr78,78,,,,,,,,,0,36,36,36,,,,,,,,,1,1.70697439879,4,0.383780696235,,,,,2018_may._30_1303,60.0392239866,Experimento Piloto1,001,130,
0.25,Stim\\03_078.jpg,Tr78_28,Tristeza,28,Antonio responde la pregunta.,Afirmación,Tr78,78,,,,,,,,,0,37,37,37,,,,,,,,,1,2.77155619815,4,0.233438647692,,,,,2018_may._30_1303,60.0392239866,Experimento Piloto1,001,130,
2.5,Stim\\03_028.jpg,Tr28_17,Tristeza,17,Brenda sube el autobús en las mañanas.,Afirmación,Tr28,28,,,,,,,,,0,38,38,38,,,,,,,,,1,4.34842854019,4,0.450301886287,,,,,2018_may._30_1303,60.0392239866,Experimento Piloto1,001,130,
0.25,Stim\\02_028.jpg,Al28_27,Alegría,27,Claudia informa los avances en el reporte.,Afirmación,Al28,28,,,,,,,,,0,39,39,39,,,,,,,,,1,2.39555359207,3,0.283633434631,,,,,2018_may._30_1303,60.0392239866,Experimento Piloto1,001,130,
2.5,Stim\\02_019.jpg,Al19_28,Alegría,28,Antonio responde la pregunta.,Afirmación,Al19,19,,,,,,,,,0,40,40,40,,,,,,,,,1,2.42093033634,3,0.283751243914,,,,,2018_may._30_1303,60.0392239866,Experimento Piloto1,001,130,
0.25,Stim\\02_019.jpg,Al19_17,Alegría,17,Brenda sube el autobús en las mañanas.,Afirmación,Al19,19,,,,,,,,,0,41,41,41,,,,,,,,,1,2.19939890491,3,2.28326572687,,,,,2018_may._30_1303,60.0392239866,Experimento Piloto1,001,130,
2.5,Stim\\03_075.jpg,Tr75_21,Tristeza,21,Mauro anuncia la actividad.,Afirmación,Tr75,75,,,,,,,,,0,42,42,42,,,,,,,,,1,3.4884756639,4,3.93249037221,,,,,2018_may._30_1303,60.0392239866,Experimento Piloto1,001,130,
0.25,Stim\\03_075.jpg,Tr75_26,Tristeza,26,Víctor trae el café a Marco.,Afirmación,Tr75,75,,,,,,,,,0,43,43,43,,,,,,,,,1,1.37167311494,4,0.300348072881,,,,,2018_may._30_1303,60.0392239866,Experimento Piloto1,001,130,
0.25,Stim\\02_075.jpg,Al75_18,Alegría,18,Sofía escucha la música.,Afirmación,Al75,75,,,,,,,,,0,44,44,44,,,,,,,,,1,1.93805329085,3,0.350310364985,,,,,2018_may._30_1303,60.0392239866,Experimento Piloto1,001,130,
2.5,Stim\\05_028.jpg,En28_27,Enojo,27,Claudia informa los avances en el reporte.,Afirmación,En28,28,,,,,,,,,0,45,45,45,,,,,,,,,1,1.42961653971,2,0.283921710377,,,,,2018_may._30_1303,60.0392239866,Experimento Piloto1,001,130,
0.25,Stim\\02_019.jpg,Al19_23,Alegría,23,Óscar consigue un nuevo departamento.,Afirmación,Al19,19,,,,,,,,,0,46,46,46,,,,,,,,,1,1.83267154861,3,0.350334462339,,,,,2018_may._30_1303,60.0392239866,Experimento Piloto1,001,130,
0.25,Stim\\03_075.jpg,Tr75_21,Tristeza,21,Mauro anuncia la actividad.,Afirmación,Tr75,75,,,,,,,,,0,47,47,47,,,,,,,,,1,2.28848994382,4,0.550335801081,,,,,2018_may._30_1303,60.0392239866,Experimento Piloto1,001,130,
0.25,Stim\\02_078.jpg,Al78_28,Alegría,28,Antonio responde la pregunta.,Afirmación,Al78,78,,,,,,,,,0,48,48,48,,,,,,,,,1,2.72026096541,3,0.800066937092,,,,,2018_may._30_1303,60.0392239866,Experimento Piloto1,001,130,
2.5,Stim\\03_075.jpg,Tr75_23,Tristeza,23,Óscar consigue un nuevo departamento.,Afirmación,Tr75,75,,,,,,,,,0,49,49,49,,,,,,,,,1,1.88358390118,4,0.300371723987,,,,,2018_may._30_1303,60.0392239866,Experimento Piloto1,001,130,
0.25,Stim\\02_078.jpg,Al78_22,Alegría,22,Enrique corre todas las mañanas.,Afirmación,Al78,78,,,,,,,,,0,50,50,50,,,,,,,,,1,2.18649923469,3,0.250239411668,,,,,2018_may._30_1303,60.0392239866,Experimento Piloto1,001,130,
2.5,Stim\\03_028.jpg,Tr28_23,Tristeza,23,Óscar consigue un nuevo departamento.,Afirmación,Tr28,28,,,,,,,,,0,51,51,51,,,,,,,,,1,2.29784150189,4,0.350068945205,,,,,2018_may._30_1303,60.0392239866,Experimento Piloto1,001,130,
0.25,Stim\\02_028.jpg,Al28_19,Alegría,19,Armando acompaña a Rodrígo a la tienda.,Afirmación,Al28,28,,,,,,,,,0,52,52,52,,,,,,,,,1,4.94708979834,2,0.750062697743,,,,,2018_may._30_1303,60.0392239866,Experimento Piloto1,001,130,
0.25,Stim\\03_028.jpg,Tr28_28,Tristeza,28,Antonio responde la pregunta.,Afirmación,Tr28,28,,,,,,,,,0,53,53,53,,,,,,,,,1,1.68836097835,4,0.400264624639,,,,,2018_may._30_1303,60.0392239866,Experimento Piloto1,001,130,
2.5,Stim\\05_075.jpg,En75_16,Enojo,16,Valeria modifica algunas imágenes.,Afirmación,En75,75,,,,,,,,,0,54,54,54,,,,,,,,,1,1.83433605098,2,0.40032040555,,,,,2018_may._30_1303,60.0392239866,Experimento Piloto1,001,130,
0.25,Stim\\03_019.jpg,Tr19_28,Tristeza,28,Antonio responde la pregunta.,Afirmación,Tr19,19,,,,,,,,,0,55,55,55,,,,,,,,,1,2.20167744354,2,0.333760391984,,,,,2018_may._30_1303,60.0392239866,Experimento Piloto1,001,130,
2.5,Stim\\03_019.jpg,Tr19_24,Tristeza,24,Guadalupe comenta los resultados con los compañeros.,Afirmación,Tr19,19,,,,,,,,,0,56,56,56,,,,,,,,,1,2.13970619079,3,1.8831943273,,,,,2018_may._30_1303,60.0392239866,Experimento Piloto1,001,130,
0.25,Stim\\03_019.jpg,Tr19_30,Tristeza,30,Marisol toma 2 litros de agua cada día.,Afirmación,Tr19,19,,,,,,,,,0,57,57,57,,,,,,,,,1,1.46347064362,2,0.600315050582,,,,,2018_may._30_1303,60.0392239866,Experimento Piloto1,001,130,
0.25,Stim\\02_075.jpg,Al75_23,Alegría,23,Óscar consigue un nuevo departamento.,Afirmación,Al75,75,,,,,,,,,0,58,58,58,,,,,,,,,1,2.96473709341,3,0.350301886287,,,,,2018_may._30_1303,60.0392239866,Experimento Piloto1,001,130,
2.5,Stim\\02_078.jpg,Al78_22,Alegría,22,Enrique corre todas las mañanas.,Afirmación,Al78,78,,,,,,,,,0,59,59,59,,,,,,,,,1,2.45261389346,3,0.700229817351,,,,,2018_may._30_1303,60.0392239866,Experimento Piloto1,001,130,
2.5,Stim\\05_075.jpg,En75_20,Enojo,20,Karen analiza la idea.,Afirmación,En75,75,,,,,,,,,0,60,60,60,,,,,,,,,1,1.54281251813,2,0.350509837521,,,,,2018_may._30_1303,60.0392239866,Experimento Piloto1,001,130,
2.5,Stim\\03_028.jpg,Tr28_18,Tristeza,18,Sofía escucha la música.,Afirmación,Tr28,28,,,,,,,,,0,61,61,61,,,,,,,,,1,2.40752015922,4,0.500345395397,,,,,2018_may._30_1303,60.0392239866,Experimento Piloto1,001,130,
0.25,Stim\\02_028.jpg,Al28_22,Alegría,22,Enrique corre todas las mañanas.,Afirmación,Al28,28,,,,,,,,,0,62,62,62,,,,,,,,,1,1.88635911304,3,0.283735179012,,,,,2018_may._30_1303,60.0392239866,Experimento Piloto1,001,130,
2.5,Stim\\03_075.jpg,Tr75_29,Tristeza,29,Miriam mira la película.,Afirmación,Tr75,75,,,,,,,,,0,63,63,63,,,,,,,,,1,1.0914655207,4,0.283632988384,,,,,2018_may._30_1303,60.0392239866,Experimento Piloto1,001,130,
2.5,Stim\\05_075.jpg,En75_19,Enojo,19,Armando acompaña a Rodrígo a la tienda.,Afirmación,En75,75,,,,,,,,,0,64,64,64,,,,,,,,,1,2.2981275464,2,0.300386450148,,,,,2018_may._30_1303,60.0392239866,Experimento Piloto1,001,130,
0.25,Stim\\05_078.jpg,En78_27,Enojo,27,Claudia informa los avances en el reporte.,Afirmación,En78,78,,,,,,,,,0,65,65,65,,,,,,,,,1,3.16220776381,2,0.600206166245,,,,,2018_may._30_1303,60.0392239866,Experimento Piloto1,001,130,
0.25,Stim\\02_075.jpg,Al75_29,Alegría,29,Miriam mira la película.,Afirmación,Al75,75,,,,,,,,,0,66,66,66,,,,,,,,,1,1.62449585213,3,0.300434644854,,,,,2018_may._30_1303,60.0392239866,Experimento Piloto1,001,130,
2.5,Stim\\03_075.jpg,Tr75_19,Tristeza,19,Armando acompaña a Rodrígo a la tienda.,Afirmación,Tr75,75,,,,,,,,,0,67,67,67,,,,,,,,,1,1.53108380078,4,0.449962292104,,,,,2018_may._30_1303,60.0392239866,Experimento Piloto1,001,130,
2.5,Stim\\03_028.jpg,Tr28_22,Tristeza,22,Enrique corre todas las mañanas.,Afirmación,Tr28,28,,,,,,,,,0,68,68,68,,,,,,,,,1,4.20234547572,3,2.69970190681,,,,,2018_may._30_1303,60.0392239866,Experimento Piloto1,001,130,
0.25,Stim\\03_078.jpg,Tr78_25,Tristeza,25,Luis decide la comida siguiente.,Afirmación,Tr78,78,,,,,,,,,0,69,69,69,,,,,,,,,1,3.41672668693,3,0.700249452231,,,,,2018_may._30_1303,60.0392239866,Experimento Piloto1,001,130,
2.5,Stim\\02_028.jpg,Al28_19,Alegría,19,Armando acompaña a Rodrígo a la tienda.,Afirmación,Al28,28,,,,,,,,,0,70,70,70,,,,,,,,,1,5.847228135,3,0.33351450973,,,,,2018_may._30_1303,60.0392239866,Experimento Piloto1,001,130,
0.25,Stim\\02_075.jpg,Al75_25,Alegría,25,Luis decide la comida siguiente.,Afirmación,Al75,75,,,,,,,,,0,71,71,71,,,,,,,,,1,1.31745585499,3,0.300327991753,,,,,2018_may._30_1303,60.0392239866,Experimento Piloto1,001,130,
2.5,Stim\\02_019.jpg,Al19_24,Alegría,24,Guadalupe comenta los resultados con los compañeros.,Afirmación,Al19,19,,,,,,,,,0,72,72,72,,,,,,,,,1,2.38559201396,3,0.300351642859,,,,,2018_may._30_1303,60.0392239866,Experimento Piloto1,001,130,
0.25,Stim\\03_028.jpg,Tr28_23,Tristeza,23,Óscar consigue un nuevo departamento.,Afirmación,Tr28,28,,,,,,,,,0,73,73,73,,,,,,,,,1,1.73230027087,4,0.43364927641,,,,,2018_may._30_1303,60.0392239866,Experimento Piloto1,001,130,
0.25,Stim\\03_028.jpg,Tr28_25,Tristeza,25,Luis decide la comida siguiente.,Afirmación,Tr28,28,,,,,,,,,0,74,74,74,,,,,,,,,1,1.73532091873,4,0.400288721992,,,,,2018_may._30_1303,60.0392239866,Experimento Piloto1,001,130,
0.25,Stim\\05_019.jpg,En19_23,Enojo,23,Óscar consigue un nuevo departamento.,Afirmación,En19,19,,,,,,,,,0,75,75,75,,,,,,,,,1,2.5993761463,3,0.750378194573,,,,,2018_may._30_1303,60.0392239866,Experimento Piloto1,001,130,
2.5,Stim\\03_019.jpg,Tr19_26,Tristeza,26,Víctor trae el café a Marco.,Afirmación,Tr19,19,,,,,,,,,0,76,76,76,,,,,,,,,1,1.18831010616,3,1.4167066058,,,,,2018_may._30_1303,60.0392239866,Experimento Piloto1,001,130,
0.25,Stim\\05_028.jpg,En28_30,Enojo,30,Marisol toma 2 litros de agua cada día.,Afirmación,En28,28,,,,,,,,,0,77,77,77,,,,,,,,,1,1.16495977081,2,0.283866375713,,,,,2018_may._30_1303,60.0392239866,Experimento Piloto1,001,130,
2.5,Stim\\02_019.jpg,Al19_26,Alegría,26,Víctor trae el café a Marco.,Afirmación,Al19,19,,,,,,,,,0,78,78,78,,,,,,,,,1,1.85309896426,3,0.383956517665,,,,,2018_may._30_1303,60.0392239866,Experimento Piloto1,001,130,
0.25,Stim\\03_075.jpg,Tr75_27,Tristeza,27,Claudia informa los avances en el reporte.,Afirmación,Tr75,75,,,,,,,,,0,79,79,79,,,,,,,,,1,5.32857633729,3,0.233743434587,,,,,2018_may._30_1303,60.0392239866,Experimento Piloto1,001,130,
2.5,Stim\\02_078.jpg,Al78_27,Alegría,27,Claudia informa los avances en el reporte.,Afirmación,Al78,78,,,,,,,,,0,80,80,80,,,,,,,,,1,2.31655131174,3,0.250388904507,,,,,2018_may._30_1303,60.0392239866,Experimento Piloto1,001,130,
0.25,Stim\\02_019.jpg,Al19_26,Alegría,26,Víctor trae el café a Marco.,Afirmación,Al19,19,,,,,,,,,0,81,81,81,,,,,,,,,1,4.23755706387,2,1.11670080458,,,,,2018_may._30_1303,60.0392239866,Experimento Piloto1,001,130,
0.25,Stim\\03_019.jpg,Tr19_29,Tristeza,29,Miriam mira la película.,Afirmación,Tr19,19,,,,,,,,,0,82,82,82,,,,,,,,,1,1.22511970583,2,0.300273549585,,,,,2018_may._30_1303,60.0392239866,Experimento Piloto1,001,130,
2.5,Stim\\05_075.jpg,En75_27,Enojo,27,Claudia informa los avances en el reporte.,Afirmación,En75,75,,,,,,,,,0,83,83,83,,,,,,,,,1,0.746361522774,2,1.68324162952,,,,,2018_may._30_1303,60.0392239866,Experimento Piloto1,001,130,
0.25,Stim\\05_019.jpg,En19_25,Enojo,25,Luis decide la comida siguiente.,Afirmación,En19,19,,,,,,,,,0,84,84,84,,,,,,,,,1,1.53414639588,2,0.433768424435,,,,,2018_may._30_1303,60.0392239866,Experimento Piloto1,001,130,
2.5,Stim\\03_028.jpg,Tr28_20,Tristeza,20,Karen analiza la idea.,Afirmación,Tr28,28,,,,,,,,,0,85,85,85,,,,,,,,,1,1.90829752199,4,0.383639235846,,,,,2018_may._30_1303,60.0392239866,Experimento Piloto1,001,130,
2.5,Stim\\05_028.jpg,En28_26,Enojo,26,Víctor trae el café a Marco.,Afirmación,En28,28,,,,,,,,,0,86,86,86,,,,,,,,,1,1.03902521743,4,0.233838039011,,,,,2018_may._30_1303,60.0392239866,Experimento Piloto1,001,130,
0.25,Stim\\05_028.jpg,En28_21,Enojo,21,Mauro anuncia la actividad.,Afirmación,En28,28,,,,,,,,,0,87,87,87,,,,,,,,,1,1.53914391921,2,0.334135239701,,,,,2018_may._30_1303,60.0392239866,Experimento Piloto1,001,130,
0.25,Stim\\03_075.jpg,Tr75_22,Tristeza,22,Enrique corre todas las mañanas.,Afirmación,Tr75,75,,,,,,,,,0,88,88,88,,,,,,,,,1,2.25271251411,3,0.450283590149,,,,,2018_may._30_1303,60.0392239866,Experimento Piloto1,001,130,
0.25,Stim\\05_028.jpg,En28_27,Enojo,27,Claudia informa los avances en el reporte.,Afirmación,En28,28,,,,,,,,,0,89,89,89,,,,,,,,,1,3.77908751355,3,0.333328424613,,,,,2018_may._30_1303,60.0392239866,Experimento Piloto1,001,130,
2.5,Stim\\03_075.jpg,Tr75_22,Tristeza,22,Enrique corre todas las mañanas.,Afirmación,Tr75,75,,,,,,,,,0,90,90,90,,,,,,,,,1,3.73632809885,3,2.86618338086,,,,,2018_may._30_1303,60.0392239866,Experimento Piloto1,001,130,
0.25,Stim\\05_019.jpg,En19_28,Enojo,28,Antonio responde la pregunta.,Afirmación,En19,19,,,,,,,,,0,91,91,91,,,,,,,,,1,2.18654385941,2,0.350218438045,,,,,2018_may._30_1303,60.0392239866,Experimento Piloto1,001,130,
2.5,Stim\\03_019.jpg,Tr19_17,Tristeza,17,Brenda sube el autobús en las mañanas.,Afirmación,Tr19,19,,,,,,,,,0,92,92,92,,,,,,,,,1,1.2650682089,3,0.599979918872,,,,,2018_may._30_1303,60.0392239866,Experimento Piloto1,001,130,
0.25,Stim\\05_028.jpg,En28_29,Enojo,29,Miriam mira la película.,Afirmación,En28,28,,,,,,,,,0,93,93,93,,,,,,,,,1,1.4909483201,2,0.233738972114,,,,,2018_may._30_1303,60.0392239866,Experimento Piloto1,001,130,
0.25,Stim\\05_028.jpg,En28_18,Enojo,18,Sofía escucha la música.,Afirmación,En28,28,,,,,,,,,0,94,94,94,,,,,,,,,1,1.64028184978,2,0.233709073546,,,,,2018_may._30_1303,60.0392239866,Experimento Piloto1,001,130,
0.25,Stim\\05_028.jpg,En28_25,Enojo,25,Luis decide la comida siguiente.,Afirmación,En28,28,,,,,,,,,0,95,95,95,,,,,,,,,1,1.83471045245,2,0.250384442035,,,,,2018_may._30_1303,60.0392239866,Experimento Piloto1,001,130,
2.5,Stim\\03_075.jpg,Tr75_16,Tristeza,16,Valeria modifica algunas imágenes.,Afirmación,Tr75,75,,,,,,,,,0,96,96,96,,,,,,,,,1,1.88429700434,4,0.766792508401,,,,,2018_may._30_1303,60.0392239866,Experimento Piloto1,001,130,
2.5,Stim\\05_019.jpg,En19_18,Enojo,18,Sofía escucha la música.,Afirmación,En19,19,,,,,,,,,0,97,97,97,,,,,,,,,1,0.973961024762,2,0.283782481225,,,,,2018_may._30_1303,60.0392239866,Experimento Piloto1,001,130,
0.25,Stim\\05_075.jpg,En75_28,Enojo,28,Antonio responde la pregunta.,Afirmación,En75,75,,,,,,,,,0,98,98,98,,,,,,,,,1,1.17204216144,2,0.250371500863,,,,,2018_may._30_1303,60.0392239866,Experimento Piloto1,001,130,
0.25,Stim\\03_019.jpg,Tr19_24,Tristeza,24,Guadalupe comenta los resultados con los compañeros.,Afirmación,Tr19,19,,,,,,,,,0,99,99,99,,,,,,,,,1,2.48951809756,3,0.283725361572,,,,,2018_may._30_1303,60.0392239866,Experimento Piloto1,001,130,
0.25,Stim\\02_075.jpg,Al75_21,Alegría,21,Mauro anuncia la actividad.,Afirmación,Al75,75,,,,,,,,,0,100,100,100,,,,,,,,,1,1.93813897033,3,0.25017158208,,,,,2018_may._30_1303,60.0392239866,Experimento Piloto1,001,130,
0.25,Stim\\03_019.jpg,Tr19_23,Tristeza,23,Óscar consigue un nuevo departamento.,Afirmación,Tr19,19,,,,,,,,,0,101,101,101,,,,,,,,,1,2.08199258337,4,4.54894574079,,,,,2018_may._30_1303,60.0392239866,Experimento Piloto1,001,130,
2.5,Stim\\05_028.jpg,En28_30,Enojo,30,Marisol toma 2 litros de agua cada día.,Afirmación,En28,28,,,,,,,,,0,102,102,102,,,,,,,,,1,1.23061434864,2,0.333975036927,,,,,2018_may._30_1303,60.0392239866,Experimento Piloto1,001,130,
0.25,Stim\\02_078.jpg,Al78_19,Alegría,19,Armando acompaña a Rodrígo a la tienda.,Afirmación,Al78,78,,,,,,,,,0,103,103,103,,,,,,,,,1,1.26481384795,3,0.450260831537,,,,,2018_may._30_1303,60.0392239866,Experimento Piloto1,001,130,
2.5,Stim\\03_075.jpg,Tr75_25,Tristeza,25,Luis decide la comida siguiente.,Afirmación,Tr75,75,,,,,,,,,0,104,104,104,,,,,,,,,1,3.63538651708,4,0.550278681429,,,,,2018_may._30_1303,60.0392239866,Experimento Piloto1,001,130,
2.5,Stim\\03_028.jpg,Tr28_29,Tristeza,29,Miriam mira la película.,Afirmación,Tr28,28,,,,,,,,,0,105,105,105,,,,,,,,,1,3.59078900982,4,0.500180283902,,,,,2018_may._30_1303,60.0392239866,Experimento Piloto1,001,130,
0.25,Stim\\03_028.jpg,Tr28_24,Tristeza,24,Guadalupe comenta los resultados con los compañeros.,Afirmación,Tr28,28,,,,,,,,,0,106,106,106,,,,,,,,,1,1.62329901692,4,0.334438687854,,,,,2018_may._30_1303,60.0392239866,Experimento Piloto1,001,130,
0.25,Stim\\02_075.jpg,Al75_30,Alegría,30,Marisol toma 2 litros de agua cada día.,Afirmación,Al75,75,,,,,,,,,0,107,107,107,,,,,,,,,1,2.1989325765,4,0.283693678015,,,,,2018_may._30_1303,60.0392239866,Experimento Piloto1,001,130,
2.5,Stim\\05_019.jpg,En19_27,Enojo,27,Claudia informa los avances en el reporte.,Afirmación,En19,19,,,,,,,,,0,108,108,108,,,,,,,,,1,2.04618257761,2,0.350332231103,,,,,2018_may._30_1303,60.0392239866,Experimento Piloto1,001,130,
2.5,Stim\\05_075.jpg,En75_18,Enojo,18,Sofía escucha la música.,Afirmación,En75,75,,,,,,,,,0,109,109,109,,,,,,,,,1,1.42392420936,2,2.49969119688,,,,,2018_may._30_1303,60.0392239866,Experimento Piloto1,001,130,
2.5,Stim\\02_028.jpg,Al28_23,Alegría,23,Óscar consigue un nuevo departamento.,Afirmación,Al28,28,,,,,,,,,0,110,110,110,,,,,,,,,1,5.01535224529,3,0.400295861949,,,,,2018_may._30_1303,60.0392239866,Experimento Piloto1,001,130,
2.5,Stim\\05_078.jpg,En78_29,Enojo,29,Miriam mira la película.,Afirmación,En78,78,,,,,,,,,0,111,111,111,,,,,,,,,1,4.256960342,3,0.300305233142,,,,,2018_may._30_1303,60.0392239866,Experimento Piloto1,001,130,
0.25,Stim\\03_078.jpg,Tr78_20,Tristeza,20,Karen analiza la idea.,Afirmación,Tr78,78,,,,,,,,,0,112,112,112,,,,,,,,,1,2.75898407343,4,0.550343833532,,,,,2018_may._30_1303,60.0392239866,Experimento Piloto1,001,130,
0.25,Stim\\02_019.jpg,Al19_25,Alegría,25,Luis decide la comida siguiente.,Afirmación,Al19,19,,,,,,,,,0,113,113,113,,,,,,,,,1,2.64899081177,3,0.300372616482,,,,,2018_may._30_1303,60.0392239866,Experimento Piloto1,001,130,
2.5,Stim\\03_078.jpg,Tr78_16,Tristeza,16,Valeria modifica algunas imágenes.,Afirmación,Tr78,78,,,,,,,,,0,114,114,114,,,,,,,,,1,1.36770240661,4,0.350310811233,,,,,2018_may._30_1303,60.0392239866,Experimento Piloto1,001,130,
0.25,Stim\\02_028.jpg,Al28_21,Alegría,21,Mauro anuncia la actividad.,Afirmación,Al28,28,,,,,,,,,0,115,115,115,,,,,,,,,1,5.12104055942,3,0.450310811233,,,,,2018_may._30_1303,60.0392239866,Experimento Piloto1,001,130,
2.5,Stim\\05_019.jpg,En19_30,Enojo,30,Marisol toma 2 litros de agua cada día.,Afirmación,En19,19,,,,,,,,,0,116,116,116,,,,,,,,,1,1.73186651851,2,0.333587694285,,,,,2018_may._30_1303,60.0392239866,Experimento Piloto1,001,130,
0.25,Stim\\05_078.jpg,En78_26,Enojo,26,Víctor trae el café a Marco.,Afirmación,En78,78,,,,,,,,,0,117,117,117,,,,,,,,,1,1.02141808462,2,0.200474360862,,,,,2018_may._30_1303,60.0392239866,Experimento Piloto1,001,130,
0.25,Stim\\02_078.jpg,Al78_21,Alegría,21,Mauro anuncia la actividad.,Afirmación,Al78,78,,,,,,,,,0,118,118,118,,,,,,,,,1,1.42250246552,3,0.183871284433,,,,,2018_may._30_1303,60.0392239866,Experimento Piloto1,001,130,
0.25,Stim\\03_075.jpg,Tr75_30,Tristeza,30,Marisol toma 2 litros de agua cada día.,Afirmación,Tr75,75,,,,,,,,,0,119,119,119,,,,,,,,,1,3.23056481519,4,0.183667795672,,,,,2018_may._30_1303,60.0392239866,Experimento Piloto1,001,130,
2.5,Stim\\03_019.jpg,Tr19_16,Tristeza,16,Valeria modifica algunas imágenes.,Afirmación,Tr19,19,,,,,,,,,,,,,0,0,0,0,,,,,,,,,1,1.61754912067,2,0.233873738794,2018_may._30_1303,60.0392239866,Experimento Piloto1,001,130,
2.5,Stim\\05_078.jpg,En78_19,Enojo,19,Armando acompaña a Rodrígo a la tienda.,Afirmación,En78,78,,,,,,,,,,,,,0,1,1,1,,,,,,,,,1,3.68153205617,2,0.250433975483,2018_may._30_1303,60.0392239866,Experimento Piloto1,001,130,
2.5,Stim\\02_075.jpg,Al75_21,Alegría,21,Mauro anuncia la actividad.,Afirmación,Al75,75,,,,,,,,,,,,,0,2,2,2,,,,,,,,,1,3.17126792241,3,0.200457849713,2018_may._30_1303,60.0392239866,Experimento Piloto1,001,130,
0.25,Stim\\02_075.jpg,Al75_16,Alegría,16,Valeria modifica algunas imágenes.,Afirmación,Al75,75,,,,,,,,,,,,,0,3,3,3,,,,,,,,,1,1.4176504188,3,0.233863028859,2018_may._30_1303,60.0392239866,Experimento Piloto1,001,130,
0.25,Stim\\05_078.jpg,En78_30,Enojo,30,Marisol toma 2 litros de agua cada día.,Afirmación,En78,78,,,,,,,,,,,,,0,4,4,4,,,,,,,,,1,1.01476587636,2,0.20040742377,2018_may._30_1303,60.0392239866,Experimento Piloto1,001,130,
0.25,Stim\\02_019.jpg,Al19_22,Alegría,22,Enrique corre todas las mañanas.,Afirmación,Al19,19,,,,,,,,,,,,,0,5,5,5,,,,,,,,,1,1.93621073582,3,0.283710189164,2018_may._30_1303,60.0392239866,Experimento Piloto1,001,130,
2.5,Stim\\05_028.jpg,En28_23,Enojo,23,Óscar consigue un nuevo departamento.,Afirmación,En28,28,,,,,,,,,,,,,0,6,6,6,,,,,,,,,1,1.43338599051,2,1.01680656519,2018_may._30_1303,60.0392239866,Experimento Piloto1,001,130,
0.25,Stim\\03_019.jpg,Tr19_16,Tristeza,16,Valeria modifica algunas imágenes.,Afirmación,Tr19,19,,,,,,,,,,,,,0,7,7,7,,,,,,,,,1,2.74787340857,3,0.350258600301,2018_may._30_1303,60.0392239866,Experimento Piloto1,001,130,
0.25,Stim\\02_078.jpg,Al78_17,Alegría,17,Brenda sube el autobús en las mañanas.,Afirmación,Al78,78,,,,,,,,,,,,,0,8,8,8,,,,,,,,,1,2.076426541,3,0.233327085871,2018_may._30_1303,60.0392239866,Experimento Piloto1,001,130,
0.25,Stim\\02_078.jpg,Al78_16,Alegría,16,Valeria modifica algunas imágenes.,Afirmación,Al78,78,,,,,,,,,,,,,0,9,9,9,,,,,,,,,1,1.48089927753,3,0.233739418361,2018_may._30_1303,60.0392239866,Experimento Piloto1,001,130,
0.25,Stim\\05_075.jpg,En75_22,Enojo,22,Enrique corre todas las mañanas.,Afirmación,En75,75,,,,,,,,,,,,,0,10,10,10,,,,,,,,,1,1.12007711153,2,0.350424158043,2018_may._30_1303,60.0392239866,Experimento Piloto1,001,130,
0.25,Stim\\02_028.jpg,Al28_26,Alegría,26,Víctor trae el café a Marco.,Afirmación,Al28,28,,,,,,,,,,,,,0,11,11,11,,,,,,,,,1,2.138726678,3,0.250457626589,2018_may._30_1303,60.0392239866,Experimento Piloto1,001,130,
2.5,Stim\\03_075.jpg,Tr75_28,Tristeza,28,Antonio responde la pregunta.,Afirmación,Tr75,75,,,,,,,,,,,,,0,12,12,12,,,,,,,,,1,2.6036721689,4,0.500394928846,2018_may._30_1303,60.0392239866,Experimento Piloto1,001,130,
0.25,Stim\\05_075.jpg,En75_23,Enojo,23,Óscar consigue un nuevo departamento.,Afirmación,En75,75,,,,,,,,,,,,,0,13,13,13,,,,,,,,,1,1.93215122428,4,0.299897809372,2018_may._30_1303,60.0392239866,Experimento Piloto1,001,130,
2.5,Stim\\02_078.jpg,Al78_28,Alegría,28,Antonio responde la pregunta.,Afirmación,Al78,78,,,,,,,,,,,,,0,14,14,14,,,,,,,,,1,3.95349612434,3,0.633656416367,2018_may._30_1303,60.0392239866,Experimento Piloto1,001,130,
2.5,Stim\\02_028.jpg,Al28_18,Alegría,18,Sofía escucha la música.,Afirmación,Al28,28,,,,,,,,,,,,,0,15,15,15,,,,,,,,,1,1.65808979388,3,0.233837146516,2018_may._30_1303,60.0392239866,Experimento Piloto1,001,130,
2.5,Stim\\02_019.jpg,Al19_22,Alegría,22,Enrique corre todas las mañanas.,Afirmación,Al19,19,,,,,,,,,,,,,0,16,16,16,,,,,,,,,1,3.06981047878,3,0.750262170279,2018_may._30_1303,60.0392239866,Experimento Piloto1,001,130,
2.5,Stim\\05_028.jpg,En28_28,Enojo,28,Antonio responde la pregunta.,Afirmación,En28,28,,,,,,,,,,,,,0,17,17,17,,,,,,,,,1,1.33817422386,2,0.300339147936,2018_may._30_1303,60.0392239866,Experimento Piloto1,001,130,
0.25,Stim\\03_078.jpg,Tr78_30,Tristeza,30,Marisol toma 2 litros de agua cada día.,Afirmación,Tr78,78,,,,,,,,,,,,,0,18,18,18,,,,,,,,,1,1.46480224552,2,0.3003614603,2018_may._30_1303,60.0392239866,Experimento Piloto1,001,130,
0.25,Stim\\03_019.jpg,Tr19_20,Tristeza,20,Karen analiza la idea.,Afirmación,Tr19,19,,,,,,,,,,,,,0,19,19,19,,,,,,,,,1,2.40470166138,3,0.283823982221,2018_may._30_1303,60.0392239866,Experimento Piloto1,001,130,
0.25,Stim\\05_028.jpg,En28_19,Enojo,19,Armando acompaña a Rodrígo a la tienda.,Afirmación,En28,28,,,,,,,,,,,,,0,20,20,20,,,,,,,,,1,3.73093073796,2,0.283704834197,2018_may._30_1303,60.0392239866,Experimento Piloto1,001,130,
0.25,Stim\\05_019.jpg,En19_26,Enojo,26,Víctor trae el café a Marco.,Afirmación,En19,19,,,,,,,,,,,,,0,21,21,21,,,,,,,,,1,1.02200980852,2,0.200071399565,2018_may._30_1303,60.0392239866,Experimento Piloto1,001,130,
0.25,Stim\\02_028.jpg,Al28_16,Alegría,16,Valeria modifica algunas imágenes.,Afirmación,Al28,28,,,,,,,,,,,,,0,22,22,22,,,,,,,,,1,1.46799425233,3,0.233730047169,2018_may._30_1303,60.0392239866,Experimento Piloto1,001,130,
2.5,Stim\\02_075.jpg,Al75_17,Alegría,17,Brenda sube el autobús en las mañanas.,Afirmación,Al75,75,,,,,,,,,,,,,0,23,23,23,,,,,,,,,1,1.53161037257,3,0.450263062774,2018_may._30_1303,60.0392239866,Experimento Piloto1,001,130,
2.5,Stim\\05_075.jpg,En75_30,Enojo,30,Marisol toma 2 litros de agua cada día.,Afirmación,En75,75,,,,,,,,,,,,,0,24,24,24,,,,,,,,,1,0.765581393273,2,0.233796984261,2018_may._30_1303,60.0392239866,Experimento Piloto1,001,130,
2.5,Stim\\03_075.jpg,Tr75_27,Tristeza,27,Claudia informa los avances en el reporte.,Afirmación,Tr75,75,,,,,,,,,,,,,0,25,25,25,,,,,,,,,1,1.9968713603,4,0.850321521168,2018_may._30_1303,60.0392239866,Experimento Piloto1,001,130,
2.5,Stim\\03_028.jpg,Tr28_24,Tristeza,24,Guadalupe comenta los resultados con los compañeros.,Afirmación,Tr28,28,,,,,,,,,,,,,0,26,26,26,,,,,,,,,1,2.18543047244,4,2.19977330638,2018_may._30_1303,60.0392239866,Experimento Piloto1,001,130,
0.25,Stim\\05_028.jpg,En28_24,Enojo,24,Guadalupe comenta los resultados con los compañeros.,Afirmación,En28,28,,,,,,,,,,,,,0,27,27,27,,,,,,,,,1,4.81568648451,3,0.550225578002,2018_may._30_1303,60.0392239866,Experimento Piloto1,001,130,
0.25,Stim\\03_028.jpg,Tr28_17,Tristeza,17,Brenda sube el autobús en las mañanas.,Afirmación,Tr28,28,,,,,,,,,,,,,0,28,28,28,,,,,,,,,1,1.73158716771,4,0.700820202507,2018_may._30_1303,60.0392239866,Experimento Piloto1,001,130,
0.25,Stim\\02_028.jpg,Al28_28,Alegría,28,Antonio responde la pregunta.,Afirmación,Al28,28,,,,,,,,,,,,,0,29,29,29,,,,,,,,,1,1.12131901772,3,0.350524117435,2018_may._30_1303,60.0392239866,Experimento Piloto1,001,130,
2.5,Stim\\02_028.jpg,Al28_24,Alegría,24,Guadalupe comenta los resultados con los compañeros.,Afirmación,Al28,28,,,,,,,,,,,,,0,30,30,30,,,,,,,,,1,3.6725995243,3,0.700208843729,2018_may._30_1303,60.0392239866,Experimento Piloto1,001,130,
0.25,Stim\\02_078.jpg,Al78_29,Alegría,29,Miriam mira la película.,Afirmación,Al78,78,,,,,,,,,,,,,0,31,31,31,,,,,,,,,1,2.1895770022,3,0.200430628629,2018_may._30_1303,60.0392239866,Experimento Piloto1,001,130,
0.25,Stim\\05_078.jpg,En78_19,Enojo,19,Armando acompaña a Rodrígo a la tienda.,Afirmación,En78,78,,,,,,,,,,,,,0,32,32,32,,,,,,,,,1,1.16525429401,2,0.28374053398,2018_may._30_1303,60.0392239866,Experimento Piloto1,001,130,
0.25,Stim\\03_019.jpg,Tr19_21,Tristeza,21,Mauro anuncia la actividad.,Afirmación,Tr19,19,,,,,,,,,,,,,0,33,33,33,,,,,,,,,1,3.63811219549,2,2.29941452356,2018_may._30_1303,60.0392239866,Experimento Piloto1,001,130,
0.25,Stim\\02_028.jpg,Al28_25,Alegría,25,Luis decide la comida siguiente.,Afirmación,Al28,28,,,,,,,,,,,,,0,34,34,34,,,,,,,,,1,1.56868727437,3,0.300240973533,2018_may._30_1303,60.0392239866,Experimento Piloto1,001,130,
2.5,Stim\\03_078.jpg,Tr78_26,Tristeza,26,Víctor trae el café a Marco.,Afirmación,Tr78,78,,,,,,,,,,,,,0,35,35,35,,,,,,,,,1,1.31782981021,3,0.500292291971,2018_may._30_1303,60.0392239866,Experimento Piloto1,001,130,
2.5,Stim\\05_078.jpg,En78_20,Enojo,20,Karen analiza la idea.,Afirmación,En78,78,,,,,,,,,,,,,0,36,36,36,,,,,,,,,1,0.875381429866,2,0.350304563771,2018_may._30_1303,60.0392239866,Experimento Piloto1,001,130,
2.5,Stim\\02_078.jpg,Al78_23,Alegría,23,Óscar consigue un nuevo departamento.,Afirmación,Al78,78,,,,,,,,,,,,,0,37,37,37,,,,,,,,,1,2.39873042648,3,0.333833130291,2018_may._30_1303,60.0392239866,Experimento Piloto1,001,130,
0.25,Stim\\03_078.jpg,Tr78_21,Tristeza,21,Mauro anuncia la actividad.,Afirmación,Tr78,78,,,,,,,,,,,,,0,38,38,38,,,,,,,,,1,2.77280569055,4,0.349913651151,2018_may._30_1303,60.0392239866,Experimento Piloto1,001,130,
2.5,Stim\\03_075.jpg,Tr75_18,Tristeza,18,Sofía escucha la música.,Afirmación,Tr75,75,,,,,,,,,,,,,0,39,39,39,,,,,,,,,1,2.35692017975,4,3.16594463856,2018_may._30_1303,60.0392239866,Experimento Piloto1,001,130,
2.5,Stim\\03_019.jpg,Tr19_19,Tristeza,19,Armando acompaña a Rodrígo a la tienda.,Afirmación,Tr19,19,,,,,,,,,,,,,0,40,40,40,,,,,,,,,1,2.74736022419,3,0.450322859909,2018_may._30_1303,60.0392239866,Experimento Piloto1,001,130,
0.25,Stim\\03_019.jpg,Tr19_17,Tristeza,17,Brenda sube el autobús en las mañanas.,Afirmación,Tr19,19,,,,,,,,,,,,,0,41,41,41,,,,,,,,,1,1.48251112271,3,0.233627410293,2018_may._30_1303,60.0392239866,Experimento Piloto1,001,130,
2.5,Stim\\05_078.jpg,En78_18,Enojo,18,Sofía escucha la música.,Afirmación,En78,78,,,,,,,,,,,,,0,42,42,42,,,,,,,,,1,3.74069730601,2,1.01681281265,2018_may._30_1303,60.0392239866,Experimento Piloto1,001,130,
0.25,Stim\\05_019.jpg,En19_24,Enojo,24,Guadalupe comenta los resultados con los compañeros.,Afirmación,En19,19,,,,,,,,,,,,,0,43,43,43,,,,,,,,,1,1.40654466266,2,0.25040496941,2018_may._30_1303,60.0392239866,Experimento Piloto1,001,130,
0.25,Stim\\02_075.jpg,Al75_20,Alegría,20,Karen analiza la idea.,Afirmación,Al75,75,,,,,,,,,,,,,0,44,44,44,,,,,,,,,1,1.22567439121,3,0.283632542137,2018_may._30_1303,60.0392239866,Experimento Piloto1,001,130,
0.25,Stim\\03_075.jpg,Tr75_23,Tristeza,23,Óscar consigue un nuevo departamento.,Afirmación,Tr75,75,,,,,,,,,,,,,0,45,45,45,,,,,,,,,1,1.33022120478,4,0.332994631645,2018_may._30_1303,60.0392239866,Experimento Piloto1,001,130,
0.25,Stim\\05_078.jpg,En78_16,Enojo,16,Valeria modifica algunas imágenes.,Afirmación,En78,78,,,,,,,,,,,,,0,46,46,46,,,,,,,,,1,2.55095385357,2,0.400343164161,2018_may._30_1303,60.0392239866,Experimento Piloto1,001,130,
2.5,Stim\\02_019.jpg,Al19_20,Alegría,20,Karen analiza la idea.,Afirmación,Al19,19,,,,,,,,,,,,,0,47,47,47,,,,,,,,,1,1.89208758942,3,0.300423042425,2018_may._30_1303,60.0392239866,Experimento Piloto1,001,130,
0.25,Stim\\03_075.jpg,Tr75_28,Tristeza,28,Antonio responde la pregunta.,Afirmación,Tr75,75,,,,,,,,,,,,,0,48,48,48,,,,,,,,,1,4.30291220977,4,1.86658500341,2018_may._30_1303,60.0392239866,Experimento Piloto1,001,130,
0.25,Stim\\05_078.jpg,En78_25,Enojo,25,Luis decide la comida siguiente.,Afirmación,En78,78,,,,,,,,,,,,,0,49,49,49,,,,,,,,,1,1.33550388012,2,0.333548424524,2018_may._30_1303,60.0392239866,Experimento Piloto1,001,130,
2.5,Stim\\03_019.jpg,Tr19_23,Tristeza,23,Óscar consigue un nuevo departamento.,Afirmación,Tr19,19,,,,,,,,,,,,,0,50,50,50,,,,,,,,,1,2.14722099504,3,0.45026038529,2018_may._30_1303,60.0392239866,Experimento Piloto1,001,130,
2.5,Stim\\03_075.jpg,Tr75_24,Tristeza,24,Guadalupe comenta los resultados con los compañeros.,Afirmación,Tr75,75,,,,,,,,,,,,,0,51,51,51,,,,,,,,,1,2.85584650878,3,0.283667349425,2018_may._30_1303,60.0392239866,Experimento Piloto1,001,130,
0.25,Stim\\02_078.jpg,Al78_20,Alegría,20,Karen analiza la idea.,Afirmación,Al78,78,,,,,,,,,,,,,0,52,52,52,,,,,,,,,1,2.55830577756,3,0.300349857871,2018_may._30_1303,60.0392239866,Experimento Piloto1,001,130,
2.5,Stim\\02_078.jpg,Al78_30,Alegría,30,Marisol toma 2 litros de agua cada día.,Afirmación,Al78,78,,,,,,,,,,,,,0,53,53,53,,,,,,,,,1,0.915730216742,3,0.183741426474,2018_may._30_1303,60.0392239866,Experimento Piloto1,001,130,
2.5,Stim\\03_028.jpg,Tr28_27,Tristeza,27,Claudia informa los avances en el reporte.,Afirmación,Tr28,28,,,,,,,,,,,,,0,54,54,54,,,,,,,,,1,2.19637557956,4,1.73321641655,2018_may._30_1303,60.0392239866,Experimento Piloto1,001,130,
2.5,Stim\\02_075.jpg,Al75_28,Alegría,28,Antonio responde la pregunta.,Afirmación,Al75,75,,,,,,,,,,,,,0,55,55,55,,,,,,,,,1,0.971312547135,3,0.13373629463,2018_may._30_1303,60.0392239866,Experimento Piloto1,001,130,
2.5,Stim\\03_078.jpg,Tr78_28,Tristeza,28,Antonio responde la pregunta.,Afirmación,Tr78,78,,,,,,,,,,,,,0,56,56,56,,,,,,,,,1,5.49875407758,2,3.73257962167,2018_may._30_1303,60.0392239866,Experimento Piloto1,001,130,
0.25,Stim\\03_028.jpg,Tr28_19,Tristeza,19,Armando acompaña a Rodrígo a la tienda.,Afirmación,Tr28,28,,,,,,,,,,,,,0,57,57,57,,,,,,,,,1,1.01425492322,4,0.700201257525,2018_may._30_1303,60.0392239866,Experimento Piloto1,001,130,
2.5,Stim\\05_078.jpg,En78_21,Enojo,21,Mauro anuncia la actividad.,Afirmación,En78,78,,,,,,,,,,,,,0,58,58,58,,,,,,,,,1,0.970553926753,3,0.800083448242,2018_may._30_1303,60.0392239866,Experimento Piloto1,001,130,
0.25,Stim\\05_028.jpg,En28_17,Enojo,17,Brenda sube el autobús en las mañanas.,Afirmación,En28,28,,,,,,,,,,,,,0,59,59,59,,,,,,,,,1,1.98220365834,2,0.30038109518,2018_may._30_1303,60.0392239866,Experimento Piloto1,001,130,
0.25,Stim\\03_075.jpg,Tr75_20,Tristeza,20,Karen analiza la idea.,Afirmación,Tr75,75,,,,,,,,,,,,,0,60,60,60,,,,,,,,,1,1.27557376244,2,0.300030791062,2018_may._30_1303,60.0392239866,Experimento Piloto1,001,130,
2.5,Stim\\03_078.jpg,Tr78_21,Tristeza,21,Mauro anuncia la actividad.,Afirmación,Tr78,78,,,,,,,,,,,,,0,61,61,61,,,,,,,,,1,0.972615142955,4,0.383723576583,2018_may._30_1303,60.0392239866,Experimento Piloto1,001,130,
0.25,Stim\\05_075.jpg,En75_17,Enojo,17,Brenda sube el autobús en las mañanas.,Afirmación,En75,75,,,,,,,,,,,,,0,62,62,62,,,,,,,,,1,1.53189775582,2,0.283798992374,2018_may._30_1303,60.0392239866,Experimento Piloto1,001,130,
0.25,Stim\\03_019.jpg,Tr19_26,Tristeza,26,Víctor trae el café a Marco.,Afirmación,Tr19,19,,,,,,,,,,,,,0,63,63,63,,,,,,,,,1,1.17179717168,2,0.300319513055,2018_may._30_1303,60.0392239866,Experimento Piloto1,001,130,
0.25,Stim\\05_019.jpg,En19_30,Enojo,30,Marisol toma 2 litros de agua cada día.,Afirmación,En19,19,,,,,,,,,,,,,0,64,64,64,,,,,,,,,1,1.01524782343,2,0.283719560357,2018_may._30_1303,60.0392239866,Experimento Piloto1,001,130,
0.25,Stim\\02_019.jpg,Al19_27,Alegría,27,Claudia informa los avances en el reporte.,Afirmación,Al19,19,,,,,,,,,,,,,0,65,65,65,,,,,,,,,1,1.99663931171,3,1.05004663284,2018_may._30_1303,60.0392239866,Experimento Piloto1,001,130,
0.25,Stim\\05_028.jpg,En28_23,Enojo,23,Óscar consigue un nuevo departamento.,Afirmación,En28,28,,,,,,,,,,,,,0,66,66,66,,,,,,,,,1,1.06691924263,2,0.400251237221,2018_may._30_1303,60.0392239866,Experimento Piloto1,001,130,
0.25,Stim\\05_019.jpg,En19_18,Enojo,18,Sofía escucha la música.,Afirmación,En19,19,,,,,,,,,,,,,0,67,67,67,,,,,,,,,1,1.12470291087,2,0.2838520958,2018_may._30_1303,60.0392239866,Experimento Piloto1,001,130,
0.25,Stim\\05_075.jpg,En75_25,Enojo,25,Luis decide la comida siguiente.,Afirmación,En75,75,,,,,,,,,,,,,0,68,68,68,,,,,,,,,1,0.716363441637,2,0.283744996453,2018_may._30_1303,60.0392239866,Experimento Piloto1,001,130,
0.25,Stim\\03_078.jpg,Tr78_16,Tristeza,16,Valeria modifica algunas imágenes.,Afirmación,Tr78,78,,,,,,,,,,,,,0,69,69,69,,,,,,,,,1,2.55032419865,4,2.0832612644,2018_may._30_1303,60.0392239866,Experimento Piloto1,001,130,
0.25,Stim\\05_019.jpg,En19_27,Enojo,27,Claudia informa los avances en el reporte.,Afirmación,En19,19,,,,,,,,,,,,,0,70,70,70,,,,,,,,,1,1.37941773654,2,0.33369523988,2018_may._30_1303,60.0392239866,Experimento Piloto1,001,130,
0.25,Stim\\05_075.jpg,En75_30,Enojo,30,Marisol toma 2 litros de agua cada día.,Afirmación,En75,75,,,,,,,,,,,,,0,71,71,71,,,,,,,,,1,0.815595003815,2,0.33372647719,2018_may._30_1303,60.0392239866,Experimento Piloto1,001,130,
2.5,Stim\\02_028.jpg,Al28_16,Alegría,16,Valeria modifica algunas imágenes.,Afirmación,Al28,28,,,,,,,,,,,,,0,72,72,72,,,,,,,,,1,1.23512769366,3,0.600317728066,2018_may._30_1303,60.0392239866,Experimento Piloto1,001,130,
0.25,Stim\\05_075.jpg,En75_29,Enojo,29,Miriam mira la película.,Afirmación,En75,75,,,,,,,,,,,,,0,73,73,73,,,,,,,,,1,0.857654702777,2,0.816935084407,2018_may._30_1303,60.0392239866,Experimento Piloto1,001,130,
2.5,Stim\\02_028.jpg,Al28_28,Alegría,28,Antonio responde la pregunta.,Afirmación,Al28,28,,,,,,,,,,,,,0,74,74,74,,,,,,,,,1,2.45490046454,3,1.41668830966,2018_may._30_1303,60.0392239866,Experimento Piloto1,001,130,
2.5,Stim\\03_019.jpg,Tr19_28,Tristeza,28,Antonio responde la pregunta.,Afirmación,Tr19,19,,,,,,,,,,,,,0,75,75,75,,,,,,,,,1,1.81621751878,3,0.850223346765,2018_may._30_1303,60.0392239866,Experimento Piloto1,001,130,
0.25,Stim\\02_028.jpg,Tr28_30,Tristeza,30,Marisol toma 2 litros de agua cada día.,Afirmación,Tr28,28,,,,,,,,,,,,,0,76,76,76,,,,,,,,,1,1.2151286754,3,0.283761953849,2018_may._30_1303,60.0392239866,Experimento Piloto1,001,130,
2.5,Stim\\02_075.jpg,Al75_27,Alegría,27,Claudia informa los avances en el reporte.,Afirmación,Al75,75,,,,,,,,,,,,,0,77,77,77,,,,,,,,,1,1.529857067,3,0.300436429843,2018_may._30_1303,60.0392239866,Experimento Piloto1,001,130,
2.5,Stim\\02_075.jpg,Al75_20,Alegría,20,Karen analiza la idea.,Afirmación,Al75,75,,,,,,,,,,,,,0,78,78,78,,,,,,,,,1,1.02539057793,3,0.300345395397,2018_may._30_1303,60.0392239866,Experimento Piloto1,001,130,
2.5,Stim\\05_019.jpg,En19_28,Enojo,28,Antonio responde la pregunta.,Afirmación,En19,19,,,,,,,,,,,,,0,79,79,79,,,,,,,,,1,1.27179583294,2,0.350383103293,2018_may._30_1303,60.0392239866,Experimento Piloto1,001,130,
2.5,Stim\\02_078.jpg,Al78_21,Alegría,21,Mauro anuncia la actividad.,Afirmación,Al78,78,,,,,,,,,,,,,0,80,80,80,,,,,,,,,1,0.606304135374,3,0.700396713835,2018_may._30_1303,60.0392239866,Experimento Piloto1,001,130,
2.5,Stim\\03_078.jpg,Tr78_19,Tristeza,19,Armando acompaña a Rodrígo a la tienda.,Afirmación,Tr78,78,,,,,,,,,,,,,0,81,81,81,,,,,,,,,1,1.84782298263,4,0.750210851841,2018_may._30_1303,60.0392239866,Experimento Piloto1,001,130,
2.5,Stim\\05_075.jpg,En75_22,Enojo,22,Enrique corre todas las mañanas.,Afirmación,En75,75,,,,,,,,,,,,,0,82,82,82,,,,,,,,,1,1.68640106028,4,2.79975991896,2018_may._30_1303,60.0392239866,Experimento Piloto1,001,130,
0.25,Stim\\03_019.jpg,Tr19_19,Tristeza,19,Armando acompaña a Rodrígo a la tienda.,Afirmación,Tr19,19,,,,,,,,,,,,,0,83,83,83,,,,,,,,,1,1.78179489582,2,0.350263509021,2018_may._30_1303,60.0392239866,Experimento Piloto1,001,130,
2.5,Stim\\03_019.jpg,Tr19_27,Tristeza,27,Claudia informa los avances en el reporte.,Afirmación,Tr19,19,,,,,,,,,,,,,0,84,84,84,,,,,,,,,1,1.63041844608,3,0.55039515197,2018_may._30_1303,60.0392239866,Experimento Piloto1,001,130,
0.25,Stim\\05_078.jpg,En78_18,Enojo,18,Sofía escucha la música.,Afirmación,En78,78,,,,,,,,,,,,,0,85,85,85,,,,,,,,,1,1.02468907721,2,0.383825320963,2018_may._30_1303,60.0392239866,Experimento Piloto1,001,130,
2.5,Stim\\05_019.jpg,En19_25,Enojo,25,Luis decide la comida siguiente.,Afirmación,En19,19,,,,,,,,,,,,,0,86,86,86,,,,,,,,,1,1.08578747027,2,1.00005935089,2018_may._30_1303,60.0392239866,Experimento Piloto1,001,130,
0.25,Stim\\05_028.jpg,En28_16,Enojo,16,Valeria modifica algunas imágenes.,Afirmación,En28,28,,,,,,,,,,,,,0,87,87,87,,,,,,,,,1,1.06636723474,2,0.350395598217,2018_may._30_1303,60.0392239866,Experimento Piloto1,001,130,
2.5,Stim\\02_028.jpg,Al28_22,Alegría,22,Enrique corre todas las mañanas.,Afirmación,Al28,28,,,,,,,,,,,,,0,88,88,88,,,,,,,,,1,2.45278971489,3,0.300365922772,2018_may._30_1303,60.0392239866,Experimento Piloto1,001,130,
0.25,Stim\\03_078.jpg,Tr78_17,Tristeza,17,Brenda sube el autobús en las mañanas.,Afirmación,Tr78,78,,,,,,,,,,,,,0,89,89,89,,,,,,,,,1,1.26331579582,4,0.333778241875,2018_may._30_1303,60.0392239866,Experimento Piloto1,001,130,
2.5,Stim\\02_028.jpg,Al28_25,Alegría,25,Luis decide la comida siguiente.,Afirmación,Al28,28,,,,,,,,,,,,,0,90,90,90,,,,,,,,,1,1.53343820144,3,0.350550446024,2018_may._30_1303,60.0392239866,Experimento Piloto1,001,130,
0.25,Stim\\03_028.jpg,Tr28_18,Tristeza,18,Sofía escucha la música.,Afirmación,Tr28,28,,,,,,,,,,,,,0,91,91,91,,,,,,,,,1,1.47394183613,4,0.450413894356,2018_may._30_1303,60.0392239866,Experimento Piloto1,001,130,
2.5,Stim\\03_075.jpg,Tr75_26,Tristeza,26,Víctor trae el café a Marco.,Afirmación,Tr75,75,,,,,,,,,,,,,0,92,92,92,,,,,,,,,1,1.23931527817,4,1.15004975657,2018_may._30_1303,60.0392239866,Experimento Piloto1,001,130,
0.25,Stim\\02_019.jpg,Al19_19,Alegría,19,Armando acompaña a Rodrígo a la tienda.,Afirmación,Al19,19,,,,,,,,,,,,,0,93,93,93,,,,,,,,,1,0.914289730511,3,0.300030791062,2018_may._30_1303,60.0392239866,Experimento Piloto1,001,130,
0.25,Stim\\02_028.jpg,Al28_24,Alegría,24,Guadalupe comenta los resultados con los compañeros.,Afirmación,Al28,28,,,,,,,,,,,,,0,94,94,94,,,,,,,,,1,1.77215416951,3,0.283690554284,2018_may._30_1303,60.0392239866,Experimento Piloto1,001,130,
0.25,Stim\\05_078.jpg,En78_20,Enojo,20,Karen analiza la idea.,Afirmación,En78,78,,,,,,,,,,,,,0,95,95,95,,,,,,,,,1,0.975360009996,2,0.283846294586,2018_may._30_1303,60.0392239866,Experimento Piloto1,001,130,
2.5,Stim\\02_019.jpg,Al19_17,Alegría,17,Brenda sube el autobús en las mañanas.,Afirmación,Al19,19,,,,,,,,,,,,,0,96,96,96,,,,,,,,,1,1.63172327313,3,0.300340932924,2018_may._30_1303,60.0392239866,Experimento Piloto1,001,130,
0.25,Stim\\03_019.jpg,Tr19_18,Tristeza,18,Sofía escucha la música.,Afirmación,Tr19,19,,,,,,,,,,,,,0,97,97,97,,,,,,,,,1,1.22534863069,3,0.850255922817,2018_may._30_1303,60.0392239866,Experimento Piloto1,001,130,
0.25,Stim\\02_075.jpg,Al75_26,Alegría,26,Víctor trae el café a Marco.,Afirmación,Al75,75,,,,,,,,,,,,,0,98,98,98,,,,,,,,,1,1.28798122191,3,0.333597511725,2018_may._30_1303,60.0392239866,Experimento Piloto1,001,130,
2.5,Stim\\02_075.jpg,Al75_18,Alegría,18,Sofía escucha la música.,Afirmación,Al75,75,,,,,,,,,,,,,0,99,99,99,,,,,,,,,1,0.974712951435,3,0.350316166201,2018_may._30_1303,60.0392239866,Experimento Piloto1,001,130,
2.5,Stim\\05_019.jpg,En19_24,Enojo,24,Guadalupe comenta los resultados con los compañeros.,Afirmación,En19,19,,,,,,,,,,,,,0,100,100,100,,,,,,,,,1,2.75652748214,2,0.233684976193,2018_may._30_1303,60.0392239866,Experimento Piloto1,001,130,
2.5,Stim\\03_019.jpg,Tr19_30,Tristeza,30,Marisol toma 2 litros de agua cada día.,Afirmación,Tr19,19,,,,,,,,,,,,,0,101,101,101,,,,,,,,,1,0.86555729592,3,0.333699702353,2018_may._30_1303,60.0392239866,Experimento Piloto1,001,130,
2.5,Stim\\05_075.jpg,En75_17,Enojo,17,Brenda sube el autobús en las mañanas.,Afirmación,En75,75,,,,,,,,,,,,,0,102,102,102,,,,,,,,,1,1.89910215047,2,1.3168047802,2018_may._30_1303,60.0392239866,Experimento Piloto1,001,130,
0.25,Stim\\02_019.jpg,Al19_29,Alegría,29,Miriam mira la película.,Afirmación,Al19,19,,,,,,,,,,,,,0,103,103,103,,,,,,,,,1,0.974703580242,3,0.233736740878,2018_may._30_1303,60.0392239866,Experimento Piloto1,001,130,
0.25,Stim\\05_078.jpg,En78_22,Enojo,22,Enrique corre todas las mañanas.,Afirmación,En78,78,,,,,,,,,,,,,0,104,104,104,,,,,,,,,1,0.870301350791,2,0.283860128251,2018_may._30_1303,60.0392239866,Experimento Piloto1,001,130,
0.25,Stim\\03_028.jpg,Tr28_21,Tristeza,21,Mauro anuncia la actividad.,Afirmación,Tr28,28,,,,,,,,,,,,,0,105,105,105,,,,,,,,,1,2.05610042349,3,2.38314122388,2018_may._30_1303,60.0392239866,Experimento Piloto1,001,130,
2.5,Stim\\05_028.jpg,En28_19,Enojo,19,Armando acompaña a Rodrígo a la tienda.,Afirmación,En28,28,,,,,,,,,,,,,0,106,106,106,,,,,,,,,1,1.33182947999,2,0.400091480693,2018_may._30_1303,60.0392239866,Experimento Piloto1,001,130,
2.5,Stim\\03_019.jpg,Tr19_29,Tristeza,29,Miriam mira la película.,Afirmación,Tr19,19,,,,,,,,,,,,,0,107,107,107,,,,,,,,,1,1.12403666368,3,0.333710858535,2018_may._30_1303,60.0392239866,Experimento Piloto1,001,130,
2.5,Stim\\05_078.jpg,En78_17,Enojo,17,Brenda sube el autobús en las mañanas.,Afirmación,En78,78,,,,,,,,,,,,,0,108,108,108,,,,,,,,,1,0.928330008791,2,1.566652833,2018_may._30_1303,60.0392239866,Experimento Piloto1,001,130,
2.5,Stim\\02_028.jpg,Al28_21,Alegría,21,Mauro anuncia la actividad.,Afirmación,Al28,28,,,,,,,,,,,,,0,109,109,109,,,,,,,,,1,2.15616825308,3,0.233874185041,2018_may._30_1303,60.0392239866,Experimento Piloto1,001,130,
0.25,Stim\\02_075.jpg,Al75_27,Alegría,27,Claudia informa los avances en el reporte.,Afirmación,Al75,75,,,,,,,,,,,,,0,110,110,110,,,,,,,,,1,1.42969552548,3,0.283781142482,2018_may._30_1303,60.0392239866,Experimento Piloto1,001,130,
0.25,Stim\\02_019.jpg,Al19_28,Alegría,28,Antonio responde la pregunta.,Afirmación,Al19,19,,,,,,,,,,,,,0,111,111,111,,,,,,,,,1,1.3209281051,3,0.250257707806,2018_may._30_1303,60.0392239866,Experimento Piloto1,001,130,
2.5,Stim\\05_019.jpg,En19_20,Enojo,20,Karen analiza la idea.,Afirmación,En19,19,,,,,,,,,,,,,0,112,112,112,,,,,,,,,1,0.975269421797,2,0.283799438621,2018_may._30_1303,60.0392239866,Experimento Piloto1,001,130,
2.5,Stim\\03_078.jpg,Tr78_22,Tristeza,22,Enrique corre todas las mañanas.,Afirmación,Tr78,78,,,,,,,,,,,,,0,113,113,113,,,,,,,,,1,1.33644189191,3,0.300528356784,2018_may._30_1303,60.0392239866,Experimento Piloto1,001,130,
2.5,Stim\\05_028.jpg,En28_18,Enojo,18,Sofía escucha la música.,Afirmación,En28,28,,,,,,,,,,,,,0,114,114,114,,,,,,,,,1,1.2249862779,2,0.400257484682,2018_may._30_1303,60.0392239866,Experimento Piloto1,001,130,
0.25,Stim\\03_075.jpg,Tr75_29,Tristeza,29,Miriam mira la película.,Afirmación,Tr75,75,,,,,,,,,,,,,0,115,115,115,,,,,,,,,1,1.93994091686,4,0.500321744291,2018_may._30_1303,60.0392239866,Experimento Piloto1,001,130,
0.25,Stim\\03_078.jpg,Tr78_24,Tristeza,24,Guadalupe comenta los resultados con los compañeros.,Afirmación,Tr78,78,,,,,,,,,,,,,0,116,116,116,,,,,,,,,1,2.68649611095,3,1.93343418522,2018_may._30_1303,60.0392239866,Experimento Piloto1,001,130,
2.5,Stim\\05_075.jpg,En75_23,Enojo,23,Óscar consigue un nuevo departamento.,Afirmación,En75,75,,,,,,,,,,,,,0,117,117,117,,,,,,,,,1,0.91686413109,2,0.400308356873,2018_may._30_1303,60.0392239866,Experimento Piloto1,001,130,
2.5,Stim\\03_019.jpg,Tr19_21,Tristeza,21,Mauro anuncia la actividad.,Afirmación,Tr19,19,,,,,,,,,,,,,0,118,118,118,,,,,,,,,1,1.22273986907,3,0.300392251362,2018_may._30_1303,60.0392239866,Experimento Piloto1,001,130,
0.25,Stim\\03_078.jpg,Tr78_29,Tristeza,29,Miriam mira la película.,Afirmación,Tr78,78,,,,,,,,,,,,,0,119,119,119,,,,,,,,,1,0.807924013013,4,0.300322190539,2018_may._30_1303,60.0392239866,Experimento Piloto1,001,130,
