Tiempo,ImagenesE,ClaveEn,Emocion,NumEn,Enunciado,ActoHabla,Clave,Cara,trials.thisRepN,trials.thisTrialN,trials.thisN,trials.thisIndex,Bloque2.thisRepN,Bloque2.thisTrialN,Bloque2.thisN,Bloque2.thisIndex,Bloque1.thisRepN,Bloque1.thisTrialN,Bloque1.thisN,Bloque1.thisIndex,Bloque3.thisRepN,Bloque3.thisTrialN,Bloque3.thisN,Bloque3.thisIndex,Sig_B2.keys,Sig_B2.rt,Resp_Bloque2.keys,Resp_Bloque2.rt,Sig_B1.keys,Sig_B1.rt,Resp_Bloque1.keys,Resp_Bloque1.rt,Sig_B3.keys,Sig_B3.rt,Resp_Bloque3.keys,Resp_Bloque3.rt,date,frameRate,expName,session,participant,
2.5,Stim\\02_078.jpg,Al78_17,Alegría,17,Brenda sube el autobús en las mañanas.,Afirmación,Al78,78,,,,,0,0,0,0,,,,,,,,,1,9.70478938932,3,4.3493617777,,,,,,,,,2018_jun._11_1154,60.0898299131,Experimento Piloto1,001,131,
2.5,Stim\\05_019.jpg,En19_23,Enojo,23,Óscar consigue un nuevo departamento.,Afirmación,En19,19,,,,,0,1,1,1,,,,,,,,,1,8.95844906003,3,3.76610014137,,,,,,,,,2018_jun._11_1154,60.0898299131,Experimento Piloto1,001,131,
0.25,Stim\\02_075.jpg,Al75_17,Alegría,17,Brenda sube el autobús en las mañanas.,Afirmación,Al75,75,,,,,0,2,2,2,,,,,,,,,1,5.65308767145,3,3.78207890359,,,,,,,,,2018_jun._11_1154,60.0898299131,Experimento Piloto1,001,131,
2.5,Stim\\02_075.jpg,Al75_24,Alegría,24,Guadalupe comenta los resultados con los compañeros.,Afirmación,Al75,75,,,,,0,3,3,3,,,,,,,,,1,11.7651982764,2,11.2136567612,,,,,,,,,2018_jun._11_1154,60.0898299131,Experimento Piloto1,001,131,
0.25,Stim\\05_075.jpg,En75_19,Enojo,19,Armando acompaña a Rodrígo a la tienda.,Afirmación,En75,75,,,,,0,4,4,4,,,,,,,,,1,7.21050001071,3,4.49951046717,,,,,,,,,2018_jun._11_1154,60.0898299131,Experimento Piloto1,001,131,
2.5,Stim\\02_019.jpg,Al19_29,Alegría,29,Miriam mira la película.,Afirmación,Al19,19,,,,,0,5,5,5,,,,,,,,,1,6.71452872759,3,2.89919238239,,,,,,,,,2018_jun._11_1154,60.0898299131,Experimento Piloto1,001,131,
2.5,Stim\\02_078.jpg,Al78_24,Alegría,24,Guadalupe comenta los resultados con los compañeros.,Afirmación,Al78,78,,,,,0,6,6,6,,,,,,,,,1,9.88593527992,3,5.56563666936,,,,,,,,,2018_jun._11_1154,60.0898299131,Experimento Piloto1,001,131,
0.25,Stim\\05_028.jpg,En28_20,Enojo,20,Karen analiza la idea.,Afirmación,En28,28,,,,,0,7,7,7,,,,,,,,,1,6.82047487809,3,2.38305163255,,,,,,,,,2018_jun._11_1154,60.0898299131,Experimento Piloto1,001,131,
0.25,Stim\\03_078.jpg,Tr78_27,Tristeza,27,Claudia informa los avances en el reporte.,Afirmación,Tr78,78,,,,,0,8,8,8,,,,,,,,,1,10.3646872345,3,1.36678057862,,,,,,,,,2018_jun._11_1154,60.0898299131,Experimento Piloto1,001,131,
0.25,Stim\\02_019.jpg,Al19_30,Alegría,30,Marisol toma 2 litros de agua cada día.,Afirmación,Al19,19,,,,,0,9,9,9,,,,,,,,,1,11.2093107628,3,1.93334633399,,,,,,,,,2018_jun._11_1154,60.0898299131,Experimento Piloto1,001,131,
2.5,Stim\\02_019.jpg,Al19_19,Alegría,19,Armando acompaña a Rodrígo a la tienda.,Afirmación,Al19,19,,,,,0,10,10,10,,,,,,,,,1,5.22968237932,3,1.76609255517,,,,,,,,,2018_jun._11_1154,60.0898299131,Experimento Piloto1,001,131,
0.25,Stim\\02_028.jpg,Al28_30,Alegría,30,Marisol toma 2 litros de agua cada día.,Afirmación,Al28,28,,,,,0,11,11,11,,,,,,,,,1,8.66152218383,3,3.09963041833,,,,,,,,,2018_jun._11_1154,60.0898299131,Experimento Piloto1,001,131,
2.5,Stim\\02_019.jpg,Al19_16,Alegría,16,Valeria modifica algunas imágenes.,Afirmación,Al19,19,,,,,0,12,12,12,,,,,,,,,1,7.83916994509,3,1.41662724819,,,,,,,,,2018_jun._11_1154,60.0898299131,Experimento Piloto1,001,131,
2.5,Stim\\03_075.jpg,Tr75_30,Tristeza,30,Marisol toma 2 litros de agua cada día.,Afirmación,Tr75,75,,,,,0,13,13,13,,,,,,,,,1,6.19649232098,3,1.63262323554,,,,,,,,,2018_jun._11_1154,60.0898299131,Experimento Piloto1,001,131,
2.5,Stim\\02_078.jpg,Al78_19,Alegría,19,Armando acompaña a Rodrígo a la tienda.,Afirmación,Al78,78,,,,,0,14,14,14,,,,,,,,,1,6.02927067194,3,1.21691123971,,,,,,,,,2018_jun._11_1154,60.0898299131,Experimento Piloto1,001,131,
2.5,Stim\\05_075.jpg,En75_25,Enojo,25,Luis decide la comida siguiente.,Afirmación,En75,75,,,,,0,15,15,15,,,,,,,,,1,5.3661321819,2,5.21568673826,,,,,,,,,2018_jun._11_1154,60.0898299131,Experimento Piloto1,001,131,
0.25,Stim\\03_075.jpg,Tr75_24,Tristeza,24,Guadalupe comenta los resultados con los compañeros.,Afirmación,Tr75,75,,,,,0,16,16,16,,,,,,,,,1,6.99445136623,3,1.98269945451,,,,,,,,,2018_jun._11_1154,60.0898299131,Experimento Piloto1,001,131,
2.5,Stim\\05_078.jpg,En78_25,Enojo,25,Luis decide la comida siguiente.,Afirmación,En78,78,,,,,0,17,17,17,,,,,,,,,1,3.92969514198,2,3.88267500018,,,,,,,,,2018_jun._11_1154,60.0898299131,Experimento Piloto1,001,131,
2.5,Stim\\05_028.jpg,En28_17,Enojo,17,Brenda sube el autobús en las mañanas.,Afirmación,En28,28,,,,,0,18,18,18,,,,,,,,,1,6.34486762532,3,2.65057842521,,,,,,,,,2018_jun._11_1154,60.0898299131,Experimento Piloto1,001,131,
0.25,Stim\\02_078.jpg,Al78_26,Alegría,26,Víctor trae el café a Marco.,Afirmación,Al78,78,,,,,0,19,19,19,,,,,,,,,1,6.18040645951,3,3.31625918376,,,,,,,,,2018_jun._11_1154,60.0898299131,Experimento Piloto1,001,131,
2.5,Stim\\03_075.jpg,Tr75_20,Tristeza,20,Karen analiza la idea.,Afirmación,Tr75,75,,,,,0,20,20,20,,,,,,,,,1,4.20648021877,3,1.83310009496,,,,,,,,,2018_jun._11_1154,60.0898299131,Experimento Piloto1,001,131,
2.5,Stim\\05_028.jpg,En28_21,Enojo,21,Mauro anuncia la actividad.,Afirmación,En28,28,,,,,0,21,21,21,,,,,,,,,1,6.08765672191,3,5.0154865519,,,,,,,,,2018_jun._11_1154,60.0898299131,Experimento Piloto1,001,131,
0.25,Stim\\05_019.jpg,En19_21,Enojo,21,Mauro anuncia la actividad.,Afirmación,En19,19,,,,,0,22,22,22,,,,,,,,,1,2.7163038977,3,1.4165540637,,,,,,,,,2018_jun._11_1154,60.0898299131,Experimento Piloto1,001,131,
0.25,Stim\\03_028.jpg,Tr28_16,Tristeza,16,Valeria modifica algunas imágenes.,Afirmación,Tr28,28,,,,,0,23,23,23,,,,,,,,,1,4.11134975403,3,1.36634504166,,,,,,,,,2018_jun._11_1154,60.0898299131,Experimento Piloto1,001,131,
0.25,Stim\\05_075.jpg,En75_27,Enojo,27,Claudia informa los avances en el reporte.,Afirmación,En75,75,,,,,0,24,24,24,,,,,,,,,1,6.96059684628,3,1.05000954968,,,,,,,,,2018_jun._11_1154,60.0898299131,Experimento Piloto1,001,131,
2.5,Stim\\02_078.jpg,Al78_18,Alegría,18,Sofía escucha la música.,Afirmación,Al78,78,,,,,0,25,25,25,,,,,,,,,1,3.90282304704,3,1.06642474136,,,,,,,,,2018_jun._11_1154,60.0898299131,Experimento Piloto1,001,131,
2.5,Stim\\03_028.jpg,Tr28_25,Tristeza,25,Luis decide la comida siguiente.,Afirmación,Tr28,28,,,,,0,26,26,26,,,,,,,,,1,10.7459471858,3,2.64956455229,,,,,,,,,2018_jun._11_1154,60.0898299131,Experimento Piloto1,001,131,
0.25,Stim\\03_075.jpg,Tr75_18,Tristeza,18,Sofía escucha la música.,Afirmación,Tr75,75,,,,,0,27,27,27,,,,,,,,,1,3.02197587411,3,1.98324119823,,,,,,,,,2018_jun._11_1154,60.0898299131,Experimento Piloto1,001,131,
2.5,Stim\\02_028.jpg,Al28_27,Alegría,27,Claudia informa los avances en el reporte.,Afirmación,Al28,28,,,,,0,28,28,28,,,,,,,,,1,8.75861390362,3,1.51654371078,,,,,,,,,2018_jun._11_1154,60.0898299131,Experimento Piloto1,001,131,
2.5,Stim\\02_028.jpg,Al28_20,Alegría,20,Karen analiza la idea.,Afirmación,Al28,28,,,,,0,29,29,29,,,,,,,,,1,3.09033554196,3,1.0502076833,,,,,,,,,2018_jun._11_1154,60.0898299131,Experimento Piloto1,001,131,
0.25,Stim\\05_078.jpg,En78_29,Enojo,29,Miriam mira la película.,Afirmación,En78,78,,,,,0,30,30,30,,,,,,,,,1,3.99005181819,3,1.06687411197,,,,,,,,,2018_jun._11_1154,60.0898299131,Experimento Piloto1,001,131,
0.25,Stim\\05_019.jpg,En19_22,Enojo,22,Enrique corre todas las mañanas.,Afirmación,En19,19,,,,,0,31,31,31,,,,,,,,,1,7.72746230106,3,3.7320131268,,,,,,,,,2018_jun._11_1154,60.0898299131,Experimento Piloto1,001,131,
2.5,Stim\\03_019.jpg,Tr19_20,Tristeza,20,Karen analiza la idea.,Afirmación,Tr19,19,,,,,0,32,32,32,,,,,,,,,1,2.96745342968,3,0.650268283628,,,,,,,,,2018_jun._11_1154,60.0898299131,Experimento Piloto1,001,131,
2.5,Stim\\05_078.jpg,En78_22,Enojo,22,Enrique corre todas las mañanas.,Afirmación,En78,78,,,,,0,33,33,33,,,,,,,,,1,4.95702285498,3,0.800341111119,,,,,,,,,2018_jun._11_1154,60.0898299131,Experimento Piloto1,001,131,
2.5,Stim\\02_078.jpg,Al78_16,Alegría,16,Valeria modifica algunas imágenes.,Afirmación,Al78,78,,,,,0,34,34,34,,,,,,,,,1,4.2362399773,3,1.06666616092,,,,,,,,,2018_jun._11_1154,60.0898299131,Experimento Piloto1,001,131,
2.5,Stim\\05_028.jpg,En28_24,Enojo,24,Guadalupe comenta los resultados con los compañeros.,Afirmación,En28,28,,,,,0,35,35,35,,,,,,,,,1,7.41335179605,3,0.850408672898,,,,,,,,,2018_jun._11_1154,60.0898299131,Experimento Piloto1,001,131,
2.5,Stim\\02_075.jpg,Al75_16,Alegría,16,Valeria modifica algunas imágenes.,Afirmación,Al75,75,,,,,0,36,36,36,,,,,,,,,1,3.31340007997,3,0.900592705113,,,,,,,,,2018_jun._11_1154,60.0898299131,Experimento Piloto1,001,131,
0.25,Stim\\02_019.jpg,Al19_18,Alegría,18,Sofía escucha la música.,Afirmación,Al19,19,,,,,0,37,37,37,,,,,,,,,1,2.82313986448,3,0.80020634456,,,,,,,,,2018_jun._11_1154,60.0898299131,Experimento Piloto1,001,131,
2.5,Stim\\02_028.jpg,Al28_26,Alegría,26,Víctor trae el café a Marco.,Afirmación,Al28,28,,,,,0,38,38,38,,,,,,,,,1,3.88809868482,3,7.26499121786,,,,,,,,,2018_jun._11_1154,60.0898299131,Experimento Piloto1,001,131,
2.5,Stim\\02_078.jpg,Al78_29,Alegría,29,Miriam mira la película.,Afirmación,Al78,78,,,,,0,39,39,39,,,,,,,,,1,3.58888300835,3,1.26648837616,,,,,,,,,2018_jun._11_1154,60.0898299131,Experimento Piloto1,001,131,
0.25,Stim\\05_078.jpg,En78_24,Enojo,24,Guadalupe comenta los resultados con los compañeros.,Afirmación,En78,78,,,,,0,40,40,40,,,,,,,,,1,5.76900699358,3,0.750161541372,,,,,,,,,2018_jun._11_1154,60.0898299131,Experimento Piloto1,001,131,
0.25,Stim\\03_075.jpg,Tr75_19,Tristeza,19,Armando acompaña a Rodrígo a la tienda.,Afirmación,Tr75,75,,,,,0,41,41,41,,,,,,,,,1,8.23726054392,3,0.850317638533,,,,,,,,,2018_jun._11_1154,60.0898299131,Experimento Piloto1,001,131,
0.25,Stim\\02_028.jpg,Al28_17,Alegría,17,Brenda sube el autobús en las mañanas.,Afirmación,Al28,28,,,,,0,42,42,42,,,,,,,,,1,6.59891686956,3,0.584028288482,,,,,,,,,2018_jun._11_1154,60.0898299131,Experimento Piloto1,001,131,
2.5,Stim\\05_075.jpg,En75_21,Enojo,21,Mauro anuncia la actividad.,Afirmación,En75,75,,,,,0,43,43,43,,,,,,,,,1,2.77040642381,3,3.21639270083,,,,,,,,,2018_jun._11_1154,60.0898299131,Experimento Piloto1,001,131,
0.25,Stim\\03_019.jpg,Tr19_27,Tristeza,27,Claudia informa los avances en el reporte.,Afirmación,Tr19,19,,,,,0,44,44,44,,,,,,,,,1,7.14787015287,3,1.7833743583,,,,,,,,,2018_jun._11_1154,60.0898299131,Experimento Piloto1,001,131,
2.5,Stim\\02_075.jpg,Al75_19,Alegría,19,Armando acompaña a Rodrígo a la tienda.,Afirmación,Al75,75,,,,,0,45,45,45,,,,,,,,,1,4.19407678659,3,2.08343299514,,,,,,,,,2018_jun._11_1154,60.0898299131,Experimento Piloto1,001,131,
2.5,Stim\\03_019.jpg,Tr19_22,Tristeza,22,Enrique corre todas las mañanas.,Afirmación,Tr19,19,,,,,0,46,46,46,,,,,,,,,1,3.68555570232,3,0.650429825,,,,,,,,,2018_jun._11_1154,60.0898299131,Experimento Piloto1,001,131,
2.5,Stim\\02_075.jpg,Al75_23,Alegría,23,Óscar consigue un nuevo departamento.,Afirmación,Al75,75,,,,,0,47,47,47,,,,,,,,,1,6.6109601805,3,1.21649399887,,,,,,,,,2018_jun._11_1154,60.0898299131,Experimento Piloto1,001,131,
2.5,Stim\\02_019.jpg,Al19_27,Alegría,27,Claudia informa los avances en el reporte.,Afirmación,Al19,19,,,,,0,48,48,48,,,,,,,,,1,3.26150290596,3,0.866937657525,,,,,,,,,2018_jun._11_1154,60.0898299131,Experimento Piloto1,001,131,
2.5,Stim\\03_028.jpg,Tr28_16,Tristeza,16,Valeria modifica algunas imágenes.,Afirmación,Tr28,28,,,,,0,49,49,49,,,,,,,,,1,4.69963122157,3,1.53330519003,,,,,,,,,2018_jun._11_1154,60.0898299131,Experimento Piloto1,001,131,
2.5,Stim\\02_078.jpg,Al78_20,Alegría,20,Karen analiza la idea.,Afirmación,Al78,78,,,,,0,50,50,50,,,,,,,,,1,4.35679937454,3,1.88326984728,,,,,,,,,2018_jun._11_1154,60.0898299131,Experimento Piloto1,001,131,
2.5,Stim\\05_075.jpg,En75_24,Enojo,24,Guadalupe comenta los resultados con los compañeros.,Afirmación,En75,75,,,,,0,51,51,51,,,,,,,,,1,4.4842269576,3,1.73301004234,,,,,,,,,2018_jun._11_1154,60.0898299131,Experimento Piloto1,001,131,
0.25,Stim\\03_028.jpg,Tr28_26,Tristeza,26,Víctor trae el café a Marco.,Afirmación,Tr28,28,,,,,0,52,52,52,,,,,,,,,1,3.88817320805,3,4.03280003856,,,,,,,,,2018_jun._11_1154,60.0898299131,Experimento Piloto1,001,131,
2.5,Stim\\03_028.jpg,Tr28_21,Tristeza,21,Mauro anuncia la actividad.,Afirmación,Tr28,28,,,,,0,53,53,53,,,,,,,,,1,3.63694022791,3,3.01668650978,,,,,,,,,2018_jun._11_1154,60.0898299131,Experimento Piloto1,001,131,
2.5,Stim\\02_075.jpg,Al75_29,Alegría,29,Miriam mira la película.,Afirmación,Al75,75,,,,,0,54,54,54,,,,,,,,,1,3.58810877,3,1.26674809185,,,,,,,,,2018_jun._11_1154,60.0898299131,Experimento Piloto1,001,131,
0.25,Stim\\03_078.jpg,Tr78_26,Tristeza,26,Víctor trae el café a Marco.,Afirmación,Tr78,78,,,,,0,55,55,55,,,,,,,,,1,3.0613388656,3,0.850185995702,,,,,,,,,2018_jun._11_1154,60.0898299131,Experimento Piloto1,001,131,
0.25,Stim\\05_019.jpg,En19_19,Enojo,19,Armando acompaña a Rodrígo a la tienda.,Afirmación,En19,19,,,,,0,56,56,56,,,,,,,,,1,4.49733233612,3,2.84966879556,,,,,,,,,2018_jun._11_1154,60.0898299131,Experimento Piloto1,001,131,
0.25,Stim\\03_078.jpg,Tr78_19,Tristeza,19,Armando acompaña a Rodrígo a la tienda.,Afirmación,Tr78,78,,,,,0,57,57,57,,,,,,,,,1,2.88275532462,3,0.750228478405,,,,,,,,,2018_jun._11_1154,60.0898299131,Experimento Piloto1,001,131,
2.5,Stim\\03_078.jpg,Tr78_18,Tristeza,18,Sofía escucha la música.,Afirmación,Tr78,78,,,,,0,58,58,58,,,,,,,,,1,3.73994204145,3,0.766436611522,,,,,,,,,2018_jun._11_1154,60.0898299131,Experimento Piloto1,001,131,
2.5,Stim\\05_075.jpg,En75_26,Enojo,26,Víctor trae el café a Marco.,Afirmación,En75,75,,,,,0,59,59,59,,,,,,,,,1,4.13748152538,3,1.21674434337,,,,,,,,,2018_jun._11_1154,60.0898299131,Experimento Piloto1,001,131,
2.5,Stim\\02_075.jpg,Al75_30,Alegría,30,Marisol toma 2 litros de agua cada día.,Afirmación,Al75,75,,,,,0,60,60,60,,,,,,,,,1,3.57938955211,3,0.966879556181,,,,,,,,,2018_jun._11_1154,60.0898299131,Experimento Piloto1,001,131,
2.5,Stim\\03_019.jpg,Tr19_18,Tristeza,18,Sofía escucha la música.,Afirmación,Tr19,19,,,,,0,61,61,61,,,,,,,,,1,2.82413811877,3,2.43308483332,,,,,,,,,2018_jun._11_1154,60.0898299131,Experimento Piloto1,001,131,
0.25,Stim\\03_078.jpg,Tr78_23,Tristeza,23,Óscar consigue un nuevo departamento.,Afirmación,Tr78,78,,,,,0,62,62,62,,,,,,,,,1,3.28092089292,3,4.89899335628,,,,,,,,,2018_jun._11_1154,60.0898299131,Experimento Piloto1,001,131,
2.5,Stim\\03_019.jpg,Tr19_25,Tristeza,25,Luis decide la comida siguiente.,Afirmación,Tr19,19,,,,,0,63,63,63,,,,,,,,,1,6.39870284955,3,1.83320540923,,,,,,,,,2018_jun._11_1154,60.0898299131,Experimento Piloto1,001,131,
0.25,Stim\\02_028.jpg,Al28_29,Alegría,29,Miriam mira la película.,Afirmación,Al28,28,,,,,0,64,64,64,,,,,,,,,1,2.72248798703,3,0.800068454273,,,,,,,,,2018_jun._11_1154,60.0898299131,Experimento Piloto1,001,131,
2.5,Stim\\02_019.jpg,Al19_21,Alegría,21,Mauro anuncia la actividad.,Afirmación,Al19,19,,,,,0,65,65,65,,,,,,,,,1,3.89886974589,3,3.366224555,,,,,,,,,2018_jun._11_1154,60.0898299131,Experimento Piloto1,001,131,
2.5,Stim\\02_078.jpg,Al78_25,Alegría,25,Luis decide la comida siguiente.,Afirmación,Al78,78,,,,,0,66,66,66,,,,,,,,,1,2.43527590552,3,2.90040037271,,,,,,,,,2018_jun._11_1154,60.0898299131,Experimento Piloto1,001,131,
2.5,Stim\\05_075.jpg,En75_29,Enojo,29,Miriam mira la película.,Afirmación,En75,75,,,,,0,67,67,67,,,,,,,,,1,7.13360140871,3,0.700305500618,,,,,,,,,2018_jun._11_1154,60.0898299131,Experimento Piloto1,001,131,
0.25,Stim\\03_028.jpg,Tr28_20,Tristeza,20,Karen analiza la idea.,Afirmación,Tr28,28,,,,,0,68,68,68,,,,,,,,,1,3.36779757527,3,0.850181533233,,,,,,,,,2018_jun._11_1154,60.0898299131,Experimento Piloto1,001,131,
2.5,Stim\\02_075.jpg,Al75_26,Alegría,26,Víctor trae el café a Marco.,Afirmación,Al75,75,,,,,0,69,69,69,,,,,,,,,1,2.98225231513,3,1.15030264464,,,,,,,,,2018_jun._11_1154,60.0898299131,Experimento Piloto1,001,131,
0.25,Stim\\05_019.jpg,En19_20,Enojo,20,Karen analiza la idea.,Afirmación,En19,19,,,,,0,70,70,70,,,,,,,,,1,5.67927165368,3,0.800480786394,,,,,,,,,2018_jun._11_1154,60.0898299131,Experimento Piloto1,001,131,
0.25,Stim\\05_028.jpg,En28_22,Enojo,22,Enrique corre todas las mañanas.,Afirmación,En28,28,,,,,0,71,71,71,,,,,,,,,1,3.62916392969,3,0.750269086872,,,,,,,,,2018_jun._11_1154,60.0898299131,Experimento Piloto1,001,131,
2.5,Stim\\05_028.jpg,En28_22,Enojo,22,Enrique corre todas las mañanas.,Afirmación,En28,28,,,,,0,72,72,72,,,,,,,,,1,2.93271935712,3,2.1996486252,,,,,,,,,2018_jun._11_1154,60.0898299131,Experimento Piloto1,001,131,
0.25,Stim\\05_019.jpg,En19_17,Enojo,17,Brenda sube el autobús en las mañanas.,Afirmación,En19,19,,,,,0,73,73,73,,,,,,,,,1,7.31289135852,3,0.650430271247,,,,,,,,,2018_jun._11_1154,60.0898299131,Experimento Piloto1,001,131,
2.5,Stim\\05_078.jpg,En78_26,Enojo,26,Víctor trae el café a Marco.,Afirmación,En78,78,,,,,0,74,74,74,,,,,,,,,1,5.48621141749,3,0.5002722106,,,,,,,,,2018_jun._11_1154,60.0898299131,Experimento Piloto1,001,131,
2.5,Stim\\03_078.jpg,Tr78_29,Tristeza,29,Miriam mira la película.,Afirmación,Tr78,78,,,,,0,75,75,75,,,,,,,,,1,2.50646700986,3,0.700318888024,,,,,,,,,2018_jun._11_1154,60.0898299131,Experimento Piloto1,001,131,
0.25,Stim\\02_075.jpg,Al75_22,Alegría,22,Enrique corre todas las mañanas.,Afirmación,Al75,75,,,,,0,76,76,76,,,,,,,,,1,2.66775312908,3,0.750343163855,,,,,,,,,2018_jun._11_1154,60.0898299131,Experimento Piloto1,001,131,
2.5,Stim\\02_019.jpg,Al19_23,Alegría,23,Óscar consigue un nuevo departamento.,Afirmación,Al19,19,,,,,0,77,77,77,,,,,,,,,1,4.4482741848,3,0.700039537474,,,,,,,,,2018_jun._11_1154,60.0898299131,Experimento Piloto1,001,131,
0.25,Stim\\05_075.jpg,En75_21,Enojo,21,Mauro anuncia la actividad.,Afirmación,En75,75,,,,,0,78,78,78,,,,,,,,,1,2.50521305611,3,0.450461240781,,,,,,,,,2018_jun._11_1154,60.0898299131,Experimento Piloto1,001,131,
0.25,Stim\\02_078.jpg,Al78_25,Alegría,25,Luis decide la comida siguiente.,Afirmación,Al78,78,,,,,0,79,79,79,,,,,,,,,1,6.03257245264,3,0.700345662837,,,,,,,,,2018_jun._11_1154,60.0898299131,Experimento Piloto1,001,131,
0.25,Stim\\03_078.jpg,Tr78_22,Tristeza,22,Enrique corre todas las mañanas.,Afirmación,Tr78,78,,,,,0,80,80,80,,,,,,,,,1,2.71631282264,3,0.700139943023,,,,,,,,,2018_jun._11_1154,60.0898299131,Experimento Piloto1,001,131,
0.25,Stim\\05_028.jpg,En28_26,Enojo,26,Víctor trae el café a Marco.,Afirmación,En28,28,,,,,0,81,81,81,,,,,,,,,1,3.47144600056,3,0.600449727611,,,,,,,,,2018_jun._11_1154,60.0898299131,Experimento Piloto1,001,131,
2.5,Stim\\05_019.jpg,En19_29,Enojo,29,Miriam mira la película.,Afirmación,En19,19,,,,,0,82,82,82,,,,,,,,,1,2.206590888,3,0.916941405999,,,,,,,,,2018_jun._11_1154,60.0898299131,Experimento Piloto1,001,131,
0.25,Stim\\02_019.jpg,Al19_21,Alegría,21,Mauro anuncia la actividad.,Afirmación,Al19,19,,,,,0,83,83,83,,,,,,,,,1,3.62085481268,3,0.766543264528,,,,,,,,,2018_jun._11_1154,60.0898299131,Experimento Piloto1,001,131,
2.5,Stim\\05_078.jpg,En78_30,Enojo,30,Marisol toma 2 litros de agua cada día.,Afirmación,En78,78,,,,,0,84,84,84,,,,,,,,,1,4.6454871945,3,0.500336470152,,,,,,,,,2018_jun._11_1154,60.0898299131,Experimento Piloto1,001,131,
0.25,Stim\\02_078.jpg,Al78_30,Alegría,30,Marisol toma 2 litros de agua cada día.,Afirmación,Al78,78,,,,,0,85,85,85,,,,,,,,,1,4.46546361481,3,0.750315942795,,,,,,,,,2018_jun._11_1154,60.0898299131,Experimento Piloto1,001,131,
0.25,Stim\\03_075.jpg,Tr75_16,Tristeza,16,Valeria modifica algunas imágenes.,Afirmación,Tr75,75,,,,,0,86,86,86,,,,,,,,,1,3.88367414695,3,1.3164898934,,,,,,,,,2018_jun._11_1154,60.0898299131,Experimento Piloto1,001,131,
0.25,Stim\\02_019.jpg,Al19_24,Alegría,24,Guadalupe comenta los resultados con los compañeros.,Afirmación,Al19,19,,,,,0,87,87,87,,,,,,,,,1,6.58839570675,3,0.450290328223,,,,,,,,,2018_jun._11_1154,60.0898299131,Experimento Piloto1,001,131,
2.5,Stim\\02_028.jpg,Al28_29,Alegría,29,Miriam mira la película.,Afirmación,Al28,28,,,,,0,88,88,88,,,,,,,,,1,2.62357468745,3,1.21684296394,,,,,,,,,2018_jun._11_1154,60.0898299131,Experimento Piloto1,001,131,
0.25,Stim\\03_019.jpg,Tr19_25,Tristeza,25,Luis decide la comida siguiente.,Afirmación,Tr19,19,,,,,0,89,89,89,,,,,,,,,1,5.11718130832,3,3.31620875786,,,,,,,,,2018_jun._11_1154,60.0898299131,Experimento Piloto1,001,131,
0.25,Stim\\03_075.jpg,Tr75_25,Tristeza,25,Luis decide la comida siguiente.,Afirmación,Tr75,75,,,,,0,90,90,90,,,,,,,,,1,2.91653889131,3,0.650292380959,,,,,,,,,2018_jun._11_1154,60.0898299131,Experimento Piloto1,001,131,
2.5,Stim\\03_078.jpg,Tr78_25,Tristeza,25,Luis decide la comida siguiente.,Afirmación,Tr78,78,,,,,0,91,91,91,,,,,,,,,1,2.53284644823,3,0.600565305554,,,,,,,,,2018_jun._11_1154,60.0898299131,Experimento Piloto1,001,131,
2.5,Stim\\02_019.jpg,Al19_18,Alegría,18,Sofía escucha la música.,Afirmación,Al19,19,,,,,0,92,92,92,,,,,,,,,1,4.76890391055,3,0.700154222923,,,,,,,,,2018_jun._11_1154,60.0898299131,Experimento Piloto1,001,131,
2.5,Stim\\03_028.jpg,Tr28_19,Tristeza,19,Armando acompaña a Rodrígo a la tienda.,Afirmación,Tr28,28,,,,,0,93,93,93,,,,,,,,,1,2.54651900655,3,0.650027756556,,,,,,,,,2018_jun._11_1154,60.0898299131,Experimento Piloto1,001,131,
0.25,Stim\\03_078.jpg,Tr78_18,Tristeza,18,Sofía escucha la música.,Afirmación,Tr78,78,,,,,0,94,94,94,,,,,,,,,1,4.70648780497,3,0.866572627573,,,,,,,,,2018_jun._11_1154,60.0898299131,Experimento Piloto1,001,131,
0.25,Stim\\05_019.jpg,En19_29,Enojo,29,Miriam mira la película.,Afirmación,En19,19,,,,,0,95,95,95,,,,,,,,,1,3.93908194521,3,0.650323171994,,,,,,,,,2018_jun._11_1154,60.0898299131,Experimento Piloto1,001,131,
2.5,Stim\\03_078.jpg,Tr78_24,Tristeza,24,Guadalupe comenta los resultados con los compañeros.,Afirmación,Tr78,78,,,,,0,96,96,96,,,,,,,,,1,6.02992442363,3,0.700328705455,,,,,,,,,2018_jun._11_1154,60.0898299131,Experimento Piloto1,001,131,
2.5,Stim\\05_019.jpg,En19_22,Enojo,22,Enrique corre todas las mañanas.,Afirmación,En19,19,,,,,0,97,97,97,,,,,,,,,1,2.44937150589,3,0.700288989483,,,,,,,,,2018_jun._11_1154,60.0898299131,Experimento Piloto1,001,131,
0.25,Stim\\02_028.jpg,Al28_20,Alegría,20,Karen analiza la idea.,Afirmación,Al28,28,,,,,0,98,98,98,,,,,,,,,1,2.87294101687,3,0.500365476199,,,,,,,,,2018_jun._11_1154,60.0898299131,Experimento Piloto1,001,131,
2.5,Stim\\03_078.jpg,Tr78_27,Tristeza,27,Claudia informa los avances en el reporte.,Afirmación,Tr78,78,,,,,0,99,99,99,,,,,,,,,1,4.14241299971,3,0.483437100609,,,,,,,,,2018_jun._11_1154,60.0898299131,Experimento Piloto1,001,131,
0.25,Stim\\03_075.jpg,Tr75_17,Tristeza,17,Brenda sube el autobús en las mañanas.,Afirmación,Tr75,75,,,,,0,100,100,100,,,,,,,,,1,4.61382865548,3,0.749946004127,,,,,,,,,2018_jun._11_1154,60.0898299131,Experimento Piloto1,001,131,
2.5,Stim\\05_028.jpg,En28_25,Enojo,25,Luis decide la comida siguiente.,Afirmación,En28,28,,,,,0,101,101,101,,,,,,,,,1,6.81679869625,3,0.549700300592,,,,,,,,,2018_jun._11_1154,60.0898299131,Experimento Piloto1,001,131,
2.5,Stim\\02_028.jpg,Tr28_30,Tristeza,30,Marisol toma 2 litros de agua cada día.,Afirmación,Tr28,28,,,,,0,102,102,102,,,,,,,,,1,4.95214760776,3,0.533581416852,,,,,,,,,2018_jun._11_1154,60.0898299131,Experimento Piloto1,001,131,
0.25,Stim\\02_078.jpg,Al78_18,Alegría,18,Sofía escucha la música.,Afirmación,Al78,78,,,,,0,103,103,103,,,,,,,,,1,2.05768945858,3,0.600174393283,,,,,,,,,2018_jun._11_1154,60.0898299131,Experimento Piloto1,001,131,
0.25,Stim\\02_078.jpg,Al78_24,Alegría,24,Guadalupe comenta los resultados con los compañeros.,Afirmación,Al78,78,,,,,0,104,104,104,,,,,,,,,1,4.51208034943,3,0.601519827642,,,,,,,,,2018_jun._11_1154,60.0898299131,Experimento Piloto1,001,131,
0.25,Stim\\05_075.jpg,En75_26,Enojo,26,Víctor trae el café a Marco.,Afirmación,En75,75,,,,,0,105,105,105,,,,,,,,,1,3.26896415388,3,0.550583423178,,,,,,,,,2018_jun._11_1154,60.0898299131,Experimento Piloto1,001,131,
0.25,Stim\\05_019.jpg,En19_16,Enojo,16,Valeria modifica algunas imágenes.,Afirmación,En19,19,,,,,0,106,106,106,,,,,,,,,1,3.93226597028,3,1.0668116374,,,,,,,,,2018_jun._11_1154,60.0898299131,Experimento Piloto1,001,131,
2.5,Stim\\05_019.jpg,En19_21,Enojo,21,Mauro anuncia la actividad.,Afirmación,En19,19,,,,,0,107,107,107,,,,,,,,,1,3.77647047274,3,1.26729519053,,,,,,,,,2018_jun._11_1154,60.0898299131,Experimento Piloto1,001,131,
0.25,Stim\\03_028.jpg,Tr28_22,Tristeza,22,Enrique corre todas las mañanas.,Afirmación,Tr28,28,,,,,0,108,108,108,,,,,,,,,1,5.26798642695,3,0.816553706705,,,,,,,,,2018_jun._11_1154,60.0898299131,Experimento Piloto1,001,131,
2.5,Stim\\05_075.jpg,En75_28,Enojo,28,Antonio responde la pregunta.,Afirmación,En75,75,,,,,0,109,109,109,,,,,,,,,1,3.51186659717,3,0.716655540245,,,,,,,,,2018_jun._11_1154,60.0898299131,Experimento Piloto1,001,131,
2.5,Stim\\05_078.jpg,En78_28,Enojo,28,Antonio responde la pregunta.,Afirmación,En78,78,,,,,0,110,110,110,,,,,,,,,1,4.04966817082,2,6.54846999793,,,,,,,,,2018_jun._11_1154,60.0898299131,Experimento Piloto1,001,131,
2.5,Stim\\03_028.jpg,Tr28_26,Tristeza,26,Víctor trae el café a Marco.,Afirmación,Tr28,28,,,,,0,111,111,111,,,,,,,,,1,3.05660373991,2,7.11487465818,,,,,,,,,2018_jun._11_1154,60.0898299131,Experimento Piloto1,001,131,
2.5,Stim\\05_028.jpg,En28_20,Enojo,20,Karen analiza la idea.,Afirmación,En28,28,,,,,0,112,112,112,,,,,,,,,1,2.05599996787,3,1.98370172501,,,,,,,,,2018_jun._11_1154,60.0898299131,Experimento Piloto1,001,131,
2.5,Stim\\02_019.jpg,Al19_30,Alegría,30,Marisol toma 2 litros de agua cada día.,Afirmación,Al19,19,,,,,0,113,113,113,,,,,,,,,1,4.81267403628,3,0.900162969363,,,,,,,,,2018_jun._11_1154,60.0898299131,Experimento Piloto1,001,131,
2.5,Stim\\05_078.jpg,En78_23,Enojo,23,Óscar consigue un nuevo departamento.,Afirmación,En78,78,,,,,0,114,114,114,,,,,,,,,1,3.41873130226,3,0.650767187645,,,,,,,,,2018_jun._11_1154,60.0898299131,Experimento Piloto1,001,131,
0.25,Stim\\05_078.jpg,En78_23,Enojo,23,Óscar consigue un nuevo departamento.,Afirmación,En78,78,,,,,0,115,115,115,,,,,,,,,1,2.21606158564,3,0.65005587011,,,,,,,,,2018_jun._11_1154,60.0898299131,Experimento Piloto1,001,131,
2.5,Stim\\05_019.jpg,En19_19,Enojo,19,Armando acompaña a Rodrígo a la tienda.,Afirmación,En19,19,,,,,0,116,116,116,,,,,,,,,1,5.12968202232,3,2.54933170066,,,,,,,,,2018_jun._11_1154,60.0898299131,Experimento Piloto1,001,131,
2.5,Stim\\03_078.jpg,Tr78_17,Tristeza,17,Brenda sube el autobús en las mañanas.,Afirmación,Tr78,78,,,,,0,117,117,117,,,,,,,,,1,3.06566879913,3,1.58273997372,,,,,,,,,2018_jun._11_1154,60.0898299131,Experimento Piloto1,001,131,
0.25,Stim\\05_075.jpg,En75_20,Enojo,20,Karen analiza la idea.,Afirmación,En75,75,,,,,0,118,118,118,,,,,,,,,1,3.41891381723,3,0.900313354563,,,,,,,,,2018_jun._11_1154,60.0898299131,Experimento Piloto1,001,131,
0.25,Stim\\05_078.jpg,En78_28,Enojo,28,Antonio responde la pregunta.,Afirmación,En78,78,,,,,0,119,119,119,,,,,,,,,1,7.01863571617,3,0.816520684436,,,,,,,,,2018_jun._11_1154,60.0898299131,Experimento Piloto1,001,131,
2.5,Stim\\05_028.jpg,En28_16,Enojo,16,Valeria modifica algunas imágenes.,Afirmación,En28,28,,,,,,,,,0,0,0,0,,,,,,,,,1,21.7603283842,2,3.41692801859,,,,,2018_jun._11_1154,60.0898299131,Experimento Piloto1,001,131,
2.5,Stim\\05_028.jpg,En28_29,Enojo,29,Miriam mira la película.,Afirmación,En28,28,,,,,,,,,0,1,1,1,,,,,,,,,1,4.5223422428,2,1.36685777933,,,,,2018_jun._11_1154,60.0898299131,Experimento Piloto1,001,131,
0.25,Stim\\03_028.jpg,Tr28_29,Tristeza,29,Miriam mira la película.,Afirmación,Tr28,28,,,,,,,,,0,2,2,2,,,,,,,,,1,4.56546664929,4,0.916374672455,,,,,2018_jun._11_1154,60.0898299131,Experimento Piloto1,001,131,
2.5,Stim\\02_075.jpg,Al75_22,Alegría,22,Enrique corre todas las mañanas.,Afirmación,Al75,75,,,,,,,,,0,3,3,3,,,,,,,,,1,4.4003298657,3,3.6661104943,,,,,2018_jun._11_1154,60.0898299131,Experimento Piloto1,001,131,
2.5,Stim\\05_019.jpg,En19_17,Enojo,17,Brenda sube el autobús en las mañanas.,Afirmación,En19,19,,,,,,,,,0,4,4,4,,,,,,,,,1,4.19653649943,2,3.98269409955,,,,,2018_jun._11_1154,60.0898299131,Experimento Piloto1,001,131,
2.5,Stim\\02_028.jpg,Al28_17,Alegría,17,Brenda sube el autobús en las mañanas.,Afirmación,Al28,28,,,,,,,,,0,5,5,5,,,,,,,,,1,4.16514213856,3,2.54969003691,,,,,2018_jun._11_1154,60.0898299131,Experimento Piloto1,001,131,
0.25,Stim\\05_075.jpg,En75_24,Enojo,24,Guadalupe comenta los resultados con los compañeros.,Afirmación,En75,75,,,,,,,,,0,6,6,6,,,,,,,,,1,4.99928154251,2,1.93356410247,,,,,2018_jun._11_1154,60.0898299131,Experimento Piloto1,001,131,
2.5,Stim\\03_078.jpg,Tr78_23,Tristeza,23,Óscar consigue un nuevo departamento.,Afirmación,Tr78,78,,,,,,,,,0,7,7,7,,,,,,,,,1,3.42237089185,4,3.66597260401,,,,,2018_jun._11_1154,60.0898299131,Experimento Piloto1,001,131,
0.25,Stim\\05_075.jpg,En75_16,Enojo,16,Valeria modifica algunas imágenes.,Afirmación,En75,75,,,,,,,,,0,8,8,8,,,,,,,,,1,5.01642411661,4,7.88129163483,,,,,2018_jun._11_1154,60.0898299131,Experimento Piloto1,001,131,
0.25,Stim\\02_078.jpg,Al78_23,Alegría,23,Óscar consigue un nuevo departamento.,Afirmación,Al78,78,,,,,,,,,0,9,9,9,,,,,,,,,1,2.74787095611,2,1.16690615249,,,,,2018_jun._11_1154,60.0898299131,Experimento Piloto1,001,131,
2.5,Stim\\05_078.jpg,En78_24,Enojo,24,Guadalupe comenta los resultados con los compañeros.,Afirmación,En78,78,,,,,,,,,0,10,10,10,,,,,,,,,1,4.65407343082,2,2.28281744218,,,,,2018_jun._11_1154,60.0898299131,Experimento Piloto1,001,131,
2.5,Stim\\03_028.jpg,Tr28_28,Tristeza,28,Antonio responde la pregunta.,Afirmación,Tr28,28,,,,,,,,,0,11,11,11,,,,,,,,,1,3.23041020799,4,6.79859226958,,,,,2018_jun._11_1154,60.0898299131,Experimento Piloto1,001,131,
0.25,Stim\\02_019.jpg,Al19_20,Alegría,20,Karen analiza la idea.,Afirmación,Al19,19,,,,,,,,,0,12,12,12,,,,,,,,,1,2.20845843121,3,3.26590959395,,,,,2018_jun._11_1154,60.0898299131,Experimento Piloto1,001,131,
2.5,Stim\\05_078.jpg,En78_27,Enojo,27,Claudia informa los avances en el reporte.,Afirmación,En78,78,,,,,,,,,0,13,13,13,,,,,,,,,1,9.97582412875,3,3.06635735808,,,,,2018_jun._11_1154,60.0898299131,Experimento Piloto1,001,131,
0.25,Stim\\05_028.jpg,En28_28,Enojo,28,Antonio responde la pregunta.,Afirmación,En28,28,,,,,,,,,0,14,14,14,,,,,,,,,1,1.98696602098,2,2.08305770151,,,,,2018_jun._11_1154,60.0898299131,Experimento Piloto1,001,131,
2.5,Stim\\03_078.jpg,Tr78_30,Tristeza,30,Marisol toma 2 litros de agua cada día.,Afirmación,Tr78,78,,,,,,,,,0,15,15,15,,,,,,,,,1,2.71481968056,4,1.93326422457,,,,,2018_jun._11_1154,60.0898299131,Experimento Piloto1,001,131,
0.25,Stim\\03_028.jpg,Tr28_27,Tristeza,27,Claudia informa los avances en el reporte.,Afirmación,Tr28,28,,,,,,,,,0,16,16,16,,,,,,,,,1,3.21123631807,4,1.51658342675,,,,,2018_jun._11_1154,60.0898299131,Experimento Piloto1,001,131,
0.25,Stim\\02_075.jpg,Al75_24,Alegría,24,Guadalupe comenta los resultados con los compañeros.,Afirmación,Al75,75,,,,,,,,,0,17,17,17,,,,,,,,,1,5.5712964186,3,1.83305814775,,,,,2018_jun._11_1154,60.0898299131,Experimento Piloto1,001,131,
0.25,Stim\\02_019.jpg,Al19_16,Alegría,16,Valeria modifica algunas imágenes.,Afirmación,Al19,19,,,,,,,,,0,18,18,18,,,,,,,,,1,2.50010174429,3,0.600171715801,,,,,2018_jun._11_1154,60.0898299131,Experimento Piloto1,001,131,
2.5,Stim\\02_028.jpg,Al28_30,Alegría,30,Marisol toma 2 litros de agua cada día.,Afirmación,Al28,28,,,,,,,,,0,19,19,19,,,,,,,,,1,5.48082164761,3,0.550461597778,,,,,2018_jun._11_1154,60.0898299131,Experimento Piloto1,001,131,
2.5,Stim\\05_078.jpg,En78_16,Enojo,16,Valeria modifica algunas imágenes.,Afirmación,En78,78,,,,,,,,,0,20,20,20,,,,,,,,,1,2.81713248892,2,2.6997351971,,,,,2018_jun._11_1154,60.0898299131,Experimento Piloto1,001,131,
0.25,Stim\\02_075.jpg,Al75_28,Alegría,28,Antonio responde la pregunta.,Afirmación,Al75,75,,,,,,,,,0,21,21,21,,,,,,,,,1,2.13672201318,3,0.400289703477,,,,,2018_jun._11_1154,60.0898299131,Experimento Piloto1,001,131,
2.5,Stim\\03_075.jpg,Tr75_17,Tristeza,17,Brenda sube el autobús en las mañanas.,Afirmación,Tr75,75,,,,,,,,,0,22,22,22,,,,,,,,,1,6.24715249863,4,1.76642099288,,,,,2018_jun._11_1154,60.0898299131,Experimento Piloto1,001,131,
0.25,Stim\\05_075.jpg,En75_18,Enojo,18,Sofía escucha la música.,Afirmación,En75,75,,,,,,,,,0,23,23,23,,,,,,,,,1,11.0044450652,3,1.21702681765,,,,,2018_jun._11_1154,60.0898299131,Experimento Piloto1,001,131,
2.5,Stim\\02_075.jpg,Al75_25,Alegría,25,Luis decide la comida siguiente.,Afirmación,Al75,75,,,,,,,,,0,24,24,24,,,,,,,,,1,2.90031201582,3,0.800363869711,,,,,2018_jun._11_1154,60.0898299131,Experimento Piloto1,001,131,
0.25,Stim\\02_028.jpg,Al28_18,Alegría,18,Sofía escucha la música.,Afirmación,Al28,28,,,,,,,,,0,25,25,25,,,,,,,,,1,1.95672743954,3,0.749715294487,,,,,2018_jun._11_1154,60.0898299131,Experimento Piloto1,001,131,
0.25,Stim\\02_028.jpg,Al28_23,Alegría,23,Óscar consigue un nuevo departamento.,Afirmación,Al28,28,,,,,,,,,0,26,26,26,,,,,,,,,1,3.31308681465,3,0.500812615578,,,,,2018_jun._11_1154,60.0898299131,Experimento Piloto1,001,131,
0.25,Stim\\02_075.jpg,Al75_19,Alegría,19,Armando acompaña a Rodrígo a la tienda.,Afirmación,Al75,75,,,,,,,,,0,27,27,27,,,,,,,,,1,2.94964282399,3,0.534037481169,,,,,2018_jun._11_1154,60.0898299131,Experimento Piloto1,001,131,
2.5,Stim\\05_019.jpg,En19_16,Enojo,16,Valeria modifica algunas imágenes.,Afirmación,En19,19,,,,,,,,,0,28,28,28,,,,,,,,,1,2.55398694817,2,3.0162032244,,,,,2018_jun._11_1154,60.0898299131,Experimento Piloto1,001,131,
2.5,Stim\\02_019.jpg,Al19_25,Alegría,25,Luis decide la comida siguiente.,Afirmación,Al19,19,,,,,,,,,0,29,29,29,,,,,,,,,1,2.68533302513,3,1.36643518353,,,,,2018_jun._11_1154,60.0898299131,Experimento Piloto1,001,131,
0.25,Stim\\02_078.jpg,Al78_27,Alegría,27,Claudia informa los avances en el reporte.,Afirmación,Al78,78,,,,,,,,,0,30,30,30,,,,,,,,,1,3.66745191244,3,0.800220178213,,,,,2018_jun._11_1154,60.0898299131,Experimento Piloto1,001,131,
0.25,Stim\\03_019.jpg,Tr19_22,Tristeza,22,Enrique corre todas las mañanas.,Afirmación,Tr19,19,,,,,,,,,0,31,31,31,,,,,,,,,1,3.79986898191,3,1.00085679402,,,,,2018_jun._11_1154,60.0898299131,Experimento Piloto1,001,131,
2.5,Stim\\05_019.jpg,En19_26,Enojo,26,Víctor trae el café a Marco.,Afirmación,En19,19,,,,,,,,,0,32,32,32,,,,,,,,,1,8.30300520502,3,0.650145119487,,,,,2018_jun._11_1154,60.0898299131,Experimento Piloto1,001,131,
2.5,Stim\\02_078.jpg,Al78_26,Alegría,26,Víctor trae el café a Marco.,Afirmación,Al78,78,,,,,,,,,0,33,33,33,,,,,,,,,1,2.38309938097,3,0.700126555616,,,,,2018_jun._11_1154,60.0898299131,Experimento Piloto1,001,131,
0.25,Stim\\05_078.jpg,En78_17,Enojo,17,Brenda sube el autobús en las mañanas.,Afirmación,En78,78,,,,,,,,,0,34,34,34,,,,,,,,,1,2.947206316,3,0.716882679909,,,,,2018_jun._11_1154,60.0898299131,Experimento Piloto1,001,131,
0.25,Stim\\05_078.jpg,En78_21,Enojo,21,Mauro anuncia la actividad.,Afirmación,En78,78,,,,,,,,,0,35,35,35,,,,,,,,,1,2.65396990154,2,1.36640573124,,,,,2018_jun._11_1154,60.0898299131,Experimento Piloto1,001,131,
2.5,Stim\\03_078.jpg,Tr78_20,Tristeza,20,Karen analiza la idea.,Afirmación,Tr78,78,,,,,,,,,0,36,36,36,,,,,,,,,1,3.01536115653,4,2.03306243172,,,,,2018_jun._11_1154,60.0898299131,Experimento Piloto1,001,131,
0.25,Stim\\03_078.jpg,Tr78_28,Tristeza,28,Antonio responde la pregunta.,Afirmación,Tr78,78,,,,,,,,,0,37,37,37,,,,,,,,,1,2.40411270054,2,1.63239341839,,,,,2018_jun._11_1154,60.0898299131,Experimento Piloto1,001,131,
2.5,Stim\\03_028.jpg,Tr28_17,Tristeza,17,Brenda sube el autobús en las mañanas.,Afirmación,Tr28,28,,,,,,,,,0,38,38,38,,,,,,,,,1,3.35282777726,4,3.36607372356,,,,,2018_jun._11_1154,60.0898299131,Experimento Piloto1,001,131,
0.25,Stim\\02_028.jpg,Al28_27,Alegría,27,Claudia informa los avances en el reporte.,Afirmación,Al28,28,,,,,,,,,0,39,39,39,,,,,,,,,1,2.81062933306,3,1.21649890759,,,,,2018_jun._11_1154,60.0898299131,Experimento Piloto1,001,131,
2.5,Stim\\02_019.jpg,Al19_28,Alegría,28,Antonio responde la pregunta.,Afirmación,Al19,19,,,,,,,,,0,40,40,40,,,,,,,,,1,1.83741173237,3,0.700812437079,,,,,2018_jun._11_1154,60.0898299131,Experimento Piloto1,001,131,
0.25,Stim\\02_019.jpg,Al19_17,Alegría,17,Brenda sube el autobús en las mañanas.,Afirmación,Al19,19,,,,,,,,,0,41,41,41,,,,,,,,,1,2.44820814026,3,0.45080083466,,,,,2018_jun._11_1154,60.0898299131,Experimento Piloto1,001,131,
2.5,Stim\\03_075.jpg,Tr75_21,Tristeza,21,Mauro anuncia la actividad.,Afirmación,Tr75,75,,,,,,,,,0,42,42,42,,,,,,,,,1,3.01686456229,4,0.9667693332,,,,,2018_jun._11_1154,60.0898299131,Experimento Piloto1,001,131,
0.25,Stim\\03_075.jpg,Tr75_26,Tristeza,26,Víctor trae el café a Marco.,Afirmación,Tr75,75,,,,,,,,,0,43,43,43,,,,,,,,,1,2.13839097653,4,0.55041251062,,,,,2018_jun._11_1154,60.0898299131,Experimento Piloto1,001,131,
0.25,Stim\\02_075.jpg,Al75_18,Alegría,18,Sofía escucha la música.,Afirmación,Al75,75,,,,,,,,,0,44,44,44,,,,,,,,,1,2.15177213563,3,0.48363612672,,,,,2018_jun._11_1154,60.0898299131,Experimento Piloto1,001,131,
2.5,Stim\\05_028.jpg,En28_27,Enojo,27,Claudia informa los avances en el reporte.,Afirmación,En28,28,,,,,,,,,0,45,45,45,,,,,,,,,1,2.81143346994,2,1.01665214877,,,,,2018_jun._11_1154,60.0898299131,Experimento Piloto1,001,131,
0.25,Stim\\02_019.jpg,Al19_23,Alegría,23,Óscar consigue un nuevo departamento.,Afirmación,Al19,19,,,,,,,,,0,46,46,46,,,,,,,,,1,2.59356279943,3,1.11744593273,,,,,2018_jun._11_1154,60.0898299131,Experimento Piloto1,001,131,
0.25,Stim\\03_075.jpg,Tr75_21,Tristeza,21,Mauro anuncia la actividad.,Afirmación,Tr75,75,,,,,,,,,0,47,47,47,,,,,,,,,1,1.88783807664,4,0.700168949071,,,,,2018_jun._11_1154,60.0898299131,Experimento Piloto1,001,131,
0.25,Stim\\02_078.jpg,Al78_28,Alegría,28,Antonio responde la pregunta.,Afirmación,Al78,78,,,,,,,,,0,48,48,48,,,,,,,,,1,3.83201482254,3,1.16655763368,,,,,2018_jun._11_1154,60.0898299131,Experimento Piloto1,001,131,
2.5,Stim\\03_075.jpg,Tr75_23,Tristeza,23,Óscar consigue un nuevo departamento.,Afirmación,Tr75,75,,,,,,,,,0,49,49,49,,,,,,,,,1,3.0973420643,4,1.93313882919,,,,,2018_jun._11_1154,60.0898299131,Experimento Piloto1,001,131,
0.25,Stim\\02_078.jpg,Al78_22,Alegría,22,Enrique corre todas las mañanas.,Afirmación,Al78,78,,,,,,,,,0,50,50,50,,,,,,,,,1,2.45330294095,3,3.51603766681,,,,,2018_jun._11_1154,60.0898299131,Experimento Piloto1,001,131,
2.5,Stim\\03_028.jpg,Tr28_23,Tristeza,23,Óscar consigue un nuevo departamento.,Afirmación,Tr28,28,,,,,,,,,0,51,51,51,,,,,,,,,1,2.76412862263,4,1.2166122543,,,,,2018_jun._11_1154,60.0898299131,Experimento Piloto1,001,131,
0.25,Stim\\02_028.jpg,Al28_19,Alegría,19,Armando acompaña a Rodrígo a la tienda.,Afirmación,Al28,28,,,,,,,,,0,52,52,52,,,,,,,,,1,3.86495989133,3,0.600170377061,,,,,2018_jun._11_1154,60.0898299131,Experimento Piloto1,001,131,
0.25,Stim\\03_028.jpg,Tr28_28,Tristeza,28,Antonio responde la pregunta.,Afirmación,Tr28,28,,,,,,,,,0,53,53,53,,,,,,,,,1,5.43561103693,4,1.36662349972,,,,,2018_jun._11_1154,60.0898299131,Experimento Piloto1,001,131,
2.5,Stim\\05_075.jpg,En75_16,Enojo,16,Valeria modifica algunas imágenes.,Afirmación,En75,75,,,,,,,,,0,54,54,54,,,,,,,,,1,2.69657666164,2,2.34960676724,,,,,2018_jun._11_1154,60.0898299131,Experimento Piloto1,001,131,
0.25,Stim\\03_019.jpg,Tr19_28,Tristeza,28,Antonio responde la pregunta.,Afirmación,Tr19,19,,,,,,,,,0,55,55,55,,,,,,,,,1,1.73748188238,3,0.950189476427,,,,,2018_jun._11_1154,60.0898299131,Experimento Piloto1,001,131,
2.5,Stim\\03_019.jpg,Tr19_24,Tristeza,24,Guadalupe comenta los resultados con los compañeros.,Afirmación,Tr19,19,,,,,,,,,0,56,56,56,,,,,,,,,1,3.27093522637,3,0.55030362638,,,,,2018_jun._11_1154,60.0898299131,Experimento Piloto1,001,131,
0.25,Stim\\03_019.jpg,Tr19_30,Tristeza,30,Marisol toma 2 litros de agua cada día.,Afirmación,Tr19,19,,,,,,,,,0,57,57,57,,,,,,,,,1,1.83104468181,3,0.599939667421,,,,,2018_jun._11_1154,60.0898299131,Experimento Piloto1,001,131,
0.25,Stim\\02_075.jpg,Al75_23,Alegría,23,Óscar consigue un nuevo departamento.,Afirmación,Al75,75,,,,,,,,,0,58,58,58,,,,,,,,,1,1.46172763589,3,0.650121022155,,,,,2018_jun._11_1154,60.0898299131,Experimento Piloto1,001,131,
2.5,Stim\\02_078.jpg,Al78_22,Alegría,22,Enrique corre todas las mañanas.,Afirmación,Al78,78,,,,,,,,,0,59,59,59,,,,,,,,,1,2.85856829719,3,0.54991405285,,,,,2018_jun._11_1154,60.0898299131,Experimento Piloto1,001,131,
2.5,Stim\\05_075.jpg,En75_20,Enojo,20,Karen analiza la idea.,Afirmación,En75,75,,,,,,,,,0,60,60,60,,,,,,,,,1,1.68986287726,2,0.816933909051,,,,,2018_jun._11_1154,60.0898299131,Experimento Piloto1,001,131,
2.5,Stim\\03_028.jpg,Tr28_18,Tristeza,18,Sofía escucha la música.,Afirmación,Tr28,28,,,,,,,,,0,61,61,61,,,,,,,,,1,2.3517050201,4,1.26679762525,,,,,2018_jun._11_1154,60.0898299131,Experimento Piloto1,001,131,
0.25,Stim\\02_028.jpg,Al28_22,Alegría,22,Enrique corre todas las mañanas.,Afirmación,Al28,28,,,,,,,,,0,62,62,62,,,,,,,,,1,2.02626609166,3,0.700834749423,,,,,2018_jun._11_1154,60.0898299131,Experimento Piloto1,001,131,
2.5,Stim\\03_075.jpg,Tr75_29,Tristeza,29,Miriam mira la película.,Afirmación,Tr75,75,,,,,,,,,0,63,63,63,,,,,,,,,1,1.99773440456,4,1.93305939725,,,,,2018_jun._11_1154,60.0898299131,Experimento Piloto1,001,131,
2.5,Stim\\05_075.jpg,En75_19,Enojo,19,Armando acompaña a Rodrígo a la tienda.,Afirmación,En75,75,,,,,,,,,0,64,64,64,,,,,,,,,1,2.39670767973,2,1.36687072049,,,,,2018_jun._11_1154,60.0898299131,Experimento Piloto1,001,131,
0.25,Stim\\05_078.jpg,En78_27,Enojo,27,Claudia informa los avances en el reporte.,Afirmación,En78,78,,,,,,,,,0,65,65,65,,,,,,,,,1,2.44591309253,2,1.16685885033,,,,,2018_jun._11_1154,60.0898299131,Experimento Piloto1,001,131,
0.25,Stim\\02_075.jpg,Al75_29,Alegría,29,Miriam mira la película.,Afirmación,Al75,75,,,,,,,,,0,66,66,66,,,,,,,,,1,2.25698956496,3,1.56675094783,,,,,2018_jun._11_1154,60.0898299131,Experimento Piloto1,001,131,
2.5,Stim\\03_075.jpg,Tr75_19,Tristeza,19,Armando acompaña a Rodrígo a la tienda.,Afirmación,Tr75,75,,,,,,,,,0,67,67,67,,,,,,,,,1,1.62989175836,4,1.41685661909,,,,,2018_jun._11_1154,60.0898299131,Experimento Piloto1,001,131,
2.5,Stim\\03_028.jpg,Tr28_22,Tristeza,22,Enrique corre todas las mañanas.,Afirmación,Tr28,28,,,,,,,,,0,68,68,68,,,,,,,,,1,1.02861468902,4,0.849838369378,,,,,2018_jun._11_1154,60.0898299131,Experimento Piloto1,001,131,
0.25,Stim\\03_078.jpg,Tr78_25,Tristeza,25,Luis decide la comida siguiente.,Afirmación,Tr78,78,,,,,,,,,0,69,69,69,,,,,,,,,1,3.1673925616,4,1.56665366601,,,,,2018_jun._11_1154,60.0898299131,Experimento Piloto1,001,131,
2.5,Stim\\02_028.jpg,Al28_19,Alegría,19,Armando acompaña a Rodrígo a la tienda.,Afirmación,Al28,28,,,,,,,,,0,70,70,70,,,,,,,,,1,1.99674507522,3,0.600289524979,,,,,2018_jun._11_1154,60.0898299131,Experimento Piloto1,001,131,
0.25,Stim\\02_075.jpg,Al75_25,Alegría,25,Luis decide la comida siguiente.,Afirmación,Al75,75,,,,,,,,,0,71,71,71,,,,,,,,,1,2.13281422921,3,0.500243204552,,,,,2018_jun._11_1154,60.0898299131,Experimento Piloto1,001,131,
2.5,Stim\\02_019.jpg,Al19_24,Alegría,24,Guadalupe comenta los resultados con los compañeros.,Afirmación,Al19,19,,,,,,,,,0,72,72,72,,,,,,,,,1,0.706003627095,3,0.800060421828,,,,,2018_jun._11_1154,60.0898299131,Experimento Piloto1,001,131,
0.25,Stim\\03_028.jpg,Tr28_23,Tristeza,23,Óscar consigue un nuevo departamento.,Afirmación,Tr28,28,,,,,,,,,0,73,73,73,,,,,,,,,1,1.01022173115,4,1.11774536439,,,,,2018_jun._11_1154,60.0898299131,Experimento Piloto1,001,131,
0.25,Stim\\03_028.jpg,Tr28_25,Tristeza,25,Luis decide la comida siguiente.,Afirmación,Tr28,28,,,,,,,,,0,74,74,74,,,,,,,,,1,1.3176653077,4,0.850551025654,,,,,2018_jun._11_1154,60.0898299131,Experimento Piloto1,001,131,
0.25,Stim\\05_019.jpg,En19_23,Enojo,23,Óscar consigue un nuevo departamento.,Afirmación,En19,19,,,,,,,,,0,75,75,75,,,,,,,,,1,2.06308592216,2,0.999604179013,,,,,2018_jun._11_1154,60.0898299131,Experimento Piloto1,001,131,
2.5,Stim\\03_019.jpg,Tr19_26,Tristeza,26,Víctor trae el café a Marco.,Afirmación,Tr19,19,,,,,,,,,0,76,76,76,,,,,,,,,1,0.971795411868,3,0.916838322968,,,,,2018_jun._11_1154,60.0898299131,Experimento Piloto1,001,131,
0.25,Stim\\05_028.jpg,En28_30,Enojo,30,Marisol toma 2 litros de agua cada día.,Afirmación,En28,28,,,,,,,,,0,77,77,77,,,,,,,,,1,2.1974566605,3,1.25031549655,,,,,2018_jun._11_1154,60.0898299131,Experimento Piloto1,001,131,
2.5,Stim\\02_019.jpg,Al19_26,Alegría,26,Víctor trae el café a Marco.,Afirmación,Al19,19,,,,,,,,,0,78,78,78,,,,,,,,,1,3.58220403122,3,0.666976213256,,,,,2018_jun._11_1154,60.0898299131,Experimento Piloto1,001,131,
0.25,Stim\\03_075.jpg,Tr75_27,Tristeza,27,Claudia informa los avances en el reporte.,Afirmación,Tr75,75,,,,,,,,,0,79,79,79,,,,,,,,,1,1.54372683979,2,1.26654906574,,,,,2018_jun._11_1154,60.0898299131,Experimento Piloto1,001,131,
2.5,Stim\\02_078.jpg,Al78_27,Alegría,27,Claudia informa los avances en el reporte.,Afirmación,Al78,78,,,,,,,,,0,80,80,80,,,,,,,,,1,1.03399642645,3,1.43364041069,,,,,2018_jun._11_1154,60.0898299131,Experimento Piloto1,001,131,
0.25,Stim\\02_019.jpg,Al19_26,Alegría,26,Víctor trae el café a Marco.,Afirmación,Al19,19,,,,,,,,,0,81,81,81,,,,,,,,,1,2.08694674311,3,0.600302912385,,,,,2018_jun._11_1154,60.0898299131,Experimento Piloto1,001,131,
0.25,Stim\\03_019.jpg,Tr19_29,Tristeza,29,Miriam mira la película.,Afirmación,Tr19,19,,,,,,,,,0,82,82,82,,,,,,,,,1,2.04039828427,2,1.11774313315,,,,,2018_jun._11_1154,60.0898299131,Experimento Piloto1,001,131,
2.5,Stim\\05_075.jpg,En75_27,Enojo,27,Claudia informa los avances en el reporte.,Afirmación,En75,75,,,,,,,,,0,83,83,83,,,,,,,,,1,1.47648412789,2,1.00020616606,,,,,2018_jun._11_1154,60.0898299131,Experimento Piloto1,001,131,
0.25,Stim\\05_019.jpg,En19_25,Enojo,25,Luis decide la comida siguiente.,Afirmación,En19,19,,,,,,,,,0,84,84,84,,,,,,,,,1,2.3007454108,2,0.916292116781,,,,,2018_jun._11_1154,60.0898299131,Experimento Piloto1,001,131,
2.5,Stim\\03_028.jpg,Tr28_20,Tristeza,20,Karen analiza la idea.,Afirmación,Tr28,28,,,,,,,,,0,85,85,85,,,,,,,,,1,2.92425405371,4,1.41659154844,,,,,2018_jun._11_1154,60.0898299131,Experimento Piloto1,001,131,
2.5,Stim\\05_028.jpg,En28_26,Enojo,26,Víctor trae el café a Marco.,Afirmación,En28,28,,,,,,,,,0,86,86,86,,,,,,,,,1,2.60496574609,2,1.73333937254,,,,,2018_jun._11_1154,60.0898299131,Experimento Piloto1,001,131,
0.25,Stim\\05_028.jpg,En28_21,Enojo,21,Mauro anuncia la actividad.,Afirmación,En28,28,,,,,,,,,0,87,87,87,,,,,,,,,1,1.58896333279,3,2.8495634813,,,,,2018_jun._11_1154,60.0898299131,Experimento Piloto1,001,131,
0.25,Stim\\03_075.jpg,Tr75_22,Tristeza,22,Enrique corre todas las mañanas.,Afirmación,Tr75,75,,,,,,,,,0,88,88,88,,,,,,,,,1,1.36935854688,4,0.816683564549,,,,,2018_jun._11_1154,60.0898299131,Experimento Piloto1,001,131,
0.25,Stim\\05_028.jpg,En28_27,Enojo,27,Claudia informa los avances en el reporte.,Afirmación,En28,28,,,,,,,,,0,89,89,89,,,,,,,,,1,1.28941341739,2,1.21715087429,,,,,2018_jun._11_1154,60.0898299131,Experimento Piloto1,001,131,
2.5,Stim\\03_075.jpg,Tr75_22,Tristeza,22,Enrique corre todas las mañanas.,Afirmación,Tr75,75,,,,,,,,,0,90,90,90,,,,,,,,,1,0.910478858607,4,0.700862862977,,,,,2018_jun._11_1154,60.0898299131,Experimento Piloto1,001,131,
0.25,Stim\\05_019.jpg,En19_28,Enojo,28,Antonio responde la pregunta.,Afirmación,En19,19,,,,,,,,,0,91,91,91,,,,,,,,,1,1.05763278522,2,1.21672024604,,,,,2018_jun._11_1154,60.0898299131,Experimento Piloto1,001,131,
2.5,Stim\\03_019.jpg,Tr19_17,Tristeza,17,Brenda sube el autobús en las mañanas.,Afirmación,Tr19,19,,,,,,,,,0,92,92,92,,,,,,,,,1,0.830690808029,3,0.600290417473,,,,,2018_jun._11_1154,60.0898299131,Experimento Piloto1,001,131,
0.25,Stim\\05_028.jpg,En28_29,Enojo,29,Miriam mira la película.,Afirmación,En28,28,,,,,,,,,0,93,93,93,,,,,,,,,1,2.18889362902,3,0.550487033851,,,,,2018_jun._11_1154,60.0898299131,Experimento Piloto1,001,131,
0.25,Stim\\05_028.jpg,En28_18,Enojo,18,Sofía escucha la música.,Afirmación,En28,28,,,,,,,,,0,94,94,94,,,,,,,,,1,1.16783836224,3,0.700875804137,,,,,2018_jun._11_1154,60.0898299131,Experimento Piloto1,001,131,
0.25,Stim\\05_028.jpg,En28_25,Enojo,25,Luis decide la comida siguiente.,Afirmación,En28,28,,,,,,,,,0,95,95,95,,,,,,,,,1,1.21699825785,3,0.750861702736,,,,,2018_jun._11_1154,60.0898299131,Experimento Piloto1,001,131,
2.5,Stim\\03_075.jpg,Tr75_16,Tristeza,16,Valeria modifica algunas imágenes.,Afirmación,Tr75,75,,,,,,,,,0,96,96,96,,,,,,,,,1,1.12035278494,4,3.16637377996,,,,,2018_jun._11_1154,60.0898299131,Experimento Piloto1,001,131,
2.5,Stim\\05_019.jpg,En19_18,Enojo,18,Sofía escucha la música.,Afirmación,En19,19,,,,,,,,,0,97,97,97,,,,,,,,,1,1.89092387385,2,1.73329831783,,,,,2018_jun._11_1154,60.0898299131,Experimento Piloto1,001,131,
0.25,Stim\\05_075.jpg,En75_28,Enojo,28,Antonio responde la pregunta.,Afirmación,En75,75,,,,,,,,,0,98,98,98,,,,,,,,,1,2.18724073056,2,1.31763228543,,,,,2018_jun._11_1154,60.0898299131,Experimento Piloto1,001,131,
0.25,Stim\\03_019.jpg,Tr19_24,Tristeza,24,Guadalupe comenta los resultados con los compañeros.,Afirmación,Tr19,19,,,,,,,,,0,99,99,99,,,,,,,,,1,2.60027524508,3,0.850116381188,,,,,2018_jun._11_1154,60.0898299131,Experimento Piloto1,001,131,
0.25,Stim\\02_075.jpg,Al75_21,Alegría,21,Mauro anuncia la actividad.,Afirmación,Al75,75,,,,,,,,,0,100,100,100,,,,,,,,,1,3.53803942323,3,2.69995519681,,,,,2018_jun._11_1154,60.0898299131,Experimento Piloto1,001,131,
0.25,Stim\\03_019.jpg,Tr19_23,Tristeza,23,Óscar consigue un nuevo departamento.,Afirmación,Tr19,19,,,,,,,,,0,101,101,101,,,,,,,,,1,3.71409274438,3,0.866672586876,,,,,2018_jun._11_1154,60.0898299131,Experimento Piloto1,001,131,
2.5,Stim\\05_028.jpg,En28_30,Enojo,30,Marisol toma 2 litros de agua cada día.,Afirmación,En28,28,,,,,,,,,0,102,102,102,,,,,,,,,1,1.63083378553,2,1.26651024226,,,,,2018_jun._11_1154,60.0898299131,Experimento Piloto1,001,131,
0.25,Stim\\02_078.jpg,Al78_19,Alegría,19,Armando acompaña a Rodrígo a la tienda.,Afirmación,Al78,78,,,,,,,,,0,103,103,103,,,,,,,,,1,3.16394753565,3,0.900185281707,,,,,2018_jun._11_1154,60.0898299131,Experimento Piloto1,001,131,
2.5,Stim\\03_075.jpg,Tr75_25,Tristeza,25,Luis decide la comida siguiente.,Afirmación,Tr75,75,,,,,,,,,0,104,104,104,,,,,,,,,1,0.866054088692,4,1.16693515854,,,,,2018_jun._11_1154,60.0898299131,Experimento Piloto1,001,131,
2.5,Stim\\03_028.jpg,Tr28_29,Tristeza,29,Miriam mira la película.,Afirmación,Tr28,28,,,,,,,,,0,105,105,105,,,,,,,,,1,2.40636401608,4,2.03335606217,,,,,2018_jun._11_1154,60.0898299131,Experimento Piloto1,001,131,
0.25,Stim\\03_028.jpg,Tr28_24,Tristeza,24,Guadalupe comenta los resultados con los compañeros.,Afirmación,Tr28,28,,,,,,,,,0,106,106,106,,,,,,,,,1,1.88949633007,4,1.00012807286,,,,,2018_jun._11_1154,60.0898299131,Experimento Piloto1,001,131,
0.25,Stim\\02_075.jpg,Al75_30,Alegría,30,Marisol toma 2 litros de agua cada día.,Afirmación,Al75,75,,,,,,,,,0,107,107,107,,,,,,,,,1,1.47992513762,3,1.46667517511,,,,,2018_jun._11_1154,60.0898299131,Experimento Piloto1,001,131,
2.5,Stim\\05_019.jpg,En19_27,Enojo,27,Claudia informa los avances en el reporte.,Afirmación,En19,19,,,,,,,,,0,108,108,108,,,,,,,,,1,1.26263994302,2,1.31682190108,,,,,2018_jun._11_1154,60.0898299131,Experimento Piloto1,001,131,
2.5,Stim\\05_075.jpg,En75_18,Enojo,18,Sofía escucha la música.,Afirmación,En75,75,,,,,,,,,0,109,109,109,,,,,,,,,1,2.7218984949,2,5.58199340269,,,,,2018_jun._11_1154,60.0898299131,Experimento Piloto1,001,131,
2.5,Stim\\02_028.jpg,Al28_23,Alegría,23,Óscar consigue un nuevo departamento.,Afirmación,Al28,28,,,,,,,,,0,110,110,110,,,,,,,,,1,1.16506136787,3,1.58297380709,,,,,2018_jun._11_1154,60.0898299131,Experimento Piloto1,001,131,
2.5,Stim\\05_078.jpg,En78_29,Enojo,29,Miriam mira la película.,Afirmación,En78,78,,,,,,,,,0,111,111,111,,,,,,,,,1,1.42401352664,2,1.83318532812,,,,,2018_jun._11_1154,60.0898299131,Experimento Piloto1,001,131,
0.25,Stim\\03_078.jpg,Tr78_20,Tristeza,20,Karen analiza la idea.,Afirmación,Tr78,78,,,,,,,,,0,112,112,112,,,,,,,,,1,1.8919846027,4,1.83328394868,,,,,2018_jun._11_1154,60.0898299131,Experimento Piloto1,001,131,
0.25,Stim\\02_019.jpg,Al19_25,Alegría,25,Luis decide la comida siguiente.,Afirmación,Al19,19,,,,,,,,,0,113,113,113,,,,,,,,,1,2.6004010867,3,0.450280064545,,,,,2018_jun._11_1154,60.0898299131,Experimento Piloto1,001,131,
2.5,Stim\\03_078.jpg,Tr78_16,Tristeza,16,Valeria modifica algunas imágenes.,Afirmación,Tr78,78,,,,,,,,,0,114,114,114,,,,,,,,,1,5.53041440271,4,1.36675692754,,,,,2018_jun._11_1154,60.0898299131,Experimento Piloto1,001,131,
0.25,Stim\\02_028.jpg,Al28_21,Alegría,21,Mauro anuncia la actividad.,Afirmación,Al28,28,,,,,,,,,0,115,115,115,,,,,,,,,1,1.73843194199,3,0.550112186467,,,,,2018_jun._11_1154,60.0898299131,Experimento Piloto1,001,131,
2.5,Stim\\05_019.jpg,En19_30,Enojo,30,Marisol toma 2 litros de agua cada día.,Afirmación,En19,19,,,,,,,,,0,116,116,116,,,,,,,,,1,1.47887868868,2,1.00056137858,,,,,2018_jun._11_1154,60.0898299131,Experimento Piloto1,001,131,
0.25,Stim\\05_078.jpg,En78_26,Enojo,26,Víctor trae el café a Marco.,Afirmación,En78,78,,,,,,,,,0,117,117,117,,,,,,,,,1,2.8708815875,2,0.950224729931,,,,,2018_jun._11_1154,60.0898299131,Experimento Piloto1,001,131,
0.25,Stim\\02_078.jpg,Al78_21,Alegría,21,Mauro anuncia la actividad.,Afirmación,Al78,78,,,,,,,,,0,118,118,118,,,,,,,,,1,4.15464105686,3,1.16691507743,,,,,2018_jun._11_1154,60.0898299131,Experimento Piloto1,001,131,
0.25,Stim\\03_075.jpg,Tr75_30,Tristeza,30,Marisol toma 2 litros de agua cada día.,Afirmación,Tr75,75,,,,,,,,,0,119,119,119,,,,,,,,,1,4.1267408091,3,0.750343163855,,,,,2018_jun._11_1154,60.0898299131,Experimento Piloto1,001,131,
2.5,Stim\\03_019.jpg,Tr19_16,Tristeza,16,Valeria modifica algunas imágenes.,Afirmación,Tr19,19,,,,,,,,,,,,,0,0,0,0,,,,,,,,,1,3.5164468752,3,1.21647124028,2018_jun._11_1154,60.0898299131,Experimento Piloto1,001,131,
2.5,Stim\\05_078.jpg,En78_19,Enojo,19,Armando acompaña a Rodrígo a la tienda.,Afirmación,En78,78,,,,,,,,,,,,,0,1,1,1,,,,,,,,,1,0.747846858779,2,1.01692837559,2018_jun._11_1154,60.0898299131,Experimento Piloto1,001,131,
2.5,Stim\\02_075.jpg,Al75_21,Alegría,21,Mauro anuncia la actividad.,Afirmación,Al75,75,,,,,,,,,,,,,0,2,2,2,,,,,,,,,1,3.07120449174,3,0.500427504516,2018_jun._11_1154,60.0898299131,Experimento Piloto1,001,131,
0.25,Stim\\02_075.jpg,Al75_16,Alegría,16,Valeria modifica algunas imágenes.,Afirmación,Al75,75,,,,,,,,,,,,,0,3,3,3,,,,,,,,,1,3.11481887731,3,2.44957410197,2018_jun._11_1154,60.0898299131,Experimento Piloto1,001,131,
0.25,Stim\\05_078.jpg,En78_30,Enojo,30,Marisol toma 2 litros de agua cada día.,Afirmación,En78,78,,,,,,,,,,,,,0,4,4,4,,,,,,,,,1,2.49725558166,3,0.800004194721,2018_jun._11_1154,60.0898299131,Experimento Piloto1,001,131,
0.25,Stim\\02_019.jpg,Al19_22,Alegría,22,Enrique corre todas las mañanas.,Afirmación,Al19,19,,,,,,,,,,,,,0,5,5,5,,,,,,,,,1,1.63384327452,3,2.08310321869,2018_jun._11_1154,60.0898299131,Experimento Piloto1,001,131,
2.5,Stim\\05_028.jpg,En28_23,Enojo,23,Óscar consigue un nuevo departamento.,Afirmación,En28,28,,,,,,,,,,,,,0,6,6,6,,,,,,,,,1,0.765560628887,3,0.650354855523,2018_jun._11_1154,60.0898299131,Experimento Piloto1,001,131,
0.25,Stim\\03_019.jpg,Tr19_16,Tristeza,16,Valeria modifica algunas imágenes.,Afirmación,Tr19,19,,,,,,,,,,,,,0,7,7,7,,,,,,,,,1,1.21496604954,3,1.26679360903,2018_jun._11_1154,60.0898299131,Experimento Piloto1,001,131,
0.25,Stim\\02_078.jpg,Al78_17,Alegría,17,Brenda sube el autobús en las mañanas.,Afirmación,Al78,78,,,,,,,,,,,,,0,8,8,8,,,,,,,,,1,1.26242217454,3,0.60038100559,2018_jun._11_1154,60.0898299131,Experimento Piloto1,001,131,
0.25,Stim\\02_078.jpg,Al78_16,Alegría,16,Valeria modifica algunas imágenes.,Afirmación,Al78,78,,,,,,,,,,,,,0,9,9,9,,,,,,,,,1,2.08047750202,3,0.650365119202,2018_jun._11_1154,60.0898299131,Experimento Piloto1,001,131,
0.25,Stim\\05_075.jpg,En75_22,Enojo,22,Enrique corre todas las mañanas.,Afirmación,En75,75,,,,,,,,,,,,,0,10,10,10,,,,,,,,,1,2.00164932849,2,1.31678129262,2018_jun._11_1154,60.0898299131,Experimento Piloto1,001,131,
0.25,Stim\\02_028.jpg,Al28_26,Alegría,26,Víctor trae el café a Marco.,Afirmación,Al28,28,,,,,,,,,,,,,0,11,11,11,,,,,,,,,1,2.23424079125,3,0.550290685221,2018_jun._11_1154,60.0898299131,Experimento Piloto1,001,131,
2.5,Stim\\03_075.jpg,Tr75_28,Tristeza,28,Antonio responde la pregunta.,Afirmación,Tr75,75,,,,,,,,,,,,,0,12,12,12,,,,,,,,,1,1.63017735636,4,1.6836100659,2018_jun._11_1154,60.0898299131,Experimento Piloto1,001,131,
0.25,Stim\\05_075.jpg,En75_23,Enojo,23,Óscar consigue un nuevo departamento.,Afirmación,En75,75,,,,,,,,,,,,,0,13,13,13,,,,,,,,,1,2.29890196491,2,1.61694078125,2018_jun._11_1154,60.0898299131,Experimento Piloto1,001,131,
2.5,Stim\\02_078.jpg,Al78_28,Alegría,28,Antonio responde la pregunta.,Afirmación,Al78,78,,,,,,,,,,,,,0,14,14,14,,,,,,,,,1,1.43771018228,3,0.700309516839,2018_jun._11_1154,60.0898299131,Experimento Piloto1,001,131,
2.5,Stim\\02_028.jpg,Al28_18,Alegría,18,Sofía escucha la música.,Afirmación,Al28,28,,,,,,,,,,,,,0,15,15,15,,,,,,,,,1,1.52462211814,3,0.700145744233,2018_jun._11_1154,60.0898299131,Experimento Piloto1,001,131,
2.5,Stim\\02_019.jpg,Al19_22,Alegría,22,Enrique corre todas las mañanas.,Afirmación,Al19,19,,,,,,,,,,,,,0,16,16,16,,,,,,,,,1,1.63150494085,3,1.16665982421,2018_jun._11_1154,60.0898299131,Experimento Piloto1,001,131,
2.5,Stim\\05_028.jpg,En28_28,Enojo,28,Antonio responde la pregunta.,Afirmación,En28,28,,,,,,,,,,,,,0,17,17,17,,,,,,,,,1,3.06949536617,2,1.21673541844,2018_jun._11_1154,60.0898299131,Experimento Piloto1,001,131,
0.25,Stim\\03_078.jpg,Tr78_30,Tristeza,30,Marisol toma 2 litros de agua cada día.,Afirmación,Tr78,78,,,,,,,,,,,,,0,18,18,18,,,,,,,,,1,2.76483056898,4,1.31648498468,2018_jun._11_1154,60.0898299131,Experimento Piloto1,001,131,
0.25,Stim\\03_019.jpg,Tr19_20,Tristeza,20,Karen analiza la idea.,Afirmación,Tr19,19,,,,,,,,,,,,,0,19,19,19,,,,,,,,,1,2.09188178742,3,0.650311569575,2018_jun._11_1154,60.0898299131,Experimento Piloto1,001,131,
0.25,Stim\\05_028.jpg,En28_19,Enojo,19,Armando acompaña a Rodrígo a la tienda.,Afirmación,En28,28,,,,,,,,,,,,,0,20,20,20,,,,,,,,,1,2.34761338241,2,1.36662082224,2018_jun._11_1154,60.0898299131,Experimento Piloto1,001,131,
0.25,Stim\\05_019.jpg,En19_26,Enojo,26,Víctor trae el café a Marco.,Afirmación,En19,19,,,,,,,,,,,,,0,21,21,21,,,,,,,,,1,2.55135409155,2,2.39969084016,2018_jun._11_1154,60.0898299131,Experimento Piloto1,001,131,
0.25,Stim\\02_028.jpg,Al28_16,Alegría,16,Valeria modifica algunas imágenes.,Afirmación,Al28,28,,,,,,,,,,,,,0,22,22,22,,,,,,,,,1,1.68468953712,3,0.750201703592,2018_jun._11_1154,60.0898299131,Experimento Piloto1,001,131,
2.5,Stim\\02_075.jpg,Al75_17,Alegría,17,Brenda sube el autobús en las mañanas.,Afirmación,Al75,75,,,,,,,,,,,,,0,23,23,23,,,,,,,,,1,2.29808979558,3,0.450079699694,2018_jun._11_1154,60.0898299131,Experimento Piloto1,001,131,
2.5,Stim\\05_075.jpg,En75_30,Enojo,30,Marisol toma 2 litros de agua cada día.,Afirmación,En75,75,,,,,,,,,,,,,0,24,24,24,,,,,,,,,1,2.59678648693,2,1.06690936547,2018_jun._11_1154,60.0898299131,Experimento Piloto1,001,131,
2.5,Stim\\03_075.jpg,Tr75_27,Tristeza,27,Claudia informa los avances en el reporte.,Afirmación,Tr75,75,,,,,,,,,,,,,0,25,25,25,,,,,,,,,1,1.05574649964,4,1.3670773328,2018_jun._11_1154,60.0898299131,Experimento Piloto1,001,131,
2.5,Stim\\03_028.jpg,Tr28_24,Tristeza,24,Guadalupe comenta los resultados con los compañeros.,Afirmación,Tr28,28,,,,,,,,,,,,,0,26,26,26,,,,,,,,,1,1.96721067137,4,0.450412153623,2018_jun._11_1154,60.0898299131,Experimento Piloto1,001,131,
0.25,Stim\\05_028.jpg,En28_24,Enojo,24,Guadalupe comenta los resultados con los compañeros.,Afirmación,En28,28,,,,,,,,,,,,,0,27,27,27,,,,,,,,,1,2.09963621954,2,2.49983221117,2018_jun._11_1154,60.0898299131,Experimento Piloto1,001,131,
0.25,Stim\\03_028.jpg,Tr28_17,Tristeza,17,Brenda sube el autobús en las mañanas.,Afirmación,Tr28,28,,,,,,,,,,,,,0,28,28,28,,,,,,,,,1,4.79682914813,3,1.73314971761,2018_jun._11_1154,60.0898299131,Experimento Piloto1,001,131,
0.25,Stim\\02_028.jpg,Al28_28,Alegría,28,Antonio responde la pregunta.,Afirmación,Al28,28,,,,,,,,,,,,,0,29,29,29,,,,,,,,,1,1.73716460084,3,0.500105760512,2018_jun._11_1154,60.0898299131,Experimento Piloto1,001,131,
2.5,Stim\\02_028.jpg,Al28_24,Alegría,24,Guadalupe comenta los resultados con los compañeros.,Afirmación,Al28,28,,,,,,,,,,,,,0,30,30,30,,,,,,,,,1,1.7157804501,3,0.950645094497,2018_jun._11_1154,60.0898299131,Experimento Piloto1,001,131,
0.25,Stim\\02_078.jpg,Al78_29,Alegría,29,Miriam mira la película.,Afirmación,Al78,78,,,,,,,,,,,,,0,31,31,31,,,,,,,,,1,2.30619408526,3,0.550725775934,2018_jun._11_1154,60.0898299131,Experimento Piloto1,001,131,
0.25,Stim\\05_078.jpg,En78_19,Enojo,19,Armando acompaña a Rodrígo a la tienda.,Afirmación,En78,78,,,,,,,,,,,,,0,32,32,32,,,,,,,,,1,2.86420439535,2,1.5166191265,2018_jun._11_1154,60.0898299131,Experimento Piloto1,001,131,
0.25,Stim\\03_019.jpg,Tr19_21,Tristeza,21,Mauro anuncia la actividad.,Afirmación,Tr19,19,,,,,,,,,,,,,0,33,33,33,,,,,,,,,1,1.72712493842,3,0.550109955233,2018_jun._11_1154,60.0898299131,Experimento Piloto1,001,131,
0.25,Stim\\02_028.jpg,Al28_25,Alegría,25,Luis decide la comida siguiente.,Afirmación,Al28,28,,,,,,,,,,,,,0,34,34,34,,,,,,,,,1,2.28431504673,3,0.400772542607,2018_jun._11_1154,60.0898299131,Experimento Piloto1,001,131,
2.5,Stim\\03_078.jpg,Tr78_26,Tristeza,26,Víctor trae el café a Marco.,Afirmación,Tr78,78,,,,,,,,,,,,,0,35,35,35,,,,,,,,,1,1.06855200026,4,0.699988665329,2018_jun._11_1154,60.0898299131,Experimento Piloto1,001,131,
2.5,Stim\\05_078.jpg,En78_20,Enojo,20,Karen analiza la idea.,Afirmación,En78,78,,,,,,,,,,,,,0,36,36,36,,,,,,,,,1,0.0549981436134,2,2.69948440635,2018_jun._11_1154,60.0898299131,Experimento Piloto1,001,131,
2.5,Stim\\02_078.jpg,Al78_23,Alegría,23,Óscar consigue un nuevo departamento.,Afirmación,Al78,78,,,,,,,,,,,,,0,37,37,37,,,,,,,,,1,2.86522362324,3,1.36664670456,2018_jun._11_1154,60.0898299131,Experimento Piloto1,001,131,
0.25,Stim\\03_078.jpg,Tr78_21,Tristeza,21,Mauro anuncia la actividad.,Afirmación,Tr78,78,,,,,,,,,,,,,0,38,38,38,,,,,,,,,1,2.00392161763,4,0.434156718336,2018_jun._11_1154,60.0898299131,Experimento Piloto1,001,131,
2.5,Stim\\03_075.jpg,Tr75_18,Tristeza,18,Sofía escucha la música.,Afirmación,Tr75,75,,,,,,,,,,,,,0,39,39,39,,,,,,,,,1,1.80770463097,4,1.2672777869,2018_jun._11_1154,60.0898299131,Experimento Piloto1,001,131,
2.5,Stim\\03_019.jpg,Tr19_19,Tristeza,19,Armando acompaña a Rodrígo a la tienda.,Afirmación,Tr19,19,,,,,,,,,,,,,0,40,40,40,,,,,,,,,1,1.60713718343,3,0.650264267406,2018_jun._11_1154,60.0898299131,Experimento Piloto1,001,131,
0.25,Stim\\03_019.jpg,Tr19_17,Tristeza,17,Brenda sube el autobús en las mañanas.,Afirmación,Tr19,19,,,,,,,,,,,,,0,41,41,41,,,,,,,,,1,2.23230943473,3,1.53348815125,2018_jun._11_1154,60.0898299131,Experimento Piloto1,001,131,
2.5,Stim\\05_078.jpg,En78_18,Enojo,18,Sofía escucha la música.,Afirmación,En78,78,,,,,,,,,,,,,0,42,42,42,,,,,,,,,1,0.107006879342,2,1.7663031837,2018_jun._11_1154,60.0898299131,Experimento Piloto1,001,131,
0.25,Stim\\05_019.jpg,En19_24,Enojo,24,Guadalupe comenta los resultados con los compañeros.,Afirmación,En19,19,,,,,,,,,,,,,0,43,43,43,,,,,,,,,1,2.65203274381,2,3.36672212028,2018_jun._11_1154,60.0898299131,Experimento Piloto1,001,131,
0.25,Stim\\02_075.jpg,Al75_20,Alegría,20,Karen analiza la idea.,Afirmación,Al75,75,,,,,,,,,,,,,0,44,44,44,,,,,,,,,1,1.67183628808,3,0.866499889331,2018_jun._11_1154,60.0898299131,Experimento Piloto1,001,131,
0.25,Stim\\03_075.jpg,Tr75_23,Tristeza,23,Óscar consigue un nuevo departamento.,Afirmación,Tr75,75,,,,,,,,,,,,,0,45,45,45,,,,,,,,,1,1.81646936604,4,1.26711133681,2018_jun._11_1154,60.0898299131,Experimento Piloto1,001,131,
0.25,Stim\\05_078.jpg,En78_16,Enojo,16,Valeria modifica algunas imágenes.,Afirmación,En78,78,,,,,,,,,,,,,0,46,46,46,,,,,,,,,1,1.86675023383,2,0.950878927865,2018_jun._11_1154,60.0898299131,Experimento Piloto1,001,131,
2.5,Stim\\02_019.jpg,Al19_20,Alegría,20,Karen analiza la idea.,Afirmación,Al19,19,,,,,,,,,,,,,0,47,47,47,,,,,,,,,1,1.75400818952,3,2.54962265363,2018_jun._11_1154,60.0898299131,Experimento Piloto1,001,131,
0.25,Stim\\03_075.jpg,Tr75_28,Tristeza,28,Antonio responde la pregunta.,Afirmación,Tr75,75,,,,,,,,,,,,,0,48,48,48,,,,,,,,,1,2.03333464232,4,4.28262020106,2018_jun._11_1154,60.0898299131,Experimento Piloto1,001,131,
0.25,Stim\\05_078.jpg,En78_25,Enojo,25,Luis decide la comida siguiente.,Afirmación,En78,78,,,,,,,,,,,,,0,49,49,49,,,,,,,,,1,2.09989325774,2,1.16678700458,2018_jun._11_1154,60.0898299131,Experimento Piloto1,001,131,
2.5,Stim\\03_019.jpg,Tr19_23,Tristeza,23,Óscar consigue un nuevo departamento.,Afirmación,Tr19,19,,,,,,,,,,,,,0,50,50,50,,,,,,,,,1,3.11391924359,3,2.89951412639,2018_jun._11_1154,60.0898299131,Experimento Piloto1,001,131,
2.5,Stim\\03_075.jpg,Tr75_24,Tristeza,24,Guadalupe comenta los resultados con los compañeros.,Afirmación,Tr75,75,,,,,,,,,,,,,0,51,51,51,,,,,,,,,1,1.26809798868,4,1.73314704013,2018_jun._11_1154,60.0898299131,Experimento Piloto1,001,131,
0.25,Stim\\02_078.jpg,Al78_20,Alegría,20,Karen analiza la idea.,Afirmación,Al78,78,,,,,,,,,,,,,0,52,52,52,,,,,,,,,1,1.32541840108,3,0.699929760741,2018_jun._11_1154,60.0898299131,Experimento Piloto1,001,131,
2.5,Stim\\02_078.jpg,Al78_30,Alegría,30,Marisol toma 2 litros de agua cada día.,Afirmación,Al78,78,,,,,,,,,,,,,0,53,53,53,,,,,,,,,1,1.88224838816,3,1.05072889966,2018_jun._11_1154,60.0898299131,Experimento Piloto1,001,131,
2.5,Stim\\03_028.jpg,Tr28_27,Tristeza,27,Claudia informa los avances en el reporte.,Afirmación,Tr28,28,,,,,,,,,,,,,0,54,54,54,,,,,,,,,1,1.67480070614,4,0.967162030459,2018_jun._11_1154,60.0898299131,Experimento Piloto1,001,131,
2.5,Stim\\02_075.jpg,Al75_28,Alegría,28,Antonio responde la pregunta.,Afirmación,Al75,75,,,,,,,,,,,,,0,55,55,55,,,,,,,,,1,1.07070871145,3,1.16726627373,2018_jun._11_1154,60.0898299131,Experimento Piloto1,001,131,
2.5,Stim\\03_078.jpg,Tr78_28,Tristeza,28,Antonio responde la pregunta.,Afirmación,Tr78,78,,,,,,,,,,,,,0,56,56,56,,,,,,,,,1,3.29895194457,4,0.700666514347,2018_jun._11_1154,60.0898299131,Experimento Piloto1,001,131,
0.25,Stim\\03_028.jpg,Tr28_19,Tristeza,19,Armando acompaña a Rodrígo a la tienda.,Afirmación,Tr28,28,,,,,,,,,,,,,0,57,57,57,,,,,,,,,1,2.0293273453,4,1.6672127241,2018_jun._11_1154,60.0898299131,Experimento Piloto1,001,131,
2.5,Stim\\05_078.jpg,En78_21,Enojo,21,Mauro anuncia la actividad.,Afirmación,En78,78,,,,,,,,,,,,,0,58,58,58,,,,,,,,,1,2.37251351236,2,0.283445757798,2018_jun._11_1154,60.0898299131,Experimento Piloto1,001,131,
0.25,Stim\\05_028.jpg,En28_17,Enojo,17,Brenda sube el autobús en las mañanas.,Afirmación,En28,28,,,,,,,,,,,,,0,59,59,59,,,,,,,,,1,1.66700968177,3,1.21697996173,2018_jun._11_1154,60.0898299131,Experimento Piloto1,001,131,
0.25,Stim\\03_075.jpg,Tr75_20,Tristeza,20,Karen analiza la idea.,Afirmación,Tr75,75,,,,,,,,,,,,,0,60,60,60,,,,,,,,,1,3.17533843364,3,1.51698728018,2018_jun._11_1154,60.0898299131,Experimento Piloto1,001,131,
2.5,Stim\\03_078.jpg,Tr78_21,Tristeza,21,Mauro anuncia la actividad.,Afirmación,Tr78,78,,,,,,,,,,,,,0,61,61,61,,,,,,,,,1,6.15249103936,3,1.36676049751,2018_jun._11_1154,60.0898299131,Experimento Piloto1,001,131,
0.25,Stim\\05_075.jpg,En75_17,Enojo,17,Brenda sube el autobús en las mañanas.,Afirmación,En75,75,,,,,,,,,,,,,0,62,62,62,,,,,,,,,1,4.09676462083,3,0.650119683414,2018_jun._11_1154,60.0898299131,Experimento Piloto1,001,131,
0.25,Stim\\03_019.jpg,Tr19_26,Tristeza,26,Víctor trae el café a Marco.,Afirmación,Tr19,19,,,,,,,,,,,,,0,63,63,63,,,,,,,,,1,1.26930776398,3,1.11680378346,2018_jun._11_1154,60.0898299131,Experimento Piloto1,001,131,
0.25,Stim\\05_019.jpg,En19_30,Enojo,30,Marisol toma 2 litros de agua cada día.,Afirmación,En19,19,,,,,,,,,,,,,0,64,64,64,,,,,,,,,1,1.40321262058,2,0.800231334385,2018_jun._11_1154,60.0898299131,Experimento Piloto1,001,131,
0.25,Stim\\02_019.jpg,Al19_27,Alegría,27,Claudia informa los avances en el reporte.,Afirmación,Al19,19,,,,,,,,,,,,,0,65,65,65,,,,,,,,,1,1.67351640761,3,0.55024784552,2018_jun._11_1154,60.0898299131,Experimento Piloto1,001,131,
0.25,Stim\\05_028.jpg,En28_23,Enojo,23,Óscar consigue un nuevo departamento.,Afirmación,En28,28,,,,,,,,,,,,,0,66,66,66,,,,,,,,,1,2.86412942588,2,1.00005935084,2018_jun._11_1154,60.0898299131,Experimento Piloto1,001,131,
0.25,Stim\\05_019.jpg,En19_18,Enojo,18,Sofía escucha la música.,Afirmación,En19,19,,,,,,,,,,,,,0,67,67,67,,,,,,,,,1,1.68940904417,2,0.500336470152,2018_jun._11_1154,60.0898299131,Experimento Piloto1,001,131,
0.25,Stim\\05_075.jpg,En75_25,Enojo,25,Luis decide la comida siguiente.,Afirmación,En75,75,,,,,,,,,,,,,0,68,68,68,,,,,,,,,1,1.77597692368,2,0.800182693474,2018_jun._11_1154,60.0898299131,Experimento Piloto1,001,131,
0.25,Stim\\03_078.jpg,Tr78_16,Tristeza,16,Valeria modifica algunas imágenes.,Afirmación,Tr78,78,,,,,,,,,,,,,0,69,69,69,,,,,,,,,1,2.00608502253,4,1.36690686649,2018_jun._11_1154,60.0898299131,Experimento Piloto1,001,131,
0.25,Stim\\05_019.jpg,En19_27,Enojo,27,Claudia informa los avances en el reporte.,Afirmación,En19,19,,,,,,,,,,,,,0,70,70,70,,,,,,,,,1,1.61142516975,3,0.966968805557,2018_jun._11_1154,60.0898299131,Experimento Piloto1,001,131,
0.25,Stim\\05_075.jpg,En75_30,Enojo,30,Marisol toma 2 litros de agua cada día.,Afirmación,En75,75,,,,,,,,,,,,,0,71,71,71,,,,,,,,,1,4.94526514205,3,0.766691418495,2018_jun._11_1154,60.0898299131,Experimento Piloto1,001,131,
2.5,Stim\\02_028.jpg,Al28_16,Alegría,16,Valeria modifica algunas imágenes.,Afirmación,Al28,28,,,,,,,,,,,,,0,72,72,72,,,,,,,,,1,1.41858314829,3,0.550325492478,2018_jun._11_1154,60.0898299131,Experimento Piloto1,001,131,
0.25,Stim\\05_075.jpg,En75_29,Enojo,29,Miriam mira la película.,Afirmación,En75,75,,,,,,,,,,,,,0,73,73,73,,,,,,,,,1,2.77345875251,3,0.699983756613,2018_jun._11_1154,60.0898299131,Experimento Piloto1,001,131,
2.5,Stim\\02_028.jpg,Al28_28,Alegría,28,Antonio responde la pregunta.,Afirmación,Al28,28,,,,,,,,,,,,,0,74,74,74,,,,,,,,,1,2.30351615771,3,0.650450352357,2018_jun._11_1154,60.0898299131,Experimento Piloto1,001,131,
2.5,Stim\\03_019.jpg,Tr19_28,Tristeza,28,Antonio responde la pregunta.,Afirmación,Tr19,19,,,,,,,,,,,,,0,75,75,75,,,,,,,,,1,0.933375786287,3,1.51655308196,2018_jun._11_1154,60.0898299131,Experimento Piloto1,001,131,
0.25,Stim\\02_028.jpg,Tr28_30,Tristeza,30,Marisol toma 2 litros de agua cada día.,Afirmación,Tr28,28,,,,,,,,,,,,,0,76,76,76,,,,,,,,,1,4.48124067344,3,1.01677218918,2018_jun._11_1154,60.0898299131,Experimento Piloto1,001,131,
2.5,Stim\\02_075.jpg,Al75_27,Alegría,27,Claudia informa los avances en el reporte.,Afirmación,Al75,75,,,,,,,,,,,,,0,77,77,77,,,,,,,,,1,1.11335920375,3,0.650279886047,2018_jun._11_1154,60.0898299131,Experimento Piloto1,001,131,
2.5,Stim\\02_075.jpg,Al75_20,Alegría,20,Karen analiza la idea.,Afirmación,Al75,75,,,,,,,,,,,,,0,78,78,78,,,,,,,,,1,1.19257338084,3,0.383754025147,2018_jun._11_1154,60.0898299131,Experimento Piloto1,001,131,
2.5,Stim\\05_019.jpg,En19_28,Enojo,28,Antonio responde la pregunta.,Afirmación,En19,19,,,,,,,,,,,,,0,79,79,79,,,,,,,,,1,1.33343879635,2,0.750136997794,2018_jun._11_1154,60.0898299131,Experimento Piloto1,001,131,
2.5,Stim\\02_078.jpg,Al78_21,Alegría,21,Mauro anuncia la actividad.,Afirmación,Al78,78,,,,,,,,,,,,,0,80,80,80,,,,,,,,,1,2.92129275938,3,0.800444640397,2018_jun._11_1154,60.0898299131,Experimento Piloto1,001,131,
2.5,Stim\\03_078.jpg,Tr78_19,Tristeza,19,Armando acompaña a Rodrígo a la tienda.,Afirmación,Tr78,78,,,,,,,,,,,,,0,81,81,81,,,,,,,,,1,5.0192613543,3,0.550011780918,2018_jun._11_1154,60.0898299131,Experimento Piloto1,001,131,
2.5,Stim\\05_075.jpg,En75_22,Enojo,22,Enrique corre todas las mañanas.,Afirmación,En75,75,,,,,,,,,,,,,0,82,82,82,,,,,,,,,1,3.01831307967,3,2.74973180562,2018_jun._11_1154,60.0898299131,Experimento Piloto1,001,131,
0.25,Stim\\03_019.jpg,Tr19_19,Tristeza,19,Armando acompaña a Rodrígo a la tienda.,Afirmación,Tr19,19,,,,,,,,,,,,,0,83,83,83,,,,,,,,,1,1.88014388785,3,0.450218928721,2018_jun._11_1154,60.0898299131,Experimento Piloto1,001,131,
2.5,Stim\\03_019.jpg,Tr19_27,Tristeza,27,Claudia informa los avances en el reporte.,Afirmación,Tr19,19,,,,,,,,,,,,,0,84,84,84,,,,,,,,,1,1.82953770608,3,0.45051434416,2018_jun._11_1154,60.0898299131,Experimento Piloto1,001,131,
0.25,Stim\\05_078.jpg,En78_18,Enojo,18,Sofía escucha la música.,Afirmación,En78,78,,,,,,,,,,,,,0,85,85,85,,,,,,,,,1,2.3518335392,2,1.4667340797,2018_jun._11_1154,60.0898299131,Experimento Piloto1,001,131,
2.5,Stim\\05_019.jpg,En19_25,Enojo,25,Luis decide la comida siguiente.,Afirmación,En19,19,,,,,,,,,,,,,0,86,86,86,,,,,,,,,1,2.05115104922,2,1.05031121258,2018_jun._11_1154,60.0898299131,Experimento Piloto1,001,131,
0.25,Stim\\05_028.jpg,En28_16,Enojo,16,Valeria modifica algunas imágenes.,Afirmación,En28,28,,,,,,,,,,,,,0,87,87,87,,,,,,,,,1,2.05049149632,2,0.849528227793,2018_jun._11_1154,60.0898299131,Experimento Piloto1,001,131,
2.5,Stim\\02_028.jpg,Al28_22,Alegría,22,Enrique corre todas las mañanas.,Afirmación,Al28,28,,,,,,,,,,,,,0,88,88,88,,,,,,,,,1,0.967116959524,3,0.450265338398,2018_jun._11_1154,60.0898299131,Experimento Piloto1,001,131,
0.25,Stim\\03_078.jpg,Tr78_17,Tristeza,17,Brenda sube el autobús en las mañanas.,Afirmación,Tr78,78,,,,,,,,,,,,,0,89,89,89,,,,,,,,,1,1.98246294366,4,0.350121289904,2018_jun._11_1154,60.0898299131,Experimento Piloto1,001,131,
2.5,Stim\\02_028.jpg,Al28_25,Alegría,25,Luis decide la comida siguiente.,Afirmación,Al28,28,,,,,,,,,,,,,0,90,90,90,,,,,,,,,1,2.03417403271,3,1.68339809863,2018_jun._11_1154,60.0898299131,Experimento Piloto1,001,131,
0.25,Stim\\03_028.jpg,Tr28_18,Tristeza,18,Sofía escucha la música.,Afirmación,Tr28,28,,,,,,,,,,,,,0,91,91,91,,,,,,,,,1,10.6541042219,3,0.866861795555,2018_jun._11_1154,60.0898299131,Experimento Piloto1,001,131,
2.5,Stim\\03_075.jpg,Tr75_26,Tristeza,26,Víctor trae el café a Marco.,Afirmación,Tr75,75,,,,,,,,,,,,,0,92,92,92,,,,,,,,,1,4.30281198012,3,0.333653441099,2018_jun._11_1154,60.0898299131,Experimento Piloto1,001,131,
0.25,Stim\\02_019.jpg,Al19_19,Alegría,19,Armando acompaña a Rodrígo a la tienda.,Afirmación,Al19,19,,,,,,,,,,,,,0,93,93,93,,,,,,,,,1,2.59744380859,4,1.68352617149,2018_jun._11_1154,60.0898299131,Experimento Piloto1,001,131,
0.25,Stim\\02_028.jpg,Al28_24,Alegría,24,Guadalupe comenta los resultados con los compañeros.,Afirmación,Al28,28,,,,,,,,,,,,,0,94,94,94,,,,,,,,,1,3.9013892558,3,0.916667410412,2018_jun._11_1154,60.0898299131,Experimento Piloto1,001,131,
0.25,Stim\\05_078.jpg,En78_20,Enojo,20,Karen analiza la idea.,Afirmación,En78,78,,,,,,,,,,,,,0,95,95,95,,,,,,,,,1,8.28723260887,3,1.11725404657,2018_jun._11_1154,60.0898299131,Experimento Piloto1,001,131,
2.5,Stim\\02_019.jpg,Al19_17,Alegría,17,Brenda sube el autobús en las mañanas.,Afirmación,Al19,19,,,,,,,,,,,,,0,96,96,96,,,,,,,,,1,1.25641212149,3,0.800433484224,2018_jun._11_1154,60.0898299131,Experimento Piloto1,001,131,
0.25,Stim\\03_019.jpg,Tr19_18,Tristeza,18,Sofía escucha la música.,Afirmación,Tr19,19,,,,,,,,,,,,,0,97,97,97,,,,,,,,,1,2.20174375433,3,0.533634966478,2018_jun._11_1154,60.0898299131,Experimento Piloto1,001,131,
0.25,Stim\\02_075.jpg,Al75_26,Alegría,26,Víctor trae el café a Marco.,Afirmación,Al75,75,,,,,,,,,,,,,0,98,98,98,,,,,,,,,1,1.23796025904,3,0.433643534418,2018_jun._11_1154,60.0898299131,Experimento Piloto1,001,131,
2.5,Stim\\02_075.jpg,Al75_18,Alegría,18,Sofía escucha la música.,Afirmación,Al75,75,,,,,,,,,,,,,0,99,99,99,,,,,,,,,1,1.54045272639,3,0.500299877907,2018_jun._11_1154,60.0898299131,Experimento Piloto1,001,131,
2.5,Stim\\05_019.jpg,En19_24,Enojo,24,Guadalupe comenta los resultados con los compañeros.,Afirmación,En19,19,,,,,,,,,,,,,0,100,100,100,,,,,,,,,1,0.707101394432,2,0.800287561493,2018_jun._11_1154,60.0898299131,Experimento Piloto1,001,131,
2.5,Stim\\03_019.jpg,Tr19_30,Tristeza,30,Marisol toma 2 litros de agua cada día.,Afirmación,Tr19,19,,,,,,,,,,,,,0,101,101,101,,,,,,,,,1,1.28140462455,2,2.23290606682,2018_jun._11_1154,60.0898299131,Experimento Piloto1,001,131,
2.5,Stim\\05_075.jpg,En75_17,Enojo,17,Brenda sube el autobús en las mañanas.,Afirmación,En75,75,,,,,,,,,,,,,0,102,102,102,,,,,,,,,1,1.82019865126,3,1.98322781082,2018_jun._11_1154,60.0898299131,Experimento Piloto1,001,131,
0.25,Stim\\02_019.jpg,Al19_29,Alegría,29,Miriam mira la película.,Afirmación,Al19,19,,,,,,,,,,,,,0,103,103,103,,,,,,,,,1,3.237750523,3,0.70116631086,2018_jun._11_1154,60.0898299131,Experimento Piloto1,001,131,
0.25,Stim\\05_078.jpg,En78_22,Enojo,22,Enrique corre todas las mañanas.,Afirmación,En78,78,,,,,,,,,,,,,0,104,104,104,,,,,,,,,1,1.467658257,2,1.01715774649,2018_jun._11_1154,60.0898299131,Experimento Piloto1,001,131,
0.25,Stim\\03_028.jpg,Tr28_21,Tristeza,21,Mauro anuncia la actividad.,Afirmación,Tr28,28,,,,,,,,,,,,,0,105,105,105,,,,,,,,,1,1.78536194192,4,0.699555805851,2018_jun._11_1154,60.0898299131,Experimento Piloto1,001,131,
2.5,Stim\\05_028.jpg,En28_19,Enojo,19,Armando acompaña a Rodrígo a la tienda.,Afirmación,En28,28,,,,,,,,,,,,,0,106,106,106,,,,,,,,,1,2.04255499547,2,1.51683377125,2018_jun._11_1154,60.0898299131,Experimento Piloto1,001,131,
2.5,Stim\\03_019.jpg,Tr19_29,Tristeza,29,Miriam mira la película.,Afirmación,Tr19,19,,,,,,,,,,,,,0,107,107,107,,,,,,,,,1,3.68978746153,3,2.64946994795,2018_jun._11_1154,60.0898299131,Experimento Piloto1,001,131,
2.5,Stim\\05_078.jpg,En78_17,Enojo,17,Brenda sube el autobús en las mañanas.,Afirmación,En78,78,,,,,,,,,,,,,0,108,108,108,,,,,,,,,1,1.22393605818,2,1.56769029752,2018_jun._11_1154,60.0898299131,Experimento Piloto1,001,131,
2.5,Stim\\02_028.jpg,Al28_21,Alegría,21,Mauro anuncia la actividad.,Afirmación,Al28,28,,,,,,,,,,,,,0,109,109,109,,,,,,,,,1,1.48935165683,3,1.31712579521,2018_jun._11_1154,60.0898299131,Experimento Piloto1,001,131,
0.25,Stim\\02_075.jpg,Al75_27,Alegría,27,Claudia informa los avances en el reporte.,Afirmación,Al75,75,,,,,,,,,,,,,0,110,110,110,,,,,,,,,1,2.34577529149,3,0.550222409448,2018_jun._11_1154,60.0898299131,Experimento Piloto1,001,131,
0.25,Stim\\02_019.jpg,Al19_28,Alegría,28,Antonio responde la pregunta.,Afirmación,Al19,19,,,,,,,,,,,,,0,111,111,111,,,,,,,,,1,1.93540219339,3,0.383659867054,2018_jun._11_1154,60.0898299131,Experimento Piloto1,001,131,
2.5,Stim\\05_019.jpg,En19_20,Enojo,20,Karen analiza la idea.,Afirmación,En19,19,,,,,,,,,,,,,0,112,112,112,,,,,,,,,1,1.28976907616,2,0.900206701557,2018_jun._11_1154,60.0898299131,Experimento Piloto1,001,131,
2.5,Stim\\03_078.jpg,Tr78_22,Tristeza,22,Enrique corre todas las mañanas.,Afirmación,Tr78,78,,,,,,,,,,,,,0,113,113,113,,,,,,,,,1,1.13640205416,4,1.26680431896,2018_jun._11_1154,60.0898299131,Experimento Piloto1,001,131,
2.5,Stim\\05_028.jpg,En28_18,Enojo,18,Sofía escucha la música.,Afirmación,En28,28,,,,,,,,,,,,,0,114,114,114,,,,,,,,,1,1.3248713024,2,1.3169200754,2018_jun._11_1154,60.0898299131,Experimento Piloto1,001,131,
0.25,Stim\\03_075.jpg,Tr75_29,Tristeza,29,Miriam mira la película.,Afirmación,Tr75,75,,,,,,,,,,,,,0,115,115,115,,,,,,,,,1,2.40776835503,4,1.31688660688,2018_jun._11_1154,60.0898299131,Experimento Piloto1,001,131,
0.25,Stim\\03_078.jpg,Tr78_24,Tristeza,24,Guadalupe comenta los resultados con los compañeros.,Afirmación,Tr78,78,,,,,,,,,,,,,0,116,116,116,,,,,,,,,1,1.98856670855,4,0.600150742197,2018_jun._11_1154,60.0898299131,Experimento Piloto1,001,131,
2.5,Stim\\05_075.jpg,En75_23,Enojo,23,Óscar consigue un nuevo departamento.,Afirmación,En75,75,,,,,,,,,,,,,0,117,117,117,,,,,,,,,1,2.91554242201,2,2.4328228864,2018_jun._11_1154,60.0898299131,Experimento Piloto1,001,131,
2.5,Stim\\03_019.jpg,Tr19_21,Tristeza,21,Mauro anuncia la actividad.,Afirmación,Tr19,19,,,,,,,,,,,,,0,118,118,118,,,,,,,,,1,0.771878146041,3,1.16660493585,2018_jun._11_1154,60.0898299131,Experimento Piloto1,001,131,
0.25,Stim\\03_078.jpg,Tr78_29,Tristeza,29,Miriam mira la película.,Afirmación,Tr78,78,,,,,,,,,,,,,0,119,119,119,,,,,,,,,1,1.22308372663,4,0.850270336363,2018_jun._11_1154,60.0898299131,Experimento Piloto1,001,131,
