Tiempo,ImagenesE,ClaveEn,Emocion,NumEn,Enunciado,ActoHabla,Clave,Cara,trials.thisRepN,trials.thisTrialN,trials.thisN,trials.thisIndex,Bloque3.thisRepN,Bloque3.thisTrialN,Bloque3.thisN,Bloque3.thisIndex,Bloque1.thisRepN,Bloque1.thisTrialN,Bloque1.thisN,Bloque1.thisIndex,Bloque2.thisRepN,Bloque2.thisTrialN,Bloque2.thisN,Bloque2.thisIndex,Sig_B3.keys,Sig_B3.rt,Resp_Bloque3.keys,Resp_Bloque3.rt,Sig_B1.keys,Sig_B1.rt,Resp_Bloque1.keys,Resp_Bloque1.rt,Sig_B2.keys,Sig_B2.rt,Resp_Bloque2.keys,Resp_Bloque2.rt,date,frameRate,expName,session,participant,
2.5,Stim\\03_019.jpg,Tr19_16,Tristeza,16,Valeria modifica algunas imágenes.,Afirmación,Tr19,19,,,,,0,0,0,0,,,,,,,,,1,4.33304029631,3,1.31669240037,,,,,,,,,2018_jun._12_1919,59.9049391033,Experimento Piloto1,001,132,
2.5,Stim\\05_078.jpg,En78_19,Enojo,19,Armando acompaña a Rodrígo a la tienda.,Afirmación,En78,78,,,,,0,1,1,1,,,,,,,,,1,3.43016734348,2,1.26686643759,,,,,,,,,2018_jun._12_1919,59.9049391033,Experimento Piloto1,001,132,
2.5,Stim\\02_075.jpg,Al75_21,Alegría,21,Mauro anuncia la actividad.,Afirmación,Al75,75,,,,,0,2,2,2,,,,,,,,,1,5.93746530412,3,2.70005087242,,,,,,,,,2018_jun._12_1919,59.9049391033,Experimento Piloto1,001,132,
0.25,Stim\\02_075.jpg,Al75_16,Alegría,16,Valeria modifica algunas imágenes.,Afirmación,Al75,75,,,,,0,3,3,3,,,,,,,,,1,7.28319559106,3,2.38321299478,,,,,,,,,2018_jun._12_1919,59.9049391033,Experimento Piloto1,001,132,
0.25,Stim\\05_078.jpg,En78_30,Enojo,30,Marisol toma 2 litros de agua cada día.,Afirmación,En78,78,,,,,0,4,4,4,,,,,,,,,1,5.73090767103,2,2.0830166451,,,,,,,,,2018_jun._12_1919,59.9049391033,Experimento Piloto1,001,132,
0.25,Stim\\02_019.jpg,Al19_22,Alegría,22,Enrique corre todas las mañanas.,Afirmación,Al19,19,,,,,0,5,5,5,,,,,,,,,1,5.88475924852,3,3.88268731313,,,,,,,,,2018_jun._12_1919,59.9049391033,Experimento Piloto1,001,132,
2.5,Stim\\05_028.jpg,En28_23,Enojo,23,Óscar consigue un nuevo departamento.,Afirmación,En28,28,,,,,0,6,6,6,,,,,,,,,1,3.38122629301,2,1.7831407024,,,,,,,,,2018_jun._12_1919,59.9049391033,Experimento Piloto1,001,132,
0.25,Stim\\03_019.jpg,Tr19_16,Tristeza,16,Valeria modifica algunas imágenes.,Afirmación,Tr19,19,,,,,0,7,7,7,,,,,,,,,1,3.11787362221,4,3.26607166763,,,,,,,,,2018_jun._12_1919,59.9049391033,Experimento Piloto1,001,132,
0.25,Stim\\02_078.jpg,Al78_17,Alegría,17,Brenda sube el autobús en las mañanas.,Afirmación,Al78,78,,,,,0,8,8,8,,,,,,,,,1,4.99421170066,3,2.34973492793,,,,,,,,,2018_jun._12_1919,59.9049391033,Experimento Piloto1,001,132,
0.25,Stim\\02_078.jpg,Al78_16,Alegría,16,Valeria modifica algunas imágenes.,Afirmación,Al78,78,,,,,0,9,9,9,,,,,,,,,1,2.08480342719,3,0.916867330091,,,,,,,,,2018_jun._12_1919,59.9049391033,Experimento Piloto1,001,132,
0.25,Stim\\05_075.jpg,En75_22,Enojo,22,Enrique corre todas las mañanas.,Afirmación,En75,75,,,,,0,10,10,10,,,,,,,,,1,3.21909009773,2,4.03246508099,,,,,,,,,2018_jun._12_1919,59.9049391033,Experimento Piloto1,001,132,
0.25,Stim\\02_028.jpg,Al28_26,Alegría,26,Víctor trae el café a Marco.,Afirmación,Al28,28,,,,,0,11,11,11,,,,,,,,,1,3.73887054309,4,1.06680396269,,,,,,,,,2018_jun._12_1919,59.9049391033,Experimento Piloto1,001,132,
2.5,Stim\\03_075.jpg,Tr75_28,Tristeza,28,Antonio responde la pregunta.,Afirmación,Tr75,75,,,,,0,12,12,12,,,,,,,,,1,2.92048194922,4,3.61593154536,,,,,,,,,2018_jun._12_1919,59.9049391033,Experimento Piloto1,001,132,
0.25,Stim\\05_075.jpg,En75_23,Enojo,23,Óscar consigue un nuevo departamento.,Afirmación,En75,75,,,,,0,13,13,13,,,,,,,,,1,1.93088625106,2,0.866486679459,,,,,,,,,2018_jun._12_1919,59.9049391033,Experimento Piloto1,001,132,
2.5,Stim\\02_078.jpg,Al78_28,Alegría,28,Antonio responde la pregunta.,Afirmación,Al78,78,,,,,0,14,14,14,,,,,,,,,1,3.12156008746,2,8.84777098487,,,,,,,,,2018_jun._12_1919,59.9049391033,Experimento Piloto1,001,132,
2.5,Stim\\02_028.jpg,Al28_18,Alegría,18,Sofía escucha la música.,Afirmación,Al28,28,,,,,0,15,15,15,,,,,,,,,1,27.900449373,3,2.69993707885,,,,,,,,,2018_jun._12_1919,59.9049391033,Experimento Piloto1,001,132,
2.5,Stim\\02_019.jpg,Al19_22,Alegría,22,Enrique corre todas las mañanas.,Afirmación,Al19,19,,,,,0,16,16,16,,,,,,,,,1,1.73366549154,3,0.96564326833,,,,,,,,,2018_jun._12_1919,59.9049391033,Experimento Piloto1,001,132,
2.5,Stim\\05_028.jpg,En28_28,Enojo,28,Antonio responde la pregunta.,Afirmación,En28,28,,,,,0,17,17,17,,,,,,,,,1,3.07177785711,2,1.26699852738,,,,,,,,,2018_jun._12_1919,59.9049391033,Experimento Piloto1,001,132,
0.25,Stim\\03_078.jpg,Tr78_30,Tristeza,30,Marisol toma 2 litros de agua cada día.,Afirmación,Tr78,78,,,,,0,18,18,18,,,,,,,,,1,2.6410433308,4,1.41667767415,,,,,,,,,2018_jun._12_1919,59.9049391033,Experimento Piloto1,001,132,
0.25,Stim\\03_019.jpg,Tr19_20,Tristeza,20,Karen analiza la idea.,Afirmación,Tr19,19,,,,,0,19,19,19,,,,,,,,,1,1.95295818644,3,3.76566513454,,,,,,,,,2018_jun._12_1919,59.9049391033,Experimento Piloto1,001,132,
0.25,Stim\\05_028.jpg,En28_19,Enojo,19,Armando acompaña a Rodrígo a la tienda.,Afirmación,En28,28,,,,,0,20,20,20,,,,,,,,,1,2.19915346513,2,1.16672051408,,,,,,,,,2018_jun._12_1919,59.9049391033,Experimento Piloto1,001,132,
0.25,Stim\\05_019.jpg,En19_26,Enojo,26,Víctor trae el café a Marco.,Afirmación,En19,19,,,,,0,21,21,21,,,,,,,,,1,2.13839841135,4,0.966829398902,,,,,,,,,2018_jun._12_1919,59.9049391033,Experimento Piloto1,001,132,
0.25,Stim\\02_028.jpg,Al28_16,Alegría,16,Valeria modifica algunas imágenes.,Afirmación,Al28,28,,,,,0,22,22,22,,,,,,,,,1,3.98123878799,3,2.69961265563,,,,,,,,,2018_jun._12_1919,59.9049391033,Experimento Piloto1,001,132,
2.5,Stim\\02_075.jpg,Al75_17,Alegría,17,Brenda sube el autobús en las mañanas.,Afirmación,Al75,75,,,,,0,23,23,23,,,,,,,,,1,1.73334240707,3,0.70012941229,,,,,,,,,2018_jun._12_1919,59.9049391033,Experimento Piloto1,001,132,
2.5,Stim\\05_075.jpg,En75_30,Enojo,30,Marisol toma 2 litros de agua cada día.,Afirmación,En75,75,,,,,0,24,24,24,,,,,,,,,1,1.84696595118,2,3.56603953769,,,,,,,,,2018_jun._12_1919,59.9049391033,Experimento Piloto1,001,132,
2.5,Stim\\03_075.jpg,Tr75_27,Tristeza,27,Claudia informa los avances en el reporte.,Afirmación,Tr75,75,,,,,0,25,25,25,,,,,,,,,1,3.22727520193,4,1.88297514392,,,,,,,,,2018_jun._12_1919,59.9049391033,Experimento Piloto1,001,132,
2.5,Stim\\03_028.jpg,Tr28_24,Tristeza,24,Guadalupe comenta los resultados con los compañeros.,Afirmación,Tr28,28,,,,,0,26,26,26,,,,,,,,,1,1.62506046678,4,1.10021018341,,,,,,,,,2018_jun._12_1919,59.9049391033,Experimento Piloto1,001,132,
0.25,Stim\\05_028.jpg,En28_24,Enojo,24,Guadalupe comenta los resultados con los compañeros.,Afirmación,En28,28,,,,,0,27,27,27,,,,,,,,,1,7.247844616,3,3.24940381097,,,,,,,,,2018_jun._12_1919,59.9049391033,Experimento Piloto1,001,132,
0.25,Stim\\03_028.jpg,Tr28_17,Tristeza,17,Brenda sube el autobús en las mañanas.,Afirmación,Tr28,28,,,,,0,28,28,28,,,,,,,,,1,1.33110312821,4,0.800219554643,,,,,,,,,2018_jun._12_1919,59.9049391033,Experimento Piloto1,001,132,
0.25,Stim\\02_028.jpg,Al28_28,Alegría,28,Antonio responde la pregunta.,Afirmación,Al28,28,,,,,0,29,29,29,,,,,,,,,1,1.26794546834,3,0.966928466241,,,,,,,,,2018_jun._12_1919,59.9049391033,Experimento Piloto1,001,132,
2.5,Stim\\02_028.jpg,Al28_24,Alegría,24,Guadalupe comenta los resultados con los compañeros.,Afirmación,Al28,28,,,,,0,30,30,30,,,,,,,,,1,1.20622205364,3,0.750308804498,,,,,,,,,2018_jun._12_1919,59.9049391033,Experimento Piloto1,001,132,
0.25,Stim\\02_078.jpg,Al78_29,Alegría,29,Miriam mira la película.,Afirmación,Al78,78,,,,,0,31,31,31,,,,,,,,,1,1.12491365077,3,0.450816189924,,,,,,,,,2018_jun._12_1919,59.9049391033,Experimento Piloto1,001,132,
0.25,Stim\\05_078.jpg,En78_19,Enojo,19,Armando acompaña a Rodrígo a la tienda.,Afirmación,En78,78,,,,,0,32,32,32,,,,,,,,,1,1.68158329243,2,1.41641840332,,,,,,,,,2018_jun._12_1919,59.9049391033,Experimento Piloto1,001,132,
0.25,Stim\\03_019.jpg,Tr19_21,Tristeza,21,Mauro anuncia la actividad.,Afirmación,Tr19,19,,,,,0,33,33,33,,,,,,,,,1,3.5387357758,2,1.31637824089,,,,,,,,,2018_jun._12_1919,59.9049391033,Experimento Piloto1,001,132,
0.25,Stim\\02_028.jpg,Al28_25,Alegría,25,Luis decide la comida siguiente.,Afirmación,Al28,28,,,,,0,34,34,34,,,,,,,,,1,4.89843411129,3,7.73136596903,,,,,,,,,2018_jun._12_1919,59.9049391033,Experimento Piloto1,001,132,
2.5,Stim\\03_078.jpg,Tr78_26,Tristeza,26,Víctor trae el café a Marco.,Afirmación,Tr78,78,,,,,0,35,35,35,,,,,,,,,1,2.05531259762,4,0.750313266991,,,,,,,,,2018_jun._12_1919,59.9049391033,Experimento Piloto1,001,132,
2.5,Stim\\05_078.jpg,En78_20,Enojo,20,Karen analiza la idea.,Afirmación,En78,78,,,,,0,36,36,36,,,,,,,,,1,4.05723682449,2,2.13303583382,,,,,,,,,2018_jun._12_1919,59.9049391033,Experimento Piloto1,001,132,
2.5,Stim\\02_078.jpg,Al78_23,Alegría,23,Óscar consigue un nuevo departamento.,Afirmación,Al78,78,,,,,0,37,37,37,,,,,,,,,1,1.58417510822,3,1.41678298898,,,,,,,,,2018_jun._12_1919,59.9049391033,Experimento Piloto1,001,132,
0.25,Stim\\03_078.jpg,Tr78_21,Tristeza,21,Mauro anuncia la actividad.,Afirmación,Tr78,78,,,,,0,38,38,38,,,,,,,,,1,3.17201749297,4,1.11682270516,,,,,,,,,2018_jun._12_1919,59.9049391033,Experimento Piloto1,001,132,
2.5,Stim\\03_075.jpg,Tr75_18,Tristeza,18,Sofía escucha la música.,Afirmación,Tr75,75,,,,,0,39,39,39,,,,,,,,,1,2.9744330403,4,0.900211522156,,,,,,,,,2018_jun._12_1919,59.9049391033,Experimento Piloto1,001,132,
2.5,Stim\\03_019.jpg,Tr19_19,Tristeza,19,Armando acompaña a Rodrígo a la tienda.,Afirmación,Tr19,19,,,,,0,40,40,40,,,,,,,,,1,1.82639609086,3,2.8496014994,,,,,,,,,2018_jun._12_1919,59.9049391033,Experimento Piloto1,001,132,
0.25,Stim\\03_019.jpg,Tr19_17,Tristeza,17,Brenda sube el autobús en las mañanas.,Afirmación,Tr19,19,,,,,0,41,41,41,,,,,,,,,1,3.63138917399,3,1.16684367888,,,,,,,,,2018_jun._12_1919,59.9049391033,Experimento Piloto1,001,132,
2.5,Stim\\05_078.jpg,En78_18,Enojo,18,Sofía escucha la música.,Afirmación,En78,78,,,,,0,42,42,42,,,,,,,,,1,3.07429559552,2,0.900274443304,,,,,,,,,2018_jun._12_1919,59.9049391033,Experimento Piloto1,001,132,
0.25,Stim\\05_019.jpg,En19_24,Enojo,24,Guadalupe comenta los resultados con los compañeros.,Afirmación,En19,19,,,,,0,43,43,43,,,,,,,,,1,1.67470346736,2,0.700111562319,,,,,,,,,2018_jun._12_1919,59.9049391033,Experimento Piloto1,001,132,
0.25,Stim\\02_075.jpg,Al75_20,Alegría,20,Karen analiza la idea.,Afirmación,Al75,75,,,,,0,44,44,44,,,,,,,,,1,1.64258779954,3,1.61676469276,,,,,,,,,2018_jun._12_1919,59.9049391033,Experimento Piloto1,001,132,
0.25,Stim\\03_075.jpg,Tr75_23,Tristeza,23,Óscar consigue un nuevo departamento.,Afirmación,Tr75,75,,,,,0,45,45,45,,,,,,,,,1,1.43296755768,4,1.00039269936,,,,,,,,,2018_jun._12_1919,59.9049391033,Experimento Piloto1,001,132,
0.25,Stim\\05_078.jpg,En78_16,Enojo,16,Valeria modifica algunas imágenes.,Afirmación,En78,78,,,,,0,46,46,46,,,,,,,,,1,1.06876076576,2,0.766557186844,,,,,,,,,2018_jun._12_1919,59.9049391033,Experimento Piloto1,001,132,
2.5,Stim\\02_019.jpg,Al19_20,Alegría,20,Karen analiza la idea.,Afirmación,Al19,19,,,,,0,47,47,47,,,,,,,,,1,1.47224909635,3,1.26684010888,,,,,,,,,2018_jun._12_1919,59.9049391033,Experimento Piloto1,001,132,
0.25,Stim\\03_075.jpg,Tr75_28,Tristeza,28,Antonio responde la pregunta.,Afirmación,Tr75,75,,,,,0,48,48,48,,,,,,,,,1,4.87124905172,4,1.61662100049,,,,,,,,,2018_jun._12_1919,59.9049391033,Experimento Piloto1,001,132,
0.25,Stim\\05_078.jpg,En78_25,Enojo,25,Luis decide la comida siguiente.,Afirmación,En78,78,,,,,0,49,49,49,,,,,,,,,1,1.1848324334,2,0.800163327235,,,,,,,,,2018_jun._12_1919,59.9049391033,Experimento Piloto1,001,132,
2.5,Stim\\03_019.jpg,Tr19_23,Tristeza,23,Óscar consigue un nuevo departamento.,Afirmación,Tr19,19,,,,,0,50,50,50,,,,,,,,,1,1.0679097684,3,1.11711187469,,,,,,,,,2018_jun._12_1919,59.9049391033,Experimento Piloto1,001,132,
2.5,Stim\\03_075.jpg,Tr75_24,Tristeza,24,Guadalupe comenta los resultados con los compañeros.,Afirmación,Tr75,75,,,,,0,51,51,51,,,,,,,,,1,1.47090097729,4,0.899826409032,,,,,,,,,2018_jun._12_1919,59.9049391033,Experimento Piloto1,001,132,
0.25,Stim\\02_078.jpg,Al78_20,Alegría,20,Karen analiza la idea.,Afirmación,Al78,78,,,,,0,52,52,52,,,,,,,,,1,1.69257396582,3,1.73294301397,,,,,,,,,2018_jun._12_1919,59.9049391033,Experimento Piloto1,001,132,
2.5,Stim\\02_078.jpg,Al78_30,Alegría,30,Marisol toma 2 litros de agua cada día.,Afirmación,Al78,78,,,,,0,53,53,53,,,,,,,,,1,1.46565844081,3,0.916853496363,,,,,,,,,2018_jun._12_1919,59.9049391033,Experimento Piloto1,001,132,
2.5,Stim\\03_028.jpg,Tr28_27,Tristeza,27,Claudia informa los avances en el reporte.,Afirmación,Tr28,28,,,,,0,54,54,54,,,,,,,,,1,1.72753001026,4,1.36689856754,,,,,,,,,2018_jun._12_1919,59.9049391033,Experimento Piloto1,001,132,
2.5,Stim\\02_075.jpg,Al75_28,Alegría,28,Antonio responde la pregunta.,Afirmación,Al75,75,,,,,0,55,55,55,,,,,,,,,1,1.28842027757,2,7.09835958767,,,,,,,,,2018_jun._12_1919,59.9049391033,Experimento Piloto1,001,132,
2.5,Stim\\03_078.jpg,Tr78_28,Tristeza,28,Antonio responde la pregunta.,Afirmación,Tr78,78,,,,,0,56,56,56,,,,,,,,,1,1.91653889062,4,0.900466330492,,,,,,,,,2018_jun._12_1919,59.9049391033,Experimento Piloto1,001,132,
0.25,Stim\\03_028.jpg,Tr28_19,Tristeza,19,Armando acompaña a Rodrígo a la tienda.,Afirmación,Tr28,28,,,,,0,57,57,57,,,,,,,,,1,1.73171582846,4,0.866672319157,,,,,,,,,2018_jun._12_1919,59.9049391033,Experimento Piloto1,001,132,
2.5,Stim\\05_078.jpg,En78_21,Enojo,21,Mauro anuncia la actividad.,Afirmación,En78,78,,,,,0,58,58,58,,,,,,,,,1,1.02348119059,2,0.70020304342,,,,,,,,,2018_jun._12_1919,59.9049391033,Experimento Piloto1,001,132,
0.25,Stim\\05_028.jpg,En28_17,Enojo,17,Brenda sube el autobús en las mañanas.,Afirmación,En28,28,,,,,0,59,59,59,,,,,,,,,1,6.96461466375,2,1.26647596948,,,,,,,,,2018_jun._12_1919,59.9049391033,Experimento Piloto1,001,132,
0.25,Stim\\03_075.jpg,Tr75_20,Tristeza,20,Karen analiza la idea.,Afirmación,Tr75,75,,,,,0,60,60,60,,,,,,,,,1,1.27622651613,4,2.33326788344,,,,,,,,,2018_jun._12_1919,59.9049391033,Experimento Piloto1,001,132,
2.5,Stim\\03_078.jpg,Tr78_21,Tristeza,21,Mauro anuncia la actividad.,Afirmación,Tr78,78,,,,,0,61,61,61,,,,,,,,,1,1.6378745147,4,0.816873131331,,,,,,,,,2018_jun._12_1919,59.9049391033,Experimento Piloto1,001,132,
0.25,Stim\\05_075.jpg,En75_17,Enojo,17,Brenda sube el autobús en las mañanas.,Afirmación,En75,75,,,,,0,62,62,62,,,,,,,,,1,1.46594671784,2,0.75024588335,,,,,,,,,2018_jun._12_1919,59.9049391033,Experimento Piloto1,001,132,
0.25,Stim\\03_019.jpg,Tr19_26,Tristeza,26,Víctor trae el café a Marco.,Afirmación,Tr19,19,,,,,0,63,63,63,,,,,,,,,1,5.53813423178,2,2.39980097282,,,,,,,,,2018_jun._12_1919,59.9049391033,Experimento Piloto1,001,132,
0.25,Stim\\05_019.jpg,En19_30,Enojo,30,Marisol toma 2 litros de agua cada día.,Afirmación,En19,19,,,,,0,64,64,64,,,,,,,,,1,1.51309072248,2,0.700527912892,,,,,,,,,2018_jun._12_1919,59.9049391033,Experimento Piloto1,001,132,
0.25,Stim\\02_019.jpg,Al19_27,Alegría,27,Claudia informa los avances en el reporte.,Afirmación,Al19,19,,,,,0,65,65,65,,,,,,,,,1,2.09532196885,3,0.750010709982,,,,,,,,,2018_jun._12_1919,59.9049391033,Experimento Piloto1,001,132,
0.25,Stim\\05_028.jpg,En28_23,Enojo,23,Óscar consigue un nuevo departamento.,Afirmación,En28,28,,,,,0,66,66,66,,,,,,,,,1,1.31748672408,2,1.53303895756,,,,,,,,,2018_jun._12_1919,59.9049391033,Experimento Piloto1,001,132,
0.25,Stim\\05_019.jpg,En19_18,Enojo,18,Sofía escucha la música.,Afirmación,En19,19,,,,,0,67,67,67,,,,,,,,,1,0.958789771967,2,0.700340041947,,,,,,,,,2018_jun._12_1919,59.9049391033,Experimento Piloto1,001,132,
0.25,Stim\\05_075.jpg,En75_25,Enojo,25,Luis decide la comida siguiente.,Afirmación,En75,75,,,,,0,68,68,68,,,,,,,,,1,1.95180820206,2,0.800264179571,,,,,,,,,2018_jun._12_1919,59.9049391033,Experimento Piloto1,001,132,
0.25,Stim\\03_078.jpg,Tr78_16,Tristeza,16,Valeria modifica algunas imágenes.,Afirmación,Tr78,78,,,,,0,69,69,69,,,,,,,,,1,1.2186135035,4,0.70022758713,,,,,,,,,2018_jun._12_1919,59.9049391033,Experimento Piloto1,001,132,
0.25,Stim\\05_019.jpg,En19_27,Enojo,27,Claudia informa los avances en el reporte.,Afirmación,En19,19,,,,,0,70,70,70,,,,,,,,,1,1.31271676559,2,1.6331697086,,,,,,,,,2018_jun._12_1919,59.9049391033,Experimento Piloto1,001,132,
0.25,Stim\\05_075.jpg,En75_30,Enojo,30,Marisol toma 2 litros de agua cada día.,Afirmación,En75,75,,,,,0,71,71,71,,,,,,,,,1,1.31285197912,2,1.16713864965,,,,,,,,,2018_jun._12_1919,59.9049391033,Experimento Piloto1,001,132,
2.5,Stim\\02_028.jpg,Al28_16,Alegría,16,Valeria modifica algunas imágenes.,Afirmación,Al28,28,,,,,0,72,72,72,,,,,,,,,1,2.4523365612,3,1.73315364363,,,,,,,,,2018_jun._12_1919,59.9049391033,Experimento Piloto1,001,132,
0.25,Stim\\05_075.jpg,En75_29,Enojo,29,Miriam mira la película.,Afirmación,En75,75,,,,,0,73,73,73,,,,,,,,,1,5.27331652461,2,0.966713374091,,,,,,,,,2018_jun._12_1919,59.9049391033,Experimento Piloto1,001,132,
2.5,Stim\\02_028.jpg,Al28_28,Alegría,28,Antonio responde la pregunta.,Afirmación,Al28,28,,,,,0,74,74,74,,,,,,,,,1,1.42238341738,3,1.48333035834,,,,,,,,,2018_jun._12_1919,59.9049391033,Experimento Piloto1,001,132,
2.5,Stim\\03_019.jpg,Tr19_28,Tristeza,28,Antonio responde la pregunta.,Afirmación,Tr19,19,,,,,0,75,75,75,,,,,,,,,1,1.49995091258,3,2.79957115445,,,,,,,,,2018_jun._12_1919,59.9049391033,Experimento Piloto1,001,132,
0.25,Stim\\02_028.jpg,Tr28_30,Tristeza,30,Marisol toma 2 litros de agua cada día.,Afirmación,Tr28,28,,,,,0,76,76,76,,,,,,,,,1,1.78219420768,3,2.33318220358,,,,,,,,,2018_jun._12_1919,59.9049391033,Experimento Piloto1,001,132,
2.5,Stim\\02_075.jpg,Al75_27,Alegría,27,Claudia informa los avances en el reporte.,Afirmación,Al75,75,,,,,0,77,77,77,,,,,,,,,1,1.84650229818,3,0.750301218261,,,,,,,,,2018_jun._12_1919,59.9049391033,Experimento Piloto1,001,132,
2.5,Stim\\02_075.jpg,Al75_20,Alegría,20,Karen analiza la idea.,Afirmación,Al75,75,,,,,0,78,78,78,,,,,,,,,1,2.97550091481,3,4.23253112589,,,,,,,,,2018_jun._12_1919,59.9049391033,Experimento Piloto1,001,132,
2.5,Stim\\05_019.jpg,En19_28,Enojo,28,Antonio responde la pregunta.,Afirmación,En19,19,,,,,0,79,79,79,,,,,,,,,1,0.72177830336,2,1.01675442902,,,,,,,,,2018_jun._12_1919,59.9049391033,Experimento Piloto1,001,132,
2.5,Stim\\02_078.jpg,Al78_21,Alegría,21,Mauro anuncia la actividad.,Afirmación,Al78,78,,,,,0,80,80,80,,,,,,,,,1,2.6566772279,3,2.76591191039,,,,,,,,,2018_jun._12_1919,59.9049391033,Experimento Piloto1,001,132,
2.5,Stim\\03_078.jpg,Tr78_19,Tristeza,19,Armando acompaña a Rodrígo a la tienda.,Afirmación,Tr78,78,,,,,0,81,81,81,,,,,,,,,1,4.29706189477,4,0.600375741889,,,,,,,,,2018_jun._12_1919,59.9049391033,Experimento Piloto1,001,132,
2.5,Stim\\05_075.jpg,En75_22,Enojo,22,Enrique corre todas las mañanas.,Afirmación,En75,75,,,,,0,82,82,82,,,,,,,,,1,1.02014369227,2,1.26669240037,,,,,,,,,2018_jun._12_1919,59.9049391033,Experimento Piloto1,001,132,
0.25,Stim\\03_019.jpg,Tr19_19,Tristeza,19,Armando acompaña a Rodrígo a la tienda.,Afirmación,Tr19,19,,,,,0,83,83,83,,,,,,,,,1,1.56596322906,3,0.550657771431,,,,,,,,,2018_jun._12_1919,59.9049391033,Experimento Piloto1,001,132,
2.5,Stim\\03_019.jpg,Tr19_27,Tristeza,27,Claudia informa los avances en el reporte.,Afirmación,Tr19,19,,,,,0,84,84,84,,,,,,,,,1,2.46223035388,4,4.79898076666,,,,,,,,,2018_jun._12_1919,59.9049391033,Experimento Piloto1,001,132,
0.25,Stim\\05_078.jpg,En78_18,Enojo,18,Sofía escucha la música.,Afirmación,En78,78,,,,,0,85,85,85,,,,,,,,,1,4.65643536079,2,0.966867330091,,,,,,,,,2018_jun._12_1919,59.9049391033,Experimento Piloto1,001,132,
2.5,Stim\\05_019.jpg,En19_25,Enojo,25,Luis decide la comida siguiente.,Afirmación,En19,19,,,,,0,86,86,86,,,,,,,,,1,3.6342755143,2,0.600340488197,,,,,,,,,2018_jun._12_1919,59.9049391033,Experimento Piloto1,001,132,
0.25,Stim\\05_028.jpg,En28_16,Enojo,16,Valeria modifica algunas imágenes.,Afirmación,En28,28,,,,,0,87,87,87,,,,,,,,,1,1.73513008166,2,0.483771698871,,,,,,,,,2018_jun._12_1919,59.9049391033,Experimento Piloto1,001,132,
2.5,Stim\\02_028.jpg,Al28_22,Alegría,22,Enrique corre todas las mañanas.,Afirmación,Al28,28,,,,,0,88,88,88,,,,,,,,,1,1.13703467357,3,0.550253023339,,,,,,,,,2018_jun._12_1919,59.9049391033,Experimento Piloto1,001,132,
0.25,Stim\\03_078.jpg,Tr78_17,Tristeza,17,Brenda sube el autobús en las mañanas.,Afirmación,Tr78,78,,,,,0,89,89,89,,,,,,,,,1,1.06615020751,4,0.583654781561,,,,,,,,,2018_jun._12_1919,59.9049391033,Experimento Piloto1,001,132,
2.5,Stim\\02_028.jpg,Al28_25,Alegría,25,Luis decide la comida siguiente.,Afirmación,Al28,28,,,,,0,90,90,90,,,,,,,,,1,1.95117720559,3,1.06680173145,,,,,,,,,2018_jun._12_1919,59.9049391033,Experimento Piloto1,001,132,
0.25,Stim\\03_028.jpg,Tr28_18,Tristeza,18,Sofía escucha la música.,Afirmación,Tr28,28,,,,,0,91,91,91,,,,,,,,,1,1.37516087286,4,0.650210629658,,,,,,,,,2018_jun._12_1919,59.9049391033,Experimento Piloto1,001,132,
2.5,Stim\\03_075.jpg,Tr75_26,Tristeza,26,Víctor trae el café a Marco.,Afirmación,Tr75,75,,,,,0,92,92,92,,,,,,,,,1,1.23751796153,4,1.20018251595,,,,,,,,,2018_jun._12_1919,59.9049391033,Experimento Piloto1,001,132,
0.25,Stim\\02_019.jpg,Al19_19,Alegría,19,Armando acompaña a Rodrígo a la tienda.,Afirmación,Al19,19,,,,,0,93,93,93,,,,,,,,,1,1.68221027266,3,1.68309161498,,,,,,,,,2018_jun._12_1919,59.9049391033,Experimento Piloto1,001,132,
0.25,Stim\\02_028.jpg,Al28_24,Alegría,24,Guadalupe comenta los resultados con los compañeros.,Afirmación,Al28,28,,,,,0,94,94,94,,,,,,,,,1,1.57473961355,3,0.649941541345,,,,,,,,,2018_jun._12_1919,59.9049391033,Experimento Piloto1,001,132,
0.25,Stim\\05_078.jpg,En78_20,Enojo,20,Karen analiza la idea.,Afirmación,En78,78,,,,,0,95,95,95,,,,,,,,,1,1.12606586639,2,0.700269088313,,,,,,,,,2018_jun._12_1919,59.9049391033,Experimento Piloto1,001,132,
2.5,Stim\\02_019.jpg,Al19_17,Alegría,17,Brenda sube el autobús en las mañanas.,Afirmación,Al19,19,,,,,0,96,96,96,,,,,,,,,1,1.7333254496,3,1.7832286135,,,,,,,,,2018_jun._12_1919,59.9049391033,Experimento Piloto1,001,132,
0.25,Stim\\03_019.jpg,Tr19_18,Tristeza,18,Sofía escucha la música.,Afirmación,Tr19,19,,,,,0,97,97,97,,,,,,,,,1,3.99123209425,4,5.56548797358,,,,,,,,,2018_jun._12_1919,59.9049391033,Experimento Piloto1,001,132,
0.25,Stim\\02_075.jpg,Al75_26,Alegría,26,Víctor trae el café a Marco.,Afirmación,Al75,75,,,,,0,98,98,98,,,,,,,,,1,4.40494087197,3,4.49915837387,,,,,,,,,2018_jun._12_1919,59.9049391033,Experimento Piloto1,001,132,
2.5,Stim\\02_075.jpg,Al75_18,Alegría,18,Sofía escucha la música.,Afirmación,Al75,75,,,,,0,99,99,99,,,,,,,,,1,1.43685662011,3,0.600423936811,,,,,,,,,2018_jun._12_1919,59.9049391033,Experimento Piloto1,001,132,
2.5,Stim\\05_019.jpg,En19_24,Enojo,24,Guadalupe comenta los resultados con los compañeros.,Afirmación,En19,19,,,,,0,100,100,100,,,,,,,,,1,1.3079378821,2,0.650233388371,,,,,,,,,2018_jun._12_1919,59.9049391033,Experimento Piloto1,001,132,
2.5,Stim\\03_019.jpg,Tr19_30,Tristeza,30,Marisol toma 2 litros de agua cada día.,Afirmación,Tr19,19,,,,,0,101,101,101,,,,,,,,,1,2.81515641037,3,0.966965058682,,,,,,,,,2018_jun._12_1919,59.9049391033,Experimento Piloto1,001,132,
2.5,Stim\\05_075.jpg,En75_17,Enojo,17,Brenda sube el autobús en las mañanas.,Afirmación,En75,75,,,,,0,102,102,102,,,,,,,,,1,0.86664599045,2,0.850058904904,,,,,,,,,2018_jun._12_1919,59.9049391033,Experimento Piloto1,001,132,
0.25,Stim\\02_019.jpg,Al19_29,Alegría,29,Miriam mira la película.,Afirmación,Al19,19,,,,,0,103,103,103,,,,,,,,,1,3.32419340444,3,0.700223124637,,,,,,,,,2018_jun._12_1919,59.9049391033,Experimento Piloto1,001,132,
0.25,Stim\\05_078.jpg,En78_22,Enojo,22,Enrique corre todas las mañanas.,Afirmación,En78,78,,,,,0,104,104,104,,,,,,,,,1,1.0702771208,2,0.86684903387,,,,,,,,,2018_jun._12_1919,59.9049391033,Experimento Piloto1,001,132,
0.25,Stim\\03_028.jpg,Tr28_21,Tristeza,21,Mauro anuncia la actividad.,Afirmación,Tr28,28,,,,,0,105,105,105,,,,,,,,,1,2.28928644741,4,1.93335668705,,,,,,,,,2018_jun._12_1919,59.9049391033,Experimento Piloto1,001,132,
2.5,Stim\\05_028.jpg,En28_19,Enojo,19,Armando acompaña a Rodrígo a la tienda.,Afirmación,En28,28,,,,,0,106,106,106,,,,,,,,,1,2.61573831943,2,1.73337989201,,,,,,,,,2018_jun._12_1919,59.9049391033,Experimento Piloto1,001,132,
2.5,Stim\\03_019.jpg,Tr19_29,Tristeza,29,Miriam mira la película.,Afirmación,Tr19,19,,,,,0,107,107,107,,,,,,,,,1,1.17527422018,3,0.900226694632,,,,,,,,,2018_jun._12_1919,59.9049391033,Experimento Piloto1,001,132,
2.5,Stim\\05_078.jpg,En78_17,Enojo,17,Brenda sube el autobús en las mañanas.,Afirmación,En78,78,,,,,0,108,108,108,,,,,,,,,1,1.38122361551,2,0.650258824579,,,,,,,,,2018_jun._12_1919,59.9049391033,Experimento Piloto1,001,132,
2.5,Stim\\02_028.jpg,Al28_21,Alegría,21,Mauro anuncia la actividad.,Afirmación,Al28,28,,,,,0,109,109,109,,,,,,,,,1,2.20643446829,3,0.500324423223,,,,,,,,,2018_jun._12_1919,59.9049391033,Experimento Piloto1,001,132,
0.25,Stim\\02_075.jpg,Al75_27,Alegría,27,Claudia informa los avances en el reporte.,Afirmación,Al75,75,,,,,0,110,110,110,,,,,,,,,1,1.16250702843,3,0.500279798295,,,,,,,,,2018_jun._12_1919,59.9049391033,Experimento Piloto1,001,132,
0.25,Stim\\02_019.jpg,Al19_28,Alegría,28,Antonio responde la pregunta.,Afirmación,Al19,19,,,,,0,111,111,111,,,,,,,,,1,1.9379106609,3,1.51674996653,,,,,,,,,2018_jun._12_1919,59.9049391033,Experimento Piloto1,001,132,
2.5,Stim\\05_019.jpg,En19_20,Enojo,20,Karen analiza la idea.,Afirmación,En19,19,,,,,0,112,112,112,,,,,,,,,1,1.34329555089,2,0.65023383462,,,,,,,,,2018_jun._12_1919,59.9049391033,Experimento Piloto1,001,132,
2.5,Stim\\03_078.jpg,Tr78_22,Tristeza,22,Enrique corre todas las mañanas.,Afirmación,Tr78,78,,,,,0,113,113,113,,,,,,,,,1,3.73663171047,4,1.58332991209,,,,,,,,,2018_jun._12_1919,59.9049391033,Experimento Piloto1,001,132,
2.5,Stim\\05_028.jpg,En28_18,Enojo,18,Sofía escucha la música.,Afirmación,En28,28,,,,,0,114,114,114,,,,,,,,,1,0.87468338614,2,0.600171359722,,,,,,,,,2018_jun._12_1919,59.9049391033,Experimento Piloto1,001,132,
0.25,Stim\\03_075.jpg,Tr75_29,Tristeza,29,Miriam mira la película.,Afirmación,Tr75,75,,,,,0,115,115,115,,,,,,,,,1,2.03891249052,3,2.59960640814,,,,,,,,,2018_jun._12_1919,59.9049391033,Experimento Piloto1,001,132,
0.25,Stim\\03_078.jpg,Tr78_24,Tristeza,24,Guadalupe comenta los resultados con los compañeros.,Afirmación,Tr78,78,,,,,0,116,116,116,,,,,,,,,1,2.07428042304,4,0.550246775849,,,,,,,,,2018_jun._12_1919,59.9049391033,Experimento Piloto1,001,132,
2.5,Stim\\05_075.jpg,En75_23,Enojo,23,Óscar consigue un nuevo departamento.,Afirmación,En75,75,,,,,0,117,117,117,,,,,,,,,1,0.964804319693,2,4.03271988933,,,,,,,,,2018_jun._12_1919,59.9049391033,Experimento Piloto1,001,132,
2.5,Stim\\03_019.jpg,Tr19_21,Tristeza,21,Mauro anuncia la actividad.,Afirmación,Tr19,19,,,,,0,118,118,118,,,,,,,,,1,2.10670489535,3,0.816539783123,,,,,,,,,2018_jun._12_1919,59.9049391033,Experimento Piloto1,001,132,
0.25,Stim\\03_078.jpg,Tr78_29,Tristeza,29,Miriam mira la película.,Afirmación,Tr78,78,,,,,0,119,119,119,,,,,,,,,1,3.5244937302,4,2.18321031728,,,,,,,,,2018_jun._12_1919,59.9049391033,Experimento Piloto1,001,132,
2.5,Stim\\05_028.jpg,En28_16,Enojo,16,Valeria modifica algunas imágenes.,Afirmación,En28,28,,,,,,,,,0,0,0,0,,,,,,,,,1,3.61895845419,2,1.16670311036,,,,,2018_jun._12_1919,59.9049391033,Experimento Piloto1,001,132,
2.5,Stim\\05_028.jpg,En28_29,Enojo,29,Miriam mira la película.,Afirmación,En28,28,,,,,,,,,0,1,1,1,,,,,,,,,1,2.87377794636,2,0.700402963095,,,,,2018_jun._12_1919,59.9049391033,Experimento Piloto1,001,132,
0.25,Stim\\03_028.jpg,Tr28_29,Tristeza,29,Miriam mira la película.,Afirmación,Tr28,28,,,,,,,,,0,2,2,2,,,,,,,,,1,2.11642554331,4,0.650305234504,,,,,2018_jun._12_1919,59.9049391033,Experimento Piloto1,001,132,
2.5,Stim\\02_075.jpg,Al75_22,Alegría,22,Enrique corre todas las mañanas.,Afirmación,Al75,75,,,,,,,,,0,3,3,3,,,,,,,,,1,1.12023160337,3,1.78322593601,,,,,2018_jun._12_1919,59.9049391033,Experimento Piloto1,001,132,
2.5,Stim\\05_019.jpg,En19_17,Enojo,17,Brenda sube el autobús en las mañanas.,Afirmación,En19,19,,,,,,,,,0,4,4,4,,,,,,,,,1,1.43233700745,2,1.91650006694,,,,,2018_jun._12_1919,59.9049391033,Experimento Piloto1,001,132,
2.5,Stim\\02_028.jpg,Al28_17,Alegría,17,Brenda sube el autobús en las mañanas.,Afirmación,Al28,28,,,,,,,,,0,5,5,5,,,,,,,,,1,2.06652862689,3,0.700257039582,,,,,2018_jun._12_1919,59.9049391033,Experimento Piloto1,001,132,
0.25,Stim\\05_075.jpg,En75_24,Enojo,24,Guadalupe comenta los resultados con los compañeros.,Afirmación,En75,75,,,,,,,,,0,6,6,6,,,,,,,,,1,1.87219554643,2,0.650321299478,,,,,2018_jun._12_1919,59.9049391033,Experimento Piloto1,001,132,
2.5,Stim\\03_078.jpg,Tr78_23,Tristeza,23,Óscar consigue un nuevo departamento.,Afirmación,Tr78,78,,,,,,,,,0,7,7,7,,,,,,,,,1,1.74994332634,4,0.549940202597,,,,,2018_jun._12_1919,59.9049391033,Experimento Piloto1,001,132,
0.25,Stim\\05_075.jpg,En75_16,Enojo,16,Valeria modifica algunas imágenes.,Afirmación,En75,75,,,,,,,,,0,8,8,8,,,,,,,,,1,2.94913159891,2,0.600392253113,,,,,2018_jun._12_1919,59.9049391033,Experimento Piloto1,001,132,
0.25,Stim\\02_078.jpg,Al78_23,Alegría,23,Óscar consigue un nuevo departamento.,Afirmación,Al78,78,,,,,,,,,0,9,9,9,,,,,,,,,1,3.1160948726,3,4.34915748137,,,,,2018_jun._12_1919,59.9049391033,Experimento Piloto1,001,132,
2.5,Stim\\05_078.jpg,En78_24,Enojo,24,Guadalupe comenta los resultados con los compañeros.,Afirmación,En78,78,,,,,,,,,0,10,10,10,,,,,,,,,1,2.54046900799,2,1.83311972868,,,,,2018_jun._12_1919,59.9049391033,Experimento Piloto1,001,132,
2.5,Stim\\03_028.jpg,Tr28_28,Tristeza,28,Antonio responde la pregunta.,Afirmación,Tr28,28,,,,,,,,,0,11,11,11,,,,,,,,,1,0.771552054978,4,0.500261055826,,,,,2018_jun._12_1919,59.9049391033,Experimento Piloto1,001,132,
0.25,Stim\\02_019.jpg,Al19_20,Alegría,20,Karen analiza la idea.,Afirmación,Al19,19,,,,,,,,,0,12,12,12,,,,,,,,,1,1.12643848454,3,0.433721718952,,,,,2018_jun._12_1919,59.9049391033,Experimento Piloto1,001,132,
2.5,Stim\\05_078.jpg,En78_27,Enojo,27,Claudia informa los avances en el reporte.,Afirmación,En78,78,,,,,,,,,0,13,13,13,,,,,,,,,1,0.912750234281,2,0.766817796421,,,,,2018_jun._12_1919,59.9049391033,Experimento Piloto1,001,132,
0.25,Stim\\05_028.jpg,En28_28,Enojo,28,Antonio responde la pregunta.,Afirmación,En28,28,,,,,,,,,0,14,14,14,,,,,,,,,1,0.905280913919,2,0.500278459547,,,,,2018_jun._12_1919,59.9049391033,Experimento Piloto1,001,132,
2.5,Stim\\03_078.jpg,Tr78_30,Tristeza,30,Marisol toma 2 litros de agua cada día.,Afirmación,Tr78,78,,,,,,,,,0,15,15,15,,,,,,,,,1,0.965425498684,4,0.500294970771,,,,,2018_jun._12_1919,59.9049391033,Experimento Piloto1,001,132,
0.25,Stim\\03_028.jpg,Tr28_27,Tristeza,27,Claudia informa los avances en el reporte.,Afirmación,Tr28,28,,,,,,,,,0,16,16,16,,,,,,,,,1,0.745817305547,4,0.400904101031,,,,,2018_jun._12_1919,59.9049391033,Experimento Piloto1,001,132,
0.25,Stim\\02_075.jpg,Al75_24,Alegría,24,Guadalupe comenta los resultados con los compañeros.,Afirmación,Al75,75,,,,,,,,,0,17,17,17,,,,,,,,,1,1.92296755768,3,1.48305056004,,,,,2018_jun._12_1919,59.9049391033,Experimento Piloto1,001,132,
0.25,Stim\\02_019.jpg,Al19_16,Alegría,16,Valeria modifica algunas imágenes.,Afirmación,Al19,19,,,,,,,,,0,18,18,18,,,,,,,,,1,0.952630639475,3,0.450262394574,,,,,2018_jun._12_1919,59.9049391033,Experimento Piloto1,001,132,
2.5,Stim\\02_028.jpg,Al28_30,Alegría,30,Marisol toma 2 litros de agua cada día.,Afirmación,Al28,28,,,,,,,,,0,19,19,19,,,,,,,,,1,0.815613369628,3,0.500317729484,,,,,2018_jun._12_1919,59.9049391033,Experimento Piloto1,001,132,
2.5,Stim\\05_078.jpg,En78_16,Enojo,16,Valeria modifica algunas imágenes.,Afirmación,En78,78,,,,,,,,,0,20,20,20,,,,,,,,,1,2.40151590879,2,0.500244098354,,,,,2018_jun._12_1919,59.9049391033,Experimento Piloto1,001,132,
0.25,Stim\\02_075.jpg,Al75_28,Alegría,28,Antonio responde la pregunta.,Afirmación,Al75,75,,,,,,,,,0,21,21,21,,,,,,,,,1,1.11909679147,3,0.383702976482,,,,,2018_jun._12_1919,59.9049391033,Experimento Piloto1,001,132,
2.5,Stim\\03_075.jpg,Tr75_17,Tristeza,17,Brenda sube el autobús en las mañanas.,Afirmación,Tr75,75,,,,,,,,,0,22,22,22,,,,,,,,,1,1.69708197599,4,0.849884421438,,,,,2018_jun._12_1919,59.9049391033,Experimento Piloto1,001,132,
0.25,Stim\\05_075.jpg,En75_18,Enojo,18,Sofía escucha la música.,Afirmación,En75,75,,,,,,,,,0,23,23,23,,,,,,,,,1,5.79042393681,2,2.38314962738,,,,,2018_jun._12_1919,59.9049391033,Experimento Piloto1,001,132,
2.5,Stim\\02_075.jpg,Al75_25,Alegría,25,Luis decide la comida siguiente.,Afirmación,Al75,75,,,,,,,,,0,24,24,24,,,,,,,,,1,2.93395198358,3,5.61558793342,,,,,2018_jun._12_1919,59.9049391033,Experimento Piloto1,001,132,
0.25,Stim\\02_028.jpg,Al28_18,Alegría,18,Sofía escucha la música.,Afirmación,Al28,28,,,,,,,,,0,25,25,25,,,,,,,,,1,1.07554553974,3,0.600226694632,,,,,2018_jun._12_1919,59.9049391033,Experimento Piloto1,001,132,
0.25,Stim\\02_028.jpg,Al28_23,Alegría,23,Óscar consigue un nuevo departamento.,Afirmación,Al28,28,,,,,,,,,0,26,26,26,,,,,,,,,1,1.31740506047,3,2.84957338569,,,,,2018_jun._12_1919,59.9049391033,Experimento Piloto1,001,132,
0.25,Stim\\02_075.jpg,Al75_19,Alegría,19,Armando acompaña a Rodrígo a la tienda.,Afirmación,Al75,75,,,,,,,,,0,27,27,27,,,,,,,,,1,4.81509572047,3,0.900153063501,,,,,2018_jun._12_1919,59.9049391033,Experimento Piloto1,001,132,
2.5,Stim\\05_019.jpg,En19_16,Enojo,16,Valeria modifica algunas imágenes.,Afirmación,En19,19,,,,,,,,,0,28,28,28,,,,,,,,,1,2.15246641974,2,0.700377973136,,,,,2018_jun._12_1919,59.9049391033,Experimento Piloto1,001,132,
2.5,Stim\\02_019.jpg,Al19_25,Alegría,25,Luis decide la comida siguiente.,Afirmación,Al19,19,,,,,,,,,0,29,29,29,,,,,,,,,1,2.00171582846,3,0.650240528359,,,,,2018_jun._12_1919,59.9049391033,Experimento Piloto1,001,132,
0.25,Stim\\02_078.jpg,Al78_27,Alegría,27,Claudia informa los avances en el reporte.,Afirmación,Al78,78,,,,,,,,,0,30,30,30,,,,,,,,,1,2.54560979963,3,3.46607568388,,,,,2018_jun._12_1919,59.9049391033,Experimento Piloto1,001,132,
0.25,Stim\\03_019.jpg,Tr19_22,Tristeza,22,Enrique corre todas las mañanas.,Afirmación,Tr19,19,,,,,,,,,0,31,31,31,,,,,,,,,1,2.35365031907,3,1.26682761391,,,,,2018_jun._12_1919,59.9049391033,Experimento Piloto1,001,132,
2.5,Stim\\05_019.jpg,En19_26,Enojo,26,Víctor trae el café a Marco.,Afirmación,En19,19,,,,,,,,,0,32,32,32,,,,,,,,,1,1.639228435,2,0.600310589495,,,,,2018_jun._12_1919,59.9049391033,Experimento Piloto1,001,132,
2.5,Stim\\02_078.jpg,Al78_26,Alegría,26,Víctor trae el café a Marco.,Afirmación,Al78,78,,,,,,,,,0,33,33,33,,,,,,,,,1,2.58313936365,3,0.850266857066,,,,,2018_jun._12_1919,59.9049391033,Experimento Piloto1,001,132,
0.25,Stim\\05_078.jpg,En78_17,Enojo,17,Brenda sube el autobús en las mañanas.,Afirmación,En78,78,,,,,,,,,0,34,34,34,,,,,,,,,1,1.48256727208,2,1.15010754608,,,,,2018_jun._12_1919,59.9049391033,Experimento Piloto1,001,132,
0.25,Stim\\05_078.jpg,En78_21,Enojo,21,Mauro anuncia la actividad.,Afirmación,En78,78,,,,,,,,,0,35,35,35,,,,,,,,,1,2.50616582623,2,0.550283814539,,,,,2018_jun._12_1919,59.9049391033,Experimento Piloto1,001,132,
2.5,Stim\\03_078.jpg,Tr78_20,Tristeza,20,Karen analiza la idea.,Afirmación,Tr78,78,,,,,,,,,0,36,36,36,,,,,,,,,1,2.6236025704,4,1.26669998661,,,,,2018_jun._12_1919,59.9049391033,Experimento Piloto1,001,132,
0.25,Stim\\03_078.jpg,Tr78_28,Tristeza,28,Antonio responde la pregunta.,Afirmación,Tr78,78,,,,,,,,,0,37,37,37,,,,,,,,,1,0.971876478201,4,1.31662814048,,,,,2018_jun._12_1919,59.9049391033,Experimento Piloto1,001,132,
2.5,Stim\\03_028.jpg,Tr28_17,Tristeza,17,Brenda sube el autobús en las mañanas.,Afirmación,Tr28,28,,,,,,,,,0,38,38,38,,,,,,,,,1,3.06626757107,4,0.950159310991,,,,,2018_jun._12_1919,59.9049391033,Experimento Piloto1,001,132,
0.25,Stim\\02_028.jpg,Al28_27,Alegría,27,Claudia informa los avances en el reporte.,Afirmación,Al28,28,,,,,,,,,0,39,39,39,,,,,,,,,1,2.19286625909,3,0.500267303316,,,,,2018_jun._12_1919,59.9049391033,Experimento Piloto1,001,132,
2.5,Stim\\02_019.jpg,Al19_28,Alegría,28,Antonio responde la pregunta.,Afirmación,Al19,19,,,,,,,,,0,40,40,40,,,,,,,,,1,1.58825248784,3,0.95031371324,,,,,2018_jun._12_1919,59.9049391033,Experimento Piloto1,001,132,
0.25,Stim\\02_019.jpg,Al19_17,Alegría,17,Brenda sube el autobús en las mañanas.,Afirmación,Al19,19,,,,,,,,,0,41,41,41,,,,,,,,,1,2.96556026596,3,1.01653308938,,,,,2018_jun._12_1919,59.9049391033,Experimento Piloto1,001,132,
2.5,Stim\\03_075.jpg,Tr75_21,Tristeza,21,Mauro anuncia la actividad.,Afirmación,Tr75,75,,,,,,,,,0,42,42,42,,,,,,,,,1,1.27275871302,4,1.73326252845,,,,,2018_jun._12_1919,59.9049391033,Experimento Piloto1,001,132,
0.25,Stim\\03_075.jpg,Tr75_26,Tristeza,26,Víctor trae el café a Marco.,Afirmación,Tr75,75,,,,,,,,,0,43,43,43,,,,,,,,,1,0.755812396805,4,0.550222678388,,,,,2018_jun._12_1919,59.9049391033,Experimento Piloto1,001,132,
0.25,Stim\\02_075.jpg,Al75_18,Alegría,18,Sofía escucha la música.,Afirmación,Al75,75,,,,,,,,,0,44,44,44,,,,,,,,,1,0.975118925432,3,0.950163773484,,,,,2018_jun._12_1919,59.9049391033,Experimento Piloto1,001,132,
2.5,Stim\\05_028.jpg,En28_27,Enojo,27,Claudia informa los avances en el reporte.,Afirmación,En28,28,,,,,,,,,0,45,45,45,,,,,,,,,1,0.959775536615,2,0.966454549511,,,,,2018_jun._12_1919,59.9049391033,Experimento Piloto1,001,132,
0.25,Stim\\02_019.jpg,Al19_23,Alegría,23,Óscar consigue un nuevo departamento.,Afirmación,Al19,19,,,,,,,,,0,46,46,46,,,,,,,,,1,1.21722254451,3,0.550151724753,,,,,2018_jun._12_1919,59.9049391033,Experimento Piloto1,001,132,
0.25,Stim\\03_075.jpg,Tr75_21,Tristeza,21,Mauro anuncia la actividad.,Afirmación,Tr75,75,,,,,,,,,0,47,47,47,,,,,,,,,1,2.50636485341,4,0.750227140881,,,,,2018_jun._12_1919,59.9049391033,Experimento Piloto1,001,132,
0.25,Stim\\02_078.jpg,Al78_28,Alegría,28,Antonio responde la pregunta.,Afirmación,Al78,78,,,,,,,,,0,48,48,48,,,,,,,,,1,3.73804007318,3,2.0832919809,,,,,2018_jun._12_1919,59.9049391033,Experimento Piloto1,001,132,
2.5,Stim\\03_075.jpg,Tr75_23,Tristeza,23,Óscar consigue un nuevo departamento.,Afirmación,Tr75,75,,,,,,,,,0,49,49,49,,,,,,,,,1,1.73327056094,2,3.93252934089,,,,,2018_jun._12_1919,59.9049391033,Experimento Piloto1,001,132,
0.25,Stim\\02_078.jpg,Al78_22,Alegría,22,Enrique corre todas las mañanas.,Afirmación,Al78,78,,,,,,,,,0,50,50,50,,,,,,,,,1,7.06817394797,3,0.750405194342,,,,,2018_jun._12_1919,59.9049391033,Experimento Piloto1,001,132,
2.5,Stim\\03_028.jpg,Tr28_23,Tristeza,23,Óscar consigue un nuevo departamento.,Afirmación,Tr28,28,,,,,,,,,0,51,51,51,,,,,,,,,1,3.79910928645,3,10.6471832746,,,,,2018_jun._12_1919,59.9049391033,Experimento Piloto1,001,132,
0.25,Stim\\02_028.jpg,Al28_19,Alegría,19,Armando acompaña a Rodrígo a la tienda.,Afirmación,Al28,28,,,,,,,,,0,52,52,52,,,,,,,,,1,5.67893971172,3,2.74942656968,,,,,2018_jun._12_1919,59.9049391033,Experimento Piloto1,001,132,
0.25,Stim\\03_028.jpg,Tr28_28,Tristeza,28,Antonio responde la pregunta.,Afirmación,Tr28,28,,,,,,,,,0,53,53,53,,,,,,,,,1,3.9813204516,4,2.6996947655,,,,,2018_jun._12_1919,59.9049391033,Experimento Piloto1,001,132,
2.5,Stim\\05_075.jpg,En75_16,Enojo,16,Valeria modifica algunas imágenes.,Afirmación,En75,75,,,,,,,,,0,54,54,54,,,,,,,,,1,2.96843098755,2,0.55061537775,,,,,2018_jun._12_1919,59.9049391033,Experimento Piloto1,001,132,
0.25,Stim\\03_019.jpg,Tr19_28,Tristeza,28,Antonio responde la pregunta.,Afirmación,Tr19,19,,,,,,,,,0,55,55,55,,,,,,,,,1,1.22204962292,3,4.34914097015,,,,,2018_jun._12_1919,59.9049391033,Experimento Piloto1,001,132,
2.5,Stim\\03_019.jpg,Tr19_24,Tristeza,24,Guadalupe comenta los resultados con los compañeros.,Afirmación,Tr19,19,,,,,,,,,0,56,56,56,,,,,,,,,1,2.08994957383,3,0.900302557008,,,,,2018_jun._12_1919,59.9049391033,Experimento Piloto1,001,132,
0.25,Stim\\03_019.jpg,Tr19_30,Tristeza,30,Marisol toma 2 litros de agua cada día.,Afirmación,Tr19,19,,,,,,,,,0,57,57,57,,,,,,,,,1,2.19867374716,3,0.650408318087,,,,,2018_jun._12_1919,59.9049391033,Experimento Piloto1,001,132,
0.25,Stim\\02_075.jpg,Al75_23,Alegría,23,Óscar consigue un nuevo departamento.,Afirmación,Al75,75,,,,,,,,,0,58,58,58,,,,,,,,,1,4.03309875496,3,1.41670132536,,,,,2018_jun._12_1919,59.9049391033,Experimento Piloto1,001,132,
2.5,Stim\\02_078.jpg,Al78_22,Alegría,22,Enrique corre todas las mañanas.,Afirmación,Al78,78,,,,,,,,,0,59,59,59,,,,,,,,,1,1.13745816413,3,1.26666517917,,,,,2018_jun._12_1919,59.9049391033,Experimento Piloto1,001,132,
2.5,Stim\\05_075.jpg,En75_20,Enojo,20,Karen analiza la idea.,Afirmación,En75,75,,,,,,,,,0,60,60,60,,,,,,,,,1,1.54082466866,2,0.900144584765,,,,,2018_jun._12_1919,59.9049391033,Experimento Piloto1,001,132,
2.5,Stim\\03_028.jpg,Tr28_18,Tristeza,18,Sofía escucha la música.,Afirmación,Tr28,28,,,,,,,,,0,61,61,61,,,,,,,,,1,3.6909826409,4,1.06685215762,,,,,2018_jun._12_1919,59.9049391033,Experimento Piloto1,001,132,
0.25,Stim\\02_028.jpg,Al28_22,Alegría,22,Enrique corre todas las mañanas.,Afirmación,Al28,28,,,,,,,,,0,62,62,62,,,,,,,,,1,5.56885224687,3,0.916808425186,,,,,2018_jun._12_1919,59.9049391033,Experimento Piloto1,001,132,
2.5,Stim\\03_075.jpg,Tr75_29,Tristeza,29,Miriam mira la película.,Afirmación,Tr75,75,,,,,,,,,0,63,63,63,,,,,,,,,1,3.3908005712,2,4.28253648088,,,,,2018_jun._12_1919,59.9049391033,Experimento Piloto1,001,132,
2.5,Stim\\05_075.jpg,En75_19,Enojo,19,Armando acompaña a Rodrígo a la tienda.,Afirmación,En75,75,,,,,,,,,0,64,64,64,,,,,,,,,1,1.43186799946,2,0.600329778214,,,,,2018_jun._12_1919,59.9049391033,Experimento Piloto1,001,132,
0.25,Stim\\05_078.jpg,En78_27,Enojo,27,Claudia informa los avances en el reporte.,Afirmación,En78,78,,,,,,,,,0,65,65,65,,,,,,,,,1,1.31066580392,2,0.650243205855,,,,,2018_jun._12_1919,59.9049391033,Experimento Piloto1,001,132,
0.25,Stim\\02_075.jpg,Al75_29,Alegría,29,Miriam mira la película.,Afirmación,Al75,75,,,,,,,,,0,66,66,66,,,,,,,,,1,1.02534071132,3,0.650174037217,,,,,2018_jun._12_1919,59.9049391033,Experimento Piloto1,001,132,
2.5,Stim\\03_075.jpg,Tr75_19,Tristeza,19,Armando acompaña a Rodrígo a la tienda.,Afirmación,Tr75,75,,,,,,,,,0,67,67,67,,,,,,,,,1,1.43090320853,4,2.33323352225,,,,,2018_jun._12_1919,59.9049391033,Experimento Piloto1,001,132,
2.5,Stim\\03_028.jpg,Tr28_22,Tristeza,22,Enrique corre todas las mañanas.,Afirmación,Tr28,28,,,,,,,,,0,68,68,68,,,,,,,,,1,4.66893123299,4,0.500303895756,,,,,2018_jun._12_1919,59.9049391033,Experimento Piloto1,001,132,
0.25,Stim\\03_078.jpg,Tr78_25,Tristeza,25,Luis decide la comida siguiente.,Afirmación,Tr78,78,,,,,,,,,0,69,69,69,,,,,,,,,1,1.88468606364,4,1.16685483511,,,,,2018_jun._12_1919,59.9049391033,Experimento Piloto1,001,132,
2.5,Stim\\02_028.jpg,Al28_19,Alegría,19,Armando acompaña a Rodrígo a la tienda.,Afirmación,Al28,28,,,,,,,,,0,70,70,70,,,,,,,,,1,2.2984332188,3,1.56667142666,,,,,2018_jun._12_1919,59.9049391033,Experimento Piloto1,001,132,
0.25,Stim\\02_075.jpg,Al75_25,Alegría,25,Luis decide la comida siguiente.,Afirmación,Al75,75,,,,,,,,,0,71,71,71,,,,,,,,,1,1.16527243518,3,0.966950778705,,,,,2018_jun._12_1919,59.9049391033,Experimento Piloto1,001,132,
2.5,Stim\\02_019.jpg,Al19_24,Alegría,24,Guadalupe comenta los resultados con los compañeros.,Afirmación,Al19,19,,,,,,,,,0,72,72,72,,,,,,,,,1,1.57333526708,3,0.700223570887,,,,,2018_jun._12_1919,59.9049391033,Experimento Piloto1,001,132,
0.25,Stim\\03_028.jpg,Tr28_23,Tristeza,23,Óscar consigue un nuevo departamento.,Afirmación,Tr28,28,,,,,,,,,0,73,73,73,,,,,,,,,1,1.46635905217,3,8.64790352091,,,,,2018_jun._12_1919,59.9049391033,Experimento Piloto1,001,132,
0.25,Stim\\03_028.jpg,Tr28_25,Tristeza,25,Luis decide la comida siguiente.,Afirmación,Tr28,28,,,,,,,,,0,74,74,74,,,,,,,,,1,3.22980454282,3,3.56608594761,,,,,2018_jun._12_1919,59.9049391033,Experimento Piloto1,001,132,
0.25,Stim\\05_019.jpg,En19_23,Enojo,23,Óscar consigue un nuevo departamento.,Afirmación,En19,19,,,,,,,,,0,75,75,75,,,,,,,,,1,1.06643625329,2,0.650243652104,,,,,2018_jun._12_1919,59.9049391033,Experimento Piloto1,001,132,
2.5,Stim\\03_019.jpg,Tr19_26,Tristeza,26,Víctor trae el café a Marco.,Afirmación,Tr19,19,,,,,,,,,0,76,76,76,,,,,,,,,1,2.10616091749,3,1.98321344103,,,,,2018_jun._12_1919,59.9049391033,Experimento Piloto1,001,132,
0.25,Stim\\05_028.jpg,En28_30,Enojo,30,Marisol toma 2 litros de agua cada día.,Afirmación,En28,28,,,,,,,,,0,77,77,77,,,,,,,,,1,2.03224909635,2,1.16679325271,,,,,2018_jun._12_1919,59.9049391033,Experimento Piloto1,001,132,
2.5,Stim\\02_019.jpg,Al19_26,Alegría,26,Víctor trae el café a Marco.,Afirmación,Al19,19,,,,,,,,,0,78,78,78,,,,,,,,,1,9.53631442724,3,3.3161511,,,,,2018_jun._12_1919,59.9049391033,Experimento Piloto1,001,132,
0.25,Stim\\03_075.jpg,Tr75_27,Tristeza,27,Claudia informa los avances en el reporte.,Afirmación,Tr75,75,,,,,,,,,0,79,79,79,,,,,,,,,1,8.24392297738,3,2.03283903789,,,,,2018_jun._12_1919,59.9049391033,Experimento Piloto1,001,132,
2.5,Stim\\02_078.jpg,Al78_27,Alegría,27,Claudia informa los avances en el reporte.,Afirmación,Al78,78,,,,,,,,,0,80,80,80,,,,,,,,,1,1.38359498416,3,0.400193225936,,,,,2018_jun._12_1919,59.9049391033,Experimento Piloto1,001,132,
0.25,Stim\\02_019.jpg,Al19_26,Alegría,26,Víctor trae el café a Marco.,Afirmación,Al19,19,,,,,,,,,0,81,81,81,,,,,,,,,1,1.17226650007,3,0.55022758713,,,,,2018_jun._12_1919,59.9049391033,Experimento Piloto1,001,132,
0.25,Stim\\03_019.jpg,Tr19_29,Tristeza,29,Miriam mira la película.,Afirmación,Tr19,19,,,,,,,,,0,82,82,82,,,,,,,,,1,1.02490874202,3,0.65025257709,,,,,2018_jun._12_1919,59.9049391033,Experimento Piloto1,001,132,
2.5,Stim\\05_075.jpg,En75_27,Enojo,27,Claudia informa los avances en el reporte.,Afirmación,En75,75,,,,,,,,,0,83,83,83,,,,,,,,,1,1.21233968495,2,0.750328439466,,,,,2018_jun._12_1919,59.9049391033,Experimento Piloto1,001,132,
0.25,Stim\\05_019.jpg,En19_25,Enojo,25,Luis decide la comida siguiente.,Afirmación,En19,19,,,,,,,,,0,84,84,84,,,,,,,,,1,1.06733990807,2,0.750236512116,,,,,2018_jun._12_1919,59.9049391033,Experimento Piloto1,001,132,
2.5,Stim\\03_028.jpg,Tr28_20,Tristeza,20,Karen analiza la idea.,Afirmación,Tr28,28,,,,,,,,,0,85,85,85,,,,,,,,,1,2.99179124459,4,1.20045785176,,,,,2018_jun._12_1919,59.9049391033,Experimento Piloto1,001,132,
2.5,Stim\\05_028.jpg,En28_26,Enojo,26,Víctor trae el café a Marco.,Afirmación,En28,28,,,,,,,,,0,86,86,86,,,,,,,,,1,3.33826989156,2,1.06675799902,,,,,2018_jun._12_1919,59.9049391033,Experimento Piloto1,001,132,
0.25,Stim\\05_028.jpg,En28_21,Enojo,21,Mauro anuncia la actividad.,Afirmación,En28,28,,,,,,,,,0,87,87,87,,,,,,,,,1,0.973400865724,2,1.4666754429,,,,,2018_jun._12_1919,59.9049391033,Experimento Piloto1,001,132,
0.25,Stim\\03_075.jpg,Tr75_22,Tristeza,22,Enrique corre todas las mañanas.,Afirmación,Tr75,75,,,,,,,,,0,88,88,88,,,,,,,,,1,3.11993886385,3,9.14775536615,,,,,2018_jun._12_1919,59.9049391033,Experimento Piloto1,001,132,
0.25,Stim\\05_028.jpg,En28_27,Enojo,27,Claudia informa los avances en el reporte.,Afirmación,En28,28,,,,,,,,,0,89,89,89,,,,,,,,,1,8.76023874336,2,1.78320853229,,,,,2018_jun._12_1919,59.9049391033,Experimento Piloto1,001,132,
2.5,Stim\\03_075.jpg,Tr75_22,Tristeza,22,Enrique corre todas las mañanas.,Afirmación,Tr75,75,,,,,,,,,0,90,90,90,,,,,,,,,1,1.42019277969,4,2.09985630773,,,,,2018_jun._12_1919,59.9049391033,Experimento Piloto1,001,132,
0.25,Stim\\05_019.jpg,En19_28,Enojo,28,Antonio responde la pregunta.,Afirmación,En19,19,,,,,,,,,0,91,91,91,,,,,,,,,1,0.954977910661,2,0.700308358249,,,,,2018_jun._12_1919,59.9049391033,Experimento Piloto1,001,132,
2.5,Stim\\03_019.jpg,Tr19_17,Tristeza,17,Brenda sube el autobús en las mañanas.,Afirmación,Tr19,19,,,,,,,,,0,92,92,92,,,,,,,,,1,4.664307198,3,0.550540407872,,,,,2018_jun._12_1919,59.9049391033,Experimento Piloto1,001,132,
0.25,Stim\\05_028.jpg,En28_29,Enojo,29,Miriam mira la película.,Afirmación,En28,28,,,,,,,,,0,93,93,93,,,,,,,,,1,5.1231407024,2,2.08316479986,,,,,2018_jun._12_1919,59.9049391033,Experimento Piloto1,001,132,
0.25,Stim\\05_028.jpg,En28_18,Enojo,18,Sofía escucha la música.,Afirmación,En28,28,,,,,,,,,0,94,94,94,,,,,,,,,1,0.974735151055,2,0.500331563211,,,,,2018_jun._12_1919,59.9049391033,Experimento Piloto1,001,132,
0.25,Stim\\05_028.jpg,En28_25,Enojo,25,Luis decide la comida siguiente.,Afirmación,En28,28,,,,,,,,,0,95,95,95,,,,,,,,,1,1.01872417332,2,1.91668570664,,,,,2018_jun._12_1919,59.9049391033,Experimento Piloto1,001,132,
2.5,Stim\\03_075.jpg,Tr75_16,Tristeza,16,Valeria modifica algunas imágenes.,Afirmación,Tr75,75,,,,,,,,,0,96,96,96,,,,,,,,,1,1.75167298853,4,1.76667008791,,,,,2018_jun._12_1919,59.9049391033,Experimento Piloto1,001,132,
2.5,Stim\\05_019.jpg,En19_18,Enojo,18,Sofía escucha la música.,Afirmación,En19,19,,,,,,,,,0,97,97,97,,,,,,,,,1,0.941209335535,2,1.66658931679,,,,,2018_jun._12_1919,59.9049391033,Experimento Piloto1,001,132,
0.25,Stim\\05_075.jpg,En75_28,Enojo,28,Antonio responde la pregunta.,Afirmación,En75,75,,,,,,,,,0,98,98,98,,,,,,,,,1,4.40482395466,2,0.90025837833,,,,,2018_jun._12_1919,59.9049391033,Experimento Piloto1,001,132,
0.25,Stim\\03_019.jpg,Tr19_24,Tristeza,24,Guadalupe comenta los resultados con los compañeros.,Afirmación,Tr19,19,,,,,,,,,0,99,99,99,,,,,,,,,1,3.22349814807,3,0.4835075193,,,,,2018_jun._12_1919,59.9049391033,Experimento Piloto1,001,132,
0.25,Stim\\02_075.jpg,Al75_21,Alegría,21,Mauro anuncia la actividad.,Afirmación,Al75,75,,,,,,,,,0,100,100,100,,,,,,,,,1,0.923179972332,3,0.900165112232,,,,,2018_jun._12_1919,59.9049391033,Experimento Piloto1,001,132,
0.25,Stim\\03_019.jpg,Tr19_23,Tristeza,23,Óscar consigue un nuevo departamento.,Afirmación,Tr19,19,,,,,,,,,0,101,101,101,,,,,,,,,1,1.01687714757,3,0.450280690794,,,,,2018_jun._12_1919,59.9049391033,Experimento Piloto1,001,132,
2.5,Stim\\05_028.jpg,En28_30,Enojo,30,Marisol toma 2 litros de agua cada día.,Afirmación,En28,28,,,,,,,,,0,102,102,102,,,,,,,,,1,0.665251461467,2,0.650241867107,,,,,2018_jun._12_1919,59.9049391033,Experimento Piloto1,001,132,
0.25,Stim\\02_078.jpg,Al78_19,Alegría,19,Armando acompaña a Rodrígo a la tienda.,Afirmación,Al78,78,,,,,,,,,0,103,103,103,,,,,,,,,1,1.46558614842,3,1.06677317149,,,,,2018_jun._12_1919,59.9049391033,Experimento Piloto1,001,132,
2.5,Stim\\03_075.jpg,Tr75_25,Tristeza,25,Luis decide la comida siguiente.,Afirmación,Tr75,75,,,,,,,,,0,104,104,104,,,,,,,,,1,5.16724708822,4,2.13318621982,,,,,2018_jun._12_1919,59.9049391033,Experimento Piloto1,001,132,
2.5,Stim\\03_028.jpg,Tr28_29,Tristeza,29,Miriam mira la película.,Afirmación,Tr28,28,,,,,,,,,0,105,105,105,,,,,,,,,1,1.24198491677,4,0.700213307153,,,,,2018_jun._12_1919,59.9049391033,Experimento Piloto1,001,132,
0.25,Stim\\03_028.jpg,Tr28_24,Tristeza,24,Guadalupe comenta los resultados con los compañeros.,Afirmación,Tr28,28,,,,,,,,,0,106,106,106,,,,,,,,,1,0.740471685483,4,1.01675666027,,,,,2018_jun._12_1919,59.9049391033,Experimento Piloto1,001,132,
0.25,Stim\\02_075.jpg,Al75_30,Alegría,30,Marisol toma 2 litros de agua cada día.,Afirmación,Al75,75,,,,,,,,,0,107,107,107,,,,,,,,,1,5.01500870186,3,3.93268552814,,,,,2018_jun._12_1919,59.9049391033,Experimento Piloto1,001,132,
2.5,Stim\\05_019.jpg,En19_27,Enojo,27,Claudia informa los avances en el reporte.,Afirmación,En19,19,,,,,,,,,0,108,108,108,,,,,,,,,1,2.04588870543,2,0.700045517426,,,,,2018_jun._12_1919,59.9049391033,Experimento Piloto1,001,132,
2.5,Stim\\05_075.jpg,En75_18,Enojo,18,Sofía escucha la música.,Afirmación,En75,75,,,,,,,,,0,109,109,109,,,,,,,,,1,1.42473515106,2,1.06681065643,,,,,2018_jun._12_1919,59.9049391033,Experimento Piloto1,001,132,
2.5,Stim\\02_028.jpg,Al28_23,Alegría,23,Óscar consigue un nuevo departamento.,Afirmación,Al28,28,,,,,,,,,0,110,110,110,,,,,,,,,1,1.52999196751,3,0.900323530725,,,,,2018_jun._12_1919,59.9049391033,Experimento Piloto1,001,132,
2.5,Stim\\05_078.jpg,En78_29,Enojo,29,Miriam mira la película.,Afirmación,En78,78,,,,,,,,,0,111,111,111,,,,,,,,,1,1.14198000803,2,1.31686822259,,,,,2018_jun._12_1919,59.9049391033,Experimento Piloto1,001,132,
0.25,Stim\\03_078.jpg,Tr78_20,Tristeza,20,Karen analiza la idea.,Afirmación,Tr78,78,,,,,,,,,0,112,112,112,,,,,,,,,1,2.24293453523,4,1.06684144763,,,,,2018_jun._12_1919,59.9049391033,Experimento Piloto1,001,132,
0.25,Stim\\02_019.jpg,Al19_25,Alegría,25,Luis decide la comida siguiente.,Afirmación,Al19,19,,,,,,,,,0,113,113,113,,,,,,,,,1,3.68250479718,3,0.700648846446,,,,,2018_jun._12_1919,59.9049391033,Experimento Piloto1,001,132,
2.5,Stim\\03_078.jpg,Tr78_16,Tristeza,16,Valeria modifica algunas imágenes.,Afirmación,Tr78,78,,,,,,,,,0,114,114,114,,,,,,,,,1,6.35032085323,4,0.916795483957,,,,,2018_jun._12_1919,59.9049391033,Experimento Piloto1,001,132,
0.25,Stim\\02_028.jpg,Al28_21,Alegría,21,Mauro anuncia la actividad.,Afirmación,Al28,28,,,,,,,,,0,115,115,115,,,,,,,,,1,1.67186755322,3,1.73325449596,,,,,2018_jun._12_1919,59.9049391033,Experimento Piloto1,001,132,
2.5,Stim\\05_019.jpg,En19_30,Enojo,30,Marisol toma 2 litros de agua cada día.,Afirmación,En19,19,,,,,,,,,0,116,116,116,,,,,,,,,1,1.68238966487,2,1.78342897943,,,,,2018_jun._12_1919,59.9049391033,Experimento Piloto1,001,132,
0.25,Stim\\05_078.jpg,En78_26,Enojo,26,Víctor trae el café a Marco.,Afirmación,En78,78,,,,,,,,,0,117,117,117,,,,,,,,,1,1.83857467982,2,0.650143246017,,,,,2018_jun._12_1919,59.9049391033,Experimento Piloto1,001,132,
0.25,Stim\\02_078.jpg,Al78_21,Alegría,21,Mauro anuncia la actividad.,Afirmación,Al78,78,,,,,,,,,0,118,118,118,,,,,,,,,1,3.17268151189,3,0.450305234504,,,,,2018_jun._12_1919,59.9049391033,Experimento Piloto1,001,132,
0.25,Stim\\03_075.jpg,Tr75_30,Tristeza,30,Marisol toma 2 litros de agua cada día.,Afirmación,Tr75,75,,,,,,,,,0,119,119,119,,,,,,,,,1,1.11574947566,4,0.55022758713,,,,,2018_jun._12_1919,59.9049391033,Experimento Piloto1,001,132,
2.5,Stim\\02_078.jpg,Al78_17,Alegría,17,Brenda sube el autobús en las mañanas.,Afirmación,Al78,78,,,,,,,,,,,,,0,0,0,0,,,,,,,,,1,4.1654437949,3,0.550419920567,2018_jun._12_1919,59.9049391033,Experimento Piloto1,001,132,
2.5,Stim\\05_019.jpg,En19_23,Enojo,23,Óscar consigue un nuevo departamento.,Afirmación,En19,19,,,,,,,,,,,,,0,1,1,1,,,,,,,,,1,8.76473024231,3,3.68265652193,2018_jun._12_1919,59.9049391033,Experimento Piloto1,001,132,
0.25,Stim\\02_075.jpg,Al75_17,Alegría,17,Brenda sube el autobús en las mañanas.,Afirmación,Al75,75,,,,,,,,,,,,,0,2,2,2,,,,,,,,,1,4.59666205542,3,0.500361015663,2018_jun._12_1919,59.9049391033,Experimento Piloto1,001,132,
2.5,Stim\\02_075.jpg,Al75_24,Alegría,24,Guadalupe comenta los resultados con los compañeros.,Afirmación,Al75,75,,,,,,,,,,,,,0,3,3,3,,,,,,,,,1,1.97003703869,3,0.600240974608,2018_jun._12_1919,59.9049391033,Experimento Piloto1,001,132,
0.25,Stim\\05_075.jpg,En75_19,Enojo,19,Armando acompaña a Rodrígo a la tienda.,Afirmación,En75,75,,,,,,,,,,,,,0,4,4,4,,,,,,,,,1,4.19711812218,2,0.60023383462,2018_jun._12_1919,59.9049391033,Experimento Piloto1,001,132,
2.5,Stim\\02_019.jpg,Al19_29,Alegría,29,Miriam mira la película.,Afirmación,Al19,19,,,,,,,,,,,,,0,5,5,5,,,,,,,,,1,0.674232674372,3,0.583663260297,2018_jun._12_1919,59.9049391033,Experimento Piloto1,001,132,
2.5,Stim\\02_078.jpg,Al78_24,Alegría,24,Guadalupe comenta los resultados con los compañeros.,Afirmación,Al78,78,,,,,,,,,,,,,0,6,6,6,,,,,,,,,1,2.30770984872,3,2.94948636708,2018_jun._12_1919,59.9049391033,Experimento Piloto1,001,132,
0.25,Stim\\05_028.jpg,En28_20,Enojo,20,Karen analiza la idea.,Afirmación,En28,28,,,,,,,,,,,,,0,7,7,7,,,,,,,,,1,0.509288678656,2,0.550281583292,2018_jun._12_1919,59.9049391033,Experimento Piloto1,001,132,
0.25,Stim\\03_078.jpg,Tr78_27,Tristeza,27,Claudia informa los avances en el reporte.,Afirmación,Tr78,78,,,,,,,,,,,,,0,8,8,8,,,,,,,,,1,1.57888303807,4,0.650203935918,2018_jun._12_1919,59.9049391033,Experimento Piloto1,001,132,
0.25,Stim\\02_019.jpg,Al19_30,Alegría,30,Marisol toma 2 litros de agua cada día.,Afirmación,Al19,19,,,,,,,,,,,,,0,9,9,9,,,,,,,,,1,2.54674684279,3,0.499985720023,2018_jun._12_1919,59.9049391033,Experimento Piloto1,001,132,
2.5,Stim\\02_019.jpg,Al19_19,Alegría,19,Armando acompaña a Rodrígo a la tienda.,Afirmación,Al19,19,,,,,,,,,,,,,0,10,10,10,,,,,,,,,1,6.39756258646,3,6.08192333437,2018_jun._12_1919,59.9049391033,Experimento Piloto1,001,132,
0.25,Stim\\02_028.jpg,Al28_30,Alegría,30,Marisol toma 2 litros de agua cada día.,Afirmación,Al28,28,,,,,,,,,,,,,0,11,11,11,,,,,,,,,1,3.83125083672,3,2.29940871971,2018_jun._12_1919,59.9049391033,Experimento Piloto1,001,132,
2.5,Stim\\02_019.jpg,Al19_16,Alegría,16,Valeria modifica algunas imágenes.,Afirmación,Al19,19,,,,,,,,,,,,,0,12,12,12,,,,,,,,,1,9.31718327458,3,0.450312820742,2018_jun._12_1919,59.9049391033,Experimento Piloto1,001,132,
2.5,Stim\\03_075.jpg,Tr75_30,Tristeza,30,Marisol toma 2 litros de agua cada día.,Afirmación,Tr75,75,,,,,,,,,,,,,0,13,13,13,,,,,,,,,1,0.8154464724,4,0.550365924405,2018_jun._12_1919,59.9049391033,Experimento Piloto1,001,132,
2.5,Stim\\02_078.jpg,Al78_19,Alegría,19,Armando acompaña a Rodrígo a la tienda.,Afirmación,Al78,78,,,,,,,,,,,,,0,14,14,14,,,,,,,,,1,0.815695033245,3,0.599700566737,2018_jun._12_1919,59.9049391033,Experimento Piloto1,001,132,
2.5,Stim\\05_075.jpg,En75_25,Enojo,25,Luis decide la comida siguiente.,Afirmación,En75,75,,,,,,,,,,,,,0,15,15,15,,,,,,,,,1,5.78368914276,2,1.66666785666,2018_jun._12_1919,59.9049391033,Experimento Piloto1,001,132,
0.25,Stim\\03_075.jpg,Tr75_24,Tristeza,24,Guadalupe comenta los resultados con los compañeros.,Afirmación,Tr75,75,,,,,,,,,,,,,0,16,16,16,,,,,,,,,1,1.05741309295,4,1.16671382034,2018_jun._12_1919,59.9049391033,Experimento Piloto1,001,132,
2.5,Stim\\05_078.jpg,En78_25,Enojo,25,Luis decide la comida siguiente.,Afirmación,En78,78,,,,,,,,,,,,,0,17,17,17,,,,,,,,,1,1.48612254005,2,0.700260609577,2018_jun._12_1919,59.9049391033,Experimento Piloto1,001,132,
2.5,Stim\\05_028.jpg,En28_17,Enojo,17,Brenda sube el autobús en las mañanas.,Afirmación,En28,28,,,,,,,,,,,,,0,18,18,18,,,,,,,,,1,1.58222723013,2,0.650261948324,2018_jun._12_1919,59.9049391033,Experimento Piloto1,001,132,
0.25,Stim\\02_078.jpg,Al78_26,Alegría,26,Víctor trae el café a Marco.,Afirmación,Al78,78,,,,,,,,,,,,,0,19,19,19,,,,,,,,,1,1.63714489714,3,0.800402070597,2018_jun._12_1919,59.9049391033,Experimento Piloto1,001,132,
2.5,Stim\\03_075.jpg,Tr75_20,Tristeza,20,Karen analiza la idea.,Afirmación,Tr75,75,,,,,,,,,,,,,0,20,20,20,,,,,,,,,1,1.29328260967,4,0.699934847606,2018_jun._12_1919,59.9049391033,Experimento Piloto1,001,132,
2.5,Stim\\05_028.jpg,En28_21,Enojo,21,Mauro anuncia la actividad.,Afirmación,En28,28,,,,,,,,,,,,,0,21,21,21,,,,,,,,,1,1.39005131867,2,0.650291400776,2018_jun._12_1919,59.9049391033,Experimento Piloto1,001,132,
0.25,Stim\\05_019.jpg,En19_21,Enojo,21,Mauro anuncia la actividad.,Afirmación,En19,19,,,,,,,,,,,,,0,22,22,22,,,,,,,,,1,0.866736579053,2,0.60028336829,2018_jun._12_1919,59.9049391033,Experimento Piloto1,001,132,
0.25,Stim\\03_028.jpg,Tr28_16,Tristeza,16,Valeria modifica algunas imágenes.,Afirmación,Tr28,28,,,,,,,,,,,,,0,23,23,23,,,,,,,,,1,1.48543308492,4,1.05026417957,2018_jun._12_1919,59.9049391033,Experimento Piloto1,001,132,
0.25,Stim\\05_075.jpg,En75_27,Enojo,27,Claudia informa los avances en el reporte.,Afirmación,En75,75,,,,,,,,,,,,,0,24,24,24,,,,,,,,,1,2.29624748985,2,0.700149047258,2018_jun._12_1919,59.9049391033,Experimento Piloto1,001,132,
2.5,Stim\\02_078.jpg,Al78_18,Alegría,18,Sofía escucha la música.,Afirmación,Al78,78,,,,,,,,,,,,,0,25,25,25,,,,,,,,,1,1.14190950065,3,1.31649114195,2018_jun._12_1919,59.9049391033,Experimento Piloto1,001,132,
2.5,Stim\\03_028.jpg,Tr28_25,Tristeza,25,Luis decide la comida siguiente.,Afirmación,Tr28,28,,,,,,,,,,,,,0,26,26,26,,,,,,,,,1,2.65191083939,4,1.1667414878,2018_jun._12_1919,59.9049391033,Experimento Piloto1,001,132,
0.25,Stim\\03_075.jpg,Tr75_18,Tristeza,18,Sofía escucha la música.,Afirmación,Tr75,75,,,,,,,,,,,,,0,27,27,27,,,,,,,,,1,4.30759382391,4,0.483666384042,2018_jun._12_1919,59.9049391033,Experimento Piloto1,001,132,
2.5,Stim\\02_028.jpg,Al28_27,Alegría,27,Claudia informa los avances en el reporte.,Afirmación,Al28,28,,,,,,,,,,,,,0,28,28,28,,,,,,,,,1,3.22927573743,3,1.01645008702,2018_jun._12_1919,59.9049391033,Experimento Piloto1,001,132,
2.5,Stim\\02_028.jpg,Al28_20,Alegría,20,Karen analiza la idea.,Afirmación,Al28,28,,,,,,,,,,,,,0,29,29,29,,,,,,,,,1,1.89149359632,3,1.16666384042,2018_jun._12_1919,59.9049391033,Experimento Piloto1,001,132,
0.25,Stim\\05_078.jpg,En78_29,Enojo,29,Miriam mira la película.,Afirmación,En78,78,,,,,,,,,,,,,0,30,30,30,,,,,,,,,1,0.858451515016,2,0.716678566647,2018_jun._12_1919,59.9049391033,Experimento Piloto1,001,132,
0.25,Stim\\05_019.jpg,En19_22,Enojo,22,Enrique corre todas las mañanas.,Afirmación,En19,19,,,,,,,,,,,,,0,31,31,31,,,,,,,,,1,5.66905529029,2,0.700507831675,2018_jun._12_1919,59.9049391033,Experimento Piloto1,001,132,
2.5,Stim\\03_019.jpg,Tr19_20,Tristeza,20,Karen analiza la idea.,Afirmación,Tr19,19,,,,,,,,,,,,,0,32,32,32,,,,,,,,,1,3.95857066357,3,0.500264179571,2018_jun._12_1919,59.9049391033,Experimento Piloto1,001,132,
2.5,Stim\\05_078.jpg,En78_22,Enojo,22,Enrique corre todas las mañanas.,Afirmación,En78,78,,,,,,,,,,,,,0,33,33,33,,,,,,,,,1,2.66967780802,2,1.61658619305,2018_jun._12_1919,59.9049391033,Experimento Piloto1,001,132,
2.5,Stim\\02_078.jpg,Al78_16,Alegría,16,Valeria modifica algunas imágenes.,Afirmación,Al78,78,,,,,,,,,,,,,0,34,34,34,,,,,,,,,1,1.68596947655,3,1.11671649784,2018_jun._12_1919,59.9049391033,Experimento Piloto1,001,132,
2.5,Stim\\05_028.jpg,En28_24,Enojo,24,Guadalupe comenta los resultados con los compañeros.,Afirmación,En28,28,,,,,,,,,,,,,0,35,35,35,,,,,,,,,1,2.29044803427,2,0.650263733321,2018_jun._12_1919,59.9049391033,Experimento Piloto1,001,132,
2.5,Stim\\02_075.jpg,Al75_16,Alegría,16,Valeria modifica algunas imágenes.,Afirmación,Al75,75,,,,,,,,,,,,,0,36,36,36,,,,,,,,,1,6.66663349547,3,0.80015975724,2018_jun._12_1919,59.9049391033,Experimento Piloto1,001,132,
0.25,Stim\\02_019.jpg,Al19_18,Alegría,18,Sofía escucha la música.,Afirmación,Al19,19,,,,,,,,,,,,,0,37,37,37,,,,,,,,,1,2.09121513678,3,0.650271319559,2018_jun._12_1919,59.9049391033,Experimento Piloto1,001,132,
2.5,Stim\\02_028.jpg,Al28_26,Alegría,26,Víctor trae el café a Marco.,Afirmación,Al28,28,,,,,,,,,,,,,0,38,38,38,,,,,,,,,1,1.1886786559,3,0.650539961623,2018_jun._12_1919,59.9049391033,Experimento Piloto1,001,132,
2.5,Stim\\02_078.jpg,Al78_29,Alegría,29,Miriam mira la película.,Afirmación,Al78,78,,,,,,,,,,,,,0,39,39,39,,,,,,,,,1,1.27380204382,3,0.716512115668,2018_jun._12_1919,59.9049391033,Experimento Piloto1,001,132,
0.25,Stim\\05_078.jpg,En78_24,Enojo,24,Guadalupe comenta los resultados con los compañeros.,Afirmación,En78,78,,,,,,,,,,,,,0,40,40,40,,,,,,,,,1,1.97220045517,2,0.700335579455,2018_jun._12_1919,59.9049391033,Experimento Piloto1,001,132,
0.25,Stim\\03_075.jpg,Tr75_19,Tristeza,19,Armando acompaña a Rodrígo a la tienda.,Afirmación,Tr75,75,,,,,,,,,,,,,0,41,41,41,,,,,,,,,1,1.52579320809,4,0.750174483466,2018_jun._12_1919,59.9049391033,Experimento Piloto1,001,132,
0.25,Stim\\02_028.jpg,Al28_17,Alegría,17,Brenda sube el autobús en las mañanas.,Afirmación,Al28,28,,,,,,,,,,,,,0,42,42,42,,,,,,,,,1,1.61576286314,3,0.600389129368,2018_jun._12_1919,59.9049391033,Experimento Piloto1,001,132,
2.5,Stim\\05_075.jpg,En75_21,Enojo,21,Mauro anuncia la actividad.,Afirmación,En75,75,,,,,,,,,,,,,0,43,43,43,,,,,,,,,1,0.823252710964,2,0.600281137043,2018_jun._12_1919,59.9049391033,Experimento Piloto1,001,132,
0.25,Stim\\03_019.jpg,Tr19_27,Tristeza,27,Claudia informa los avances en el reporte.,Afirmación,Tr19,19,,,,,,,,,,,,,0,44,44,44,,,,,,,,,1,5.31027488955,3,4.91562675711,2018_jun._12_1919,59.9049391033,Experimento Piloto1,001,132,
2.5,Stim\\02_075.jpg,Al75_19,Alegría,19,Armando acompaña a Rodrígo a la tienda.,Afirmación,Al75,75,,,,,,,,,,,,,0,45,45,45,,,,,,,,,1,1.0658739792,3,0.450312820742,2018_jun._12_1919,59.9049391033,Experimento Piloto1,001,132,
2.5,Stim\\03_019.jpg,Tr19_22,Tristeza,22,Enrique corre todas las mañanas.,Afirmación,Tr19,19,,,,,,,,,,,,,0,46,46,46,,,,,,,,,1,1.63676290776,3,0.500310589495,2018_jun._12_1919,59.9049391033,Experimento Piloto1,001,132,
2.5,Stim\\02_075.jpg,Al75_23,Alegría,23,Óscar consigue un nuevo departamento.,Afirmación,Al75,75,,,,,,,,,,,,,0,47,47,47,,,,,,,,,1,2.65000847874,3,0.766912401267,2018_jun._12_1919,59.9049391033,Experimento Piloto1,001,132,
2.5,Stim\\02_019.jpg,Al19_27,Alegría,27,Claudia informa los avances en el reporte.,Afirmación,Al19,19,,,,,,,,,,,,,0,48,48,48,,,,,,,,,1,1.72875987327,3,1.31671694409,2018_jun._12_1919,59.9049391033,Experimento Piloto1,001,132,
2.5,Stim\\03_028.jpg,Tr28_16,Tristeza,16,Valeria modifica algunas imágenes.,Afirmación,Tr28,28,,,,,,,,,,,,,0,49,49,49,,,,,,,,,1,3.88453523138,4,0.550212860904,2018_jun._12_1919,59.9049391033,Experimento Piloto1,001,132,
2.5,Stim\\02_078.jpg,Al78_20,Alegría,20,Karen analiza la idea.,Afirmación,Al78,78,,,,,,,,,,,,,0,50,50,50,,,,,,,,,1,2.15909009773,3,3.26616894998,2018_jun._12_1919,59.9049391033,Experimento Piloto1,001,132,
2.5,Stim\\05_075.jpg,En75_24,Enojo,24,Guadalupe comenta los resultados con los compañeros.,Afirmación,En75,75,,,,,,,,,,,,,0,51,51,51,,,,,,,,,1,3.42269623812,2,2.69965326431,2018_jun._12_1919,59.9049391033,Experimento Piloto1,001,132,
0.25,Stim\\03_028.jpg,Tr28_26,Tristeza,26,Víctor trae el café a Marco.,Afirmación,Tr28,28,,,,,,,,,,,,,0,52,52,52,,,,,,,,,1,1.63438752287,4,3.56628185104,2018_jun._12_1919,59.9049391033,Experimento Piloto1,001,132,
2.5,Stim\\03_028.jpg,Tr28_21,Tristeza,21,Mauro anuncia la actividad.,Afirmación,Tr28,28,,,,,,,,,,,,,0,53,53,53,,,,,,,,,1,2.62257173457,4,0.433533848008,2018_jun._12_1919,59.9049391033,Experimento Piloto1,001,132,
2.5,Stim\\02_075.jpg,Al75_29,Alegría,29,Miriam mira la película.,Afirmación,Al75,75,,,,,,,,,,,,,0,54,54,54,,,,,,,,,1,3.29115132313,3,0.500298540765,2018_jun._12_1919,59.9049391033,Experimento Piloto1,001,132,
0.25,Stim\\03_078.jpg,Tr78_26,Tristeza,26,Víctor trae el café a Marco.,Afirmación,Tr78,78,,,,,,,,,,,,,0,55,55,55,,,,,,,,,1,1.22321567227,4,0.750413673078,2018_jun._12_1919,59.9049391033,Experimento Piloto1,001,132,
0.25,Stim\\05_019.jpg,En19_19,Enojo,19,Armando acompaña a Rodrígo a la tienda.,Afirmación,En19,19,,,,,,,,,,,,,0,56,56,56,,,,,,,,,1,1.58217769646,2,0.550267303316,2018_jun._12_1919,59.9049391033,Experimento Piloto1,001,132,
0.25,Stim\\03_078.jpg,Tr78_19,Tristeza,19,Armando acompaña a Rodrígo a la tienda.,Afirmación,Tr78,78,,,,,,,,,,,,,0,57,57,57,,,,,,,,,1,0.966961934937,4,0.716574144317,2018_jun._12_1919,59.9049391033,Experimento Piloto1,001,132,
2.5,Stim\\03_078.jpg,Tr78_18,Tristeza,18,Sofía escucha la música.,Afirmación,Tr78,78,,,,,,,,,,,,,0,58,58,58,,,,,,,,,1,1.02503146057,4,0.650654201437,2018_jun._12_1919,59.9049391033,Experimento Piloto1,001,132,
2.5,Stim\\05_075.jpg,En75_26,Enojo,26,Víctor trae el café a Marco.,Afirmación,En75,75,,,,,,,,,,,,,0,59,59,59,,,,,,,,,1,1.48979695658,2,1.76661787675,2018_jun._12_1919,59.9049391033,Experimento Piloto1,001,132,
2.5,Stim\\02_075.jpg,Al75_30,Alegría,30,Marisol toma 2 litros de agua cada día.,Afirmación,Al75,75,,,,,,,,,,,,,0,60,60,60,,,,,,,,,1,3.99774019367,3,0.550366370655,2018_jun._12_1919,59.9049391033,Experimento Piloto1,001,132,
2.5,Stim\\03_019.jpg,Tr19_18,Tristeza,18,Sofía escucha la música.,Afirmación,Tr19,19,,,,,,,,,,,,,0,61,61,61,,,,,,,,,1,4.15734927931,3,0.499954928823,2018_jun._12_1919,59.9049391033,Experimento Piloto1,001,132,
0.25,Stim\\03_078.jpg,Tr78_23,Tristeza,23,Óscar consigue un nuevo departamento.,Afirmación,Tr78,78,,,,,,,,,,,,,0,62,62,62,,,,,,,,,1,3.98300325762,4,0.650245883351,2018_jun._12_1919,59.9049391033,Experimento Piloto1,001,132,
2.5,Stim\\03_019.jpg,Tr19_25,Tristeza,25,Luis decide la comida siguiente.,Afirmación,Tr19,19,,,,,,,,,,,,,0,63,63,63,,,,,,,,,1,1.63471105359,3,2.08322816725,2018_jun._12_1919,59.9049391033,Experimento Piloto1,001,132,
0.25,Stim\\02_028.jpg,Al28_29,Alegría,29,Miriam mira la película.,Afirmación,Al28,28,,,,,,,,,,,,,0,64,64,64,,,,,,,,,1,0.924794055959,3,1.16674416529,2018_jun._12_1919,59.9049391033,Experimento Piloto1,001,132,
2.5,Stim\\02_019.jpg,Al19_21,Alegría,21,Mauro anuncia la actividad.,Afirmación,Al19,19,,,,,,,,,,,,,0,65,65,65,,,,,,,,,1,1.73983131777,3,0.450334240707,2018_jun._12_1919,59.9049391033,Experimento Piloto1,001,132,
2.5,Stim\\02_078.jpg,Al78_25,Alegría,25,Luis decide la comida siguiente.,Afirmación,Al78,78,,,,,,,,,,,,,0,66,66,66,,,,,,,,,1,0.752216966397,3,0.766857066357,2018_jun._12_1919,59.9049391033,Experimento Piloto1,001,132,
2.5,Stim\\05_075.jpg,En75_29,Enojo,29,Miriam mira la película.,Afirmación,En75,75,,,,,,,,,,,,,0,67,67,67,,,,,,,,,1,2.65837922263,2,0.816479539471,2018_jun._12_1919,59.9049391033,Experimento Piloto1,001,132,
0.25,Stim\\03_028.jpg,Tr28_20,Tristeza,20,Karen analiza la idea.,Afirmación,Tr28,28,,,,,,,,,,,,,0,68,68,68,,,,,,,,,1,3.84265072069,4,0.483736445178,2018_jun._12_1919,59.9049391033,Experimento Piloto1,001,132,
2.5,Stim\\02_075.jpg,Al75_26,Alegría,26,Víctor trae el café a Marco.,Afirmación,Al75,75,,,,,,,,,,,,,0,69,69,69,,,,,,,,,1,3.33814181802,3,1.26669686287,2018_jun._12_1919,59.9049391033,Experimento Piloto1,001,132,
0.25,Stim\\05_019.jpg,En19_20,Enojo,20,Karen analiza la idea.,Afirmación,En19,19,,,,,,,,,,,,,0,70,70,70,,,,,,,,,1,3.54264224196,2,1.05029541702,2018_jun._12_1919,59.9049391033,Experimento Piloto1,001,132,
0.25,Stim\\05_028.jpg,En28_22,Enojo,22,Enrique corre todas las mañanas.,Afirmación,En28,28,,,,,,,,,,,,,0,71,71,71,,,,,,,,,1,0.820639028962,2,0.750244098353,2018_jun._12_1919,59.9049391033,Experimento Piloto1,001,132,
2.5,Stim\\05_028.jpg,En28_22,Enojo,22,Enrique corre todas las mañanas.,Afirmación,En28,28,,,,,,,,,,,,,0,72,72,72,,,,,,,,,1,2.21635503592,2,1.31671783658,2018_jun._12_1919,59.9049391033,Experimento Piloto1,001,132,
0.25,Stim\\05_019.jpg,En19_17,Enojo,17,Brenda sube el autobús en las mañanas.,Afirmación,En19,19,,,,,,,,,,,,,0,73,73,73,,,,,,,,,1,1.11604757017,2,0.850293632023,2018_jun._12_1919,59.9049391033,Experimento Piloto1,001,132,
2.5,Stim\\05_078.jpg,En78_26,Enojo,26,Víctor trae el café a Marco.,Afirmación,En78,78,,,,,,,,,,,,,0,74,74,74,,,,,,,,,1,1.38776473738,2,0.950235173368,2018_jun._12_1919,59.9049391033,Experimento Piloto1,001,132,
2.5,Stim\\03_078.jpg,Tr78_29,Tristeza,29,Miriam mira la película.,Afirmación,Tr78,78,,,,,,,,,,,,,0,75,75,75,,,,,,,,,1,2.20848498371,4,1.31685885135,2018_jun._12_1919,59.9049391033,Experimento Piloto1,001,132,
0.25,Stim\\02_075.jpg,Al75_22,Alegría,22,Enrique corre todas las mañanas.,Afirmación,Al75,75,,,,,,,,,,,,,0,76,76,76,,,,,,,,,1,0.970453389263,2,1.2167995002,2018_jun._12_1919,59.9049391033,Experimento Piloto1,001,132,
2.5,Stim\\02_019.jpg,Al19_23,Alegría,23,Óscar consigue un nuevo departamento.,Afirmación,Al19,19,,,,,,,,,,,,,0,77,77,77,,,,,,,,,1,1.89914186264,3,0.433530278014,2018_jun._12_1919,59.9049391033,Experimento Piloto1,001,132,
0.25,Stim\\05_075.jpg,En75_21,Enojo,21,Mauro anuncia la actividad.,Afirmación,En75,75,,,,,,,,,,,,,0,78,78,78,,,,,,,,,1,1.0227368468,2,1.21666339417,2018_jun._12_1919,59.9049391033,Experimento Piloto1,001,132,
0.25,Stim\\02_078.jpg,Al78_25,Alegría,25,Luis decide la comida siguiente.,Afirmación,Al78,78,,,,,,,,,,,,,0,79,79,79,,,,,,,,,1,3.06919005757,3,2.08311883618,2018_jun._12_1919,59.9049391033,Experimento Piloto1,001,132,
0.25,Stim\\03_078.jpg,Tr78_22,Tristeza,22,Enrique corre todas las mañanas.,Afirmación,Tr78,78,,,,,,,,,,,,,0,80,80,80,,,,,,,,,1,3.12027355081,4,0.700261948324,2018_jun._12_1919,59.9049391033,Experimento Piloto1,001,132,
0.25,Stim\\05_028.jpg,En28_26,Enojo,26,Víctor trae el café a Marco.,Afirmación,En28,28,,,,,,,,,,,,,0,81,81,81,,,,,,,,,1,1.17227230131,2,0.549832656522,2018_jun._12_1919,59.9049391033,Experimento Piloto1,001,132,
2.5,Stim\\05_019.jpg,En19_29,Enojo,29,Miriam mira la película.,Afirmación,En19,19,,,,,,,,,,,,,0,82,82,82,,,,,,,,,1,1.7908947298,2,3.98268597439,2018_jun._12_1919,59.9049391033,Experimento Piloto1,001,132,
0.25,Stim\\02_019.jpg,Al19_21,Alegría,21,Mauro anuncia la actividad.,Afirmación,Al19,19,,,,,,,,,,,,,0,83,83,83,,,,,,,,,1,2.40664509795,3,0.450262840823,2018_jun._12_1919,59.9049391033,Experimento Piloto1,001,132,
2.5,Stim\\05_078.jpg,En78_30,Enojo,30,Marisol toma 2 litros de agua cada día.,Afirmación,En78,78,,,,,,,,,,,,,0,84,84,84,,,,,,,,,1,7.2139060199,2,1.11688250257,2018_jun._12_1919,59.9049391033,Experimento Piloto1,001,132,
0.25,Stim\\02_078.jpg,Al78_30,Alegría,30,Marisol toma 2 litros de agua cada día.,Afirmación,Al78,78,,,,,,,,,,,,,0,85,85,85,,,,,,,,,1,3.84920478379,3,0.50017225222,2018_jun._12_1919,59.9049391033,Experimento Piloto1,001,132,
0.25,Stim\\03_075.jpg,Tr75_16,Tristeza,16,Valeria modifica algunas imágenes.,Afirmación,Tr75,75,,,,,,,,,,,,,0,86,86,86,,,,,,,,,1,5.41691374001,4,0.866863760096,2018_jun._12_1919,59.9049391033,Experimento Piloto1,001,132,
0.25,Stim\\02_019.jpg,Al19_24,Alegría,24,Guadalupe comenta los resultados con los compañeros.,Afirmación,Al19,19,,,,,,,,,,,,,0,87,87,87,,,,,,,,,1,3.40681735017,3,0.700335133205,2018_jun._12_1919,59.9049391033,Experimento Piloto1,001,132,
2.5,Stim\\02_028.jpg,Al28_29,Alegría,29,Miriam mira la película.,Afirmación,Al28,28,,,,,,,,,,,,,0,88,88,88,,,,,,,,,1,3.34150252131,3,4.44916283636,2018_jun._12_1919,59.9049391033,Experimento Piloto1,001,132,
0.25,Stim\\03_019.jpg,Tr19_25,Tristeza,25,Luis decide la comida siguiente.,Afirmación,Tr19,19,,,,,,,,,,,,,0,89,89,89,,,,,,,,,1,3.26748360034,3,1.36671917533,2018_jun._12_1919,59.9049391033,Experimento Piloto1,001,132,
0.25,Stim\\03_075.jpg,Tr75_25,Tristeza,25,Luis decide la comida siguiente.,Afirmación,Tr75,75,,,,,,,,,,,,,0,90,90,90,,,,,,,,,1,1.43331741711,4,1.01682092017,2018_jun._12_1919,59.9049391033,Experimento Piloto1,001,132,
2.5,Stim\\03_078.jpg,Tr78_25,Tristeza,25,Luis decide la comida siguiente.,Afirmación,Tr78,78,,,,,,,,,,,,,0,91,91,91,,,,,,,,,1,1.18364808782,4,0.450354768173,2018_jun._12_1919,59.9049391033,Experimento Piloto1,001,132,
2.5,Stim\\02_019.jpg,Al19_18,Alegría,18,Sofía escucha la música.,Afirmación,Al19,19,,,,,,,,,,,,,0,92,92,92,,,,,,,,,1,1.19142308894,3,1.4666781204,2018_jun._12_1919,59.9049391033,Experimento Piloto1,001,132,
2.5,Stim\\03_028.jpg,Tr28_19,Tristeza,19,Armando acompaña a Rodrígo a la tienda.,Afirmación,Tr28,28,,,,,,,,,,,,,0,93,93,93,,,,,,,,,1,1.16519077156,4,0.500350305681,2018_jun._12_1919,59.9049391033,Experimento Piloto1,001,132,
0.25,Stim\\03_078.jpg,Tr78_18,Tristeza,18,Sofía escucha la música.,Afirmación,Tr78,78,,,,,,,,,,,,,0,94,94,94,,,,,,,,,1,0.658392163863,4,0.400358784417,2018_jun._12_1919,59.9049391033,Experimento Piloto1,001,132,
0.25,Stim\\05_019.jpg,En19_29,Enojo,29,Miriam mira la película.,Afirmación,En19,19,,,,,,,,,,,,,0,95,95,95,,,,,,,,,1,1.22510553795,2,0.900316836985,2018_jun._12_1919,59.9049391033,Experimento Piloto1,001,132,
2.5,Stim\\03_078.jpg,Tr78_24,Tristeza,24,Guadalupe comenta los resultados con los compañeros.,Afirmación,Tr78,78,,,,,,,,,,,,,0,96,96,96,,,,,,,,,1,5.93706457227,4,1.11671694409,2018_jun._12_1919,59.9049391033,Experimento Piloto1,001,132,
2.5,Stim\\05_019.jpg,En19_22,Enojo,22,Enrique corre todas las mañanas.,Afirmación,En19,19,,,,,,,,,,,,,0,97,97,97,,,,,,,,,1,3.58601365523,2,0.80014146102,2018_jun._12_1919,59.9049391033,Experimento Piloto1,001,132,
0.25,Stim\\02_028.jpg,Al28_20,Alegría,20,Karen analiza la idea.,Afirmación,Al28,28,,,,,,,,,,,,,0,98,98,98,,,,,,,,,1,2.40982328529,3,0.450268195814,2018_jun._12_1919,59.9049391033,Experimento Piloto1,001,132,
2.5,Stim\\03_078.jpg,Tr78_27,Tristeza,27,Claudia informa los avances en el reporte.,Afirmación,Tr78,78,,,,,,,,,,,,,0,99,99,99,,,,,,,,,1,1.6283689589,4,3.46608014637,2018_jun._12_1919,59.9049391033,Experimento Piloto1,001,132,
0.25,Stim\\03_075.jpg,Tr75_17,Tristeza,17,Brenda sube el autobús en las mañanas.,Afirmación,Tr75,75,,,,,,,,,,,,,0,100,100,100,,,,,,,,,1,2.69951849703,3,1.83341380695,2018_jun._12_1919,59.9049391033,Experimento Piloto1,001,132,
2.5,Stim\\05_028.jpg,En28_25,Enojo,25,Luis decide la comida siguiente.,Afirmación,En28,28,,,,,,,,,,,,,0,101,101,101,,,,,,,,,1,4.41656789683,2,0.483615065375,2018_jun._12_1919,59.9049391033,Experimento Piloto1,001,132,
2.5,Stim\\02_028.jpg,Tr28_30,Tristeza,30,Marisol toma 2 litros de agua cada día.,Afirmación,Tr28,28,,,,,,,,,,,,,0,102,102,102,,,,,,,,,1,0.91662769423,3,0.600238297113,2018_jun._12_1919,59.9049391033,Experimento Piloto1,001,132,
0.25,Stim\\02_078.jpg,Al78_18,Alegría,18,Sofía escucha la música.,Afirmación,Al78,78,,,,,,,,,,,,,0,103,103,103,,,,,,,,,1,1.69193047436,3,0.900275782052,2018_jun._12_1919,59.9049391033,Experimento Piloto1,001,132,
0.25,Stim\\02_078.jpg,Al78_24,Alegría,24,Guadalupe comenta los resultados con los compañeros.,Afirmación,Al78,78,,,,,,,,,,,,,0,104,104,104,,,,,,,,,1,1.98883038065,3,0.650318175733,2018_jun._12_1919,59.9049391033,Experimento Piloto1,001,132,
0.25,Stim\\05_075.jpg,En75_26,Enojo,26,Víctor trae el café a Marco.,Afirmación,En75,75,,,,,,,,,,,,,0,105,105,105,,,,,,,,,1,1.27268999063,2,0.900189209693,2018_jun._12_1919,59.9049391033,Experimento Piloto1,001,132,
0.25,Stim\\05_019.jpg,En19_16,Enojo,16,Valeria modifica algunas imágenes.,Afirmación,En19,19,,,,,,,,,,,,,0,106,106,106,,,,,,,,,1,1.01863224597,2,0.600315498237,2018_jun._12_1919,59.9049391033,Experimento Piloto1,001,132,
2.5,Stim\\05_019.jpg,En19_21,Enojo,21,Mauro anuncia la actividad.,Afirmación,En19,19,,,,,,,,,,,,,0,107,107,107,,,,,,,,,1,1.29050693918,2,0.950233388371,2018_jun._12_1919,59.9049391033,Experimento Piloto1,001,132,
0.25,Stim\\03_028.jpg,Tr28_22,Tristeza,22,Enrique corre todas las mañanas.,Afirmación,Tr28,28,,,,,,,,,,,,,0,108,108,108,,,,,,,,,1,1.3363675309,4,0.800163773484,2018_jun._12_1919,59.9049391033,Experimento Piloto1,001,132,
2.5,Stim\\05_075.jpg,En75_28,Enojo,28,Antonio responde la pregunta.,Afirmación,En75,75,,,,,,,,,,,,,0,109,109,109,,,,,,,,,1,1.3223365612,2,0.716737917801,2018_jun._12_1919,59.9049391033,Experimento Piloto1,001,132,
2.5,Stim\\05_078.jpg,En78_28,Enojo,28,Antonio responde la pregunta.,Afirmación,En78,78,,,,,,,,,,,,,0,110,110,110,,,,,,,,,1,1.28347048061,2,2.64959168191,2018_jun._12_1919,59.9049391033,Experimento Piloto1,001,132,
2.5,Stim\\03_028.jpg,Tr28_26,Tristeza,26,Víctor trae el café a Marco.,Afirmación,Tr28,28,,,,,,,,,,,,,0,111,111,111,,,,,,,,,1,6.76797938328,4,1.06656745058,2018_jun._12_1919,59.9049391033,Experimento Piloto1,001,132,
2.5,Stim\\05_028.jpg,En28_20,Enojo,20,Karen analiza la idea.,Afirmación,En28,28,,,,,,,,,,,,,0,112,112,112,,,,,,,,,1,1.07570529698,2,3.26623901111,2018_jun._12_1919,59.9049391033,Experimento Piloto1,001,132,
2.5,Stim\\02_019.jpg,Al19_30,Alegría,30,Marisol toma 2 litros de agua cada día.,Afirmación,Al19,19,,,,,,,,,,,,,0,113,113,113,,,,,,,,,1,11.2624485698,3,0.700347628185,2018_jun._12_1919,59.9049391033,Experimento Piloto1,001,132,
2.5,Stim\\05_078.jpg,En78_23,Enojo,23,Óscar consigue un nuevo departamento.,Afirmación,En78,78,,,,,,,,,,,,,0,114,114,114,,,,,,,,,1,1.03321968852,2,0.700322638226,2018_jun._12_1919,59.9049391033,Experimento Piloto1,001,132,
0.25,Stim\\05_078.jpg,En78_23,Enojo,23,Óscar consigue un nuevo departamento.,Afirmación,En78,78,,,,,,,,,,,,,0,115,115,115,,,,,,,,,1,4.36579276184,2,1.3666437592,2018_jun._12_1919,59.9049391033,Experimento Piloto1,001,132,
2.5,Stim\\05_019.jpg,En19_19,Enojo,19,Armando acompaña a Rodrígo a la tienda.,Afirmación,En19,19,,,,,,,,,,,,,0,116,116,116,,,,,,,,,1,1.01451782766,2,0.600896514793,2018_jun._12_1919,59.9049391033,Experimento Piloto1,001,132,
2.5,Stim\\03_078.jpg,Tr78_17,Tristeza,17,Brenda sube el autobús en las mañanas.,Afirmación,Tr78,78,,,,,,,,,,,,,0,117,117,117,,,,,,,,,1,1.33217725021,4,0.700255254585,2018_jun._12_1919,59.9049391033,Experimento Piloto1,001,132,
0.25,Stim\\05_075.jpg,En75_20,Enojo,20,Karen analiza la idea.,Afirmación,En75,75,,,,,,,,,,,,,0,118,118,118,,,,,,,,,1,2.50879244946,2,2.23296220269,2018_jun._12_1919,59.9049391033,Experimento Piloto1,001,132,
0.25,Stim\\05_078.jpg,En78_28,Enojo,28,Antonio responde la pregunta.,Afirmación,En78,78,,,,,,,,,,,,,0,119,119,119,,,,,,,,,1,2.60523896649,2,2.54966575929,2018_jun._12_1919,59.9049391033,Experimento Piloto1,001,132,
