Tiempo,ImagenesE,ClaveEn,Emocion,NumEn,Enunciado,ActoHabla,Clave,Cara,trials.thisRepN,trials.thisTrialN,trials.thisN,trials.thisIndex,Bloque1.thisRepN,Bloque1.thisTrialN,Bloque1.thisN,Bloque1.thisIndex,Bloque3.thisRepN,Bloque3.thisTrialN,Bloque3.thisN,Bloque3.thisIndex,Bloque2.thisRepN,Bloque2.thisTrialN,Bloque2.thisN,Bloque2.thisIndex,Sig_B1.keys,Sig_B1.rt,Resp_Bloque1.keys,Resp_Bloque1.rt,Sig_B3.keys,Sig_B3.rt,Resp_Bloque3.keys,Resp_Bloque3.rt,Sig_B2.keys,Sig_B2.rt,Resp_Bloque2.keys,Resp_Bloque2.rt,date,frameRate,expName,session,participant,
2.5,Stim\\05_028.jpg,En28_16,Enojo,16,Valeria modifica algunas imágenes.,Afirmación,En28,28,,,,,0,0,0,0,,,,,,,,,1,5.98115808413,2,2.69977705466,,,,,,,,,2018_jun._13_1556,60.0375618551,Experimento Piloto1,001,133,
2.5,Stim\\05_028.jpg,En28_29,Enojo,29,Miriam mira la película.,Afirmación,En28,28,,,,,0,1,1,1,,,,,,,,,1,4.20726285952,2,5.16550300146,,,,,,,,,2018_jun._13_1556,60.0375618551,Experimento Piloto1,001,133,
0.25,Stim\\03_028.jpg,Tr28_29,Tristeza,29,Miriam mira la película.,Afirmación,Tr28,28,,,,,0,2,2,2,,,,,,,,,1,2.61647109118,3,3.31615220259,,,,,,,,,2018_jun._13_1556,60.0375618551,Experimento Piloto1,001,133,
2.5,Stim\\02_075.jpg,Al75_22,Alegría,22,Enrique corre todas las mañanas.,Afirmación,Al75,75,,,,,0,3,3,3,,,,,,,,,1,7.79802651425,3,0.533742572207,,,,,,,,,2018_jun._13_1556,60.0375618551,Experimento Piloto1,001,133,
2.5,Stim\\05_019.jpg,En19_17,Enojo,17,Brenda sube el autobús en las mañanas.,Afirmación,En19,19,,,,,0,4,4,4,,,,,,,,,1,6.09307923395,3,1.83328141985,,,,,,,,,2018_jun._13_1556,60.0375618551,Experimento Piloto1,001,133,
2.5,Stim\\02_028.jpg,Al28_17,Alegría,17,Brenda sube el autobús en las mañanas.,Afirmación,Al28,28,,,,,0,5,5,5,,,,,,,,,1,3.34946860826,3,1.10021518063,,,,,,,,,2018_jun._13_1556,60.0375618551,Experimento Piloto1,001,133,
0.25,Stim\\05_075.jpg,En75_24,Enojo,24,Guadalupe comenta los resultados con los compañeros.,Afirmación,En75,75,,,,,0,6,6,6,,,,,,,,,1,6.34025493238,2,1.26673250307,,,,,,,,,2018_jun._13_1556,60.0375618551,Experimento Piloto1,001,133,
2.5,Stim\\03_078.jpg,Tr78_23,Tristeza,23,Óscar consigue un nuevo departamento.,Afirmación,Tr78,78,,,,,0,7,7,7,,,,,,,,,1,4.0473156417,4,1.31662879511,,,,,,,,,2018_jun._13_1556,60.0375618551,Experimento Piloto1,001,133,
0.25,Stim\\05_075.jpg,En75_16,Enojo,16,Valeria modifica algunas imágenes.,Afirmación,En75,75,,,,,0,8,8,8,,,,,,,,,1,5.98465398847,4,0.40036761884,,,,,,,,,2018_jun._13_1556,60.0375618551,Experimento Piloto1,001,133,
0.25,Stim\\02_078.jpg,Al78_23,Alegría,23,Óscar consigue un nuevo departamento.,Afirmación,Al78,78,,,,,0,9,9,9,,,,,,,,,1,2.43924293188,3,4.69896845386,,,,,,,,,2018_jun._13_1556,60.0375618551,Experimento Piloto1,001,133,
2.5,Stim\\05_078.jpg,En78_24,Enojo,24,Guadalupe comenta los resultados con los compañeros.,Afirmación,En78,78,,,,,0,10,10,10,,,,,,,,,1,2.34141249886,2,3.73269853113,,,,,,,,,2018_jun._13_1556,60.0375618551,Experimento Piloto1,001,133,
2.5,Stim\\03_028.jpg,Tr28_28,Tristeza,28,Antonio responde la pregunta.,Afirmación,Tr28,28,,,,,0,11,11,11,,,,,,,,,1,21.2653326241,3,0.800318442346,,,,,,,,,2018_jun._13_1556,60.0375618551,Experimento Piloto1,001,133,
0.25,Stim\\02_019.jpg,Al19_20,Alegría,20,Karen analiza la idea.,Afirmación,Al19,19,,,,,0,12,12,12,,,,,,,,,1,7.02075408718,3,2.64952108699,,,,,,,,,2018_jun._13_1556,60.0375618551,Experimento Piloto1,001,133,
2.5,Stim\\05_078.jpg,En78_27,Enojo,27,Claudia informa los avances en el reporte.,Afirmación,En78,78,,,,,0,13,13,13,,,,,,,,,1,7.99315545306,2,1.51670126574,,,,,,,,,2018_jun._13_1556,60.0375618551,Experimento Piloto1,001,133,
0.25,Stim\\05_028.jpg,En28_28,Enojo,28,Antonio responde la pregunta.,Afirmación,En28,28,,,,,0,14,14,14,,,,,,,,,1,1.73869119125,2,1.73323313585,,,,,,,,,2018_jun._13_1556,60.0375618551,Experimento Piloto1,001,133,
2.5,Stim\\03_078.jpg,Tr78_30,Tristeza,30,Marisol toma 2 litros de agua cada día.,Afirmación,Tr78,78,,,,,0,15,15,15,,,,,,,,,1,2.39895836866,3,1.31668323733,,,,,,,,,2018_jun._13_1556,60.0375618551,Experimento Piloto1,001,133,
0.25,Stim\\03_028.jpg,Tr28_27,Tristeza,27,Claudia informa los avances en el reporte.,Afirmación,Tr28,28,,,,,0,16,16,16,,,,,,,,,1,5.47978631876,4,4.43260589011,,,,,,,,,2018_jun._13_1556,60.0375618551,Experimento Piloto1,001,133,
0.25,Stim\\02_075.jpg,Al75_24,Alegría,24,Guadalupe comenta los resultados con los compañeros.,Afirmación,Al75,75,,,,,0,17,17,17,,,,,,,,,1,8.60516317493,2,3.1995481296,,,,,,,,,2018_jun._13_1556,60.0375618551,Experimento Piloto1,001,133,
0.25,Stim\\02_019.jpg,Al19_16,Alegría,16,Valeria modifica algunas imágenes.,Afirmación,Al19,19,,,,,0,18,18,18,,,,,,,,,1,3.63486185064,2,0.800177874326,,,,,,,,,2018_jun._13_1556,60.0375618551,Experimento Piloto1,001,133,
2.5,Stim\\02_028.jpg,Al28_30,Alegría,30,Marisol toma 2 litros de agua cada día.,Afirmación,Al28,28,,,,,0,19,19,19,,,,,,,,,1,10.8124545943,3,1.98316842994,,,,,,,,,2018_jun._13_1556,60.0375618551,Experimento Piloto1,001,133,
2.5,Stim\\05_078.jpg,En78_16,Enojo,16,Valeria modifica algunas imágenes.,Afirmación,En78,78,,,,,0,20,20,20,,,,,,,,,1,2.86746086854,2,1.16675383371,,,,,,,,,2018_jun._13_1556,60.0375618551,Experimento Piloto1,001,133,
0.25,Stim\\02_075.jpg,Al75_28,Alegría,28,Antonio responde la pregunta.,Afirmación,Al75,75,,,,,0,21,21,21,,,,,,,,,1,2.35460715032,2,0.900098531488,,,,,,,,,2018_jun._13_1556,60.0375618551,Experimento Piloto1,001,133,
2.5,Stim\\03_075.jpg,Tr75_17,Tristeza,17,Brenda sube el autobús en las mañanas.,Afirmación,Tr75,75,,,,,0,22,22,22,,,,,,,,,1,6.81505532579,3,1.93316369971,,,,,,,,,2018_jun._13_1556,60.0375618551,Experimento Piloto1,001,133,
0.25,Stim\\05_075.jpg,En75_18,Enojo,18,Sofía escucha la música.,Afirmación,En75,75,,,,,0,23,23,23,,,,,,,,,1,3.73986125267,3,3.41607375225,,,,,,,,,2018_jun._13_1556,60.0375618551,Experimento Piloto1,001,133,
2.5,Stim\\02_075.jpg,Al75_25,Alegría,25,Luis decide la comida siguiente.,Afirmación,Al75,75,,,,,0,24,24,24,,,,,,,,,1,5.01491493627,3,0.30037154582,,,,,,,,,2018_jun._13_1556,60.0375618551,Experimento Piloto1,001,133,
0.25,Stim\\02_028.jpg,Al28_18,Alegría,18,Sofía escucha la música.,Afirmación,Al28,28,,,,,0,25,25,25,,,,,,,,,1,1.84165570385,3,0.283856365366,,,,,,,,,2018_jun._13_1556,60.0375618551,Experimento Piloto1,001,133,
0.25,Stim\\02_028.jpg,Al28_23,Alegría,23,Óscar consigue un nuevo departamento.,Afirmación,Al28,28,,,,,0,26,26,26,,,,,,,,,1,3.6826572086,3,0.450287562006,,,,,,,,,2018_jun._13_1556,60.0375618551,Experimento Piloto1,001,133,
0.25,Stim\\02_075.jpg,Al75_19,Alegría,19,Armando acompaña a Rodrígo a la tienda.,Afirmación,Al75,75,,,,,0,27,27,27,,,,,,,,,1,2.64812120801,2,0.866586223085,,,,,,,,,2018_jun._13_1556,60.0375618551,Experimento Piloto1,001,133,
2.5,Stim\\05_019.jpg,En19_16,Enojo,16,Valeria modifica algunas imágenes.,Afirmación,En19,19,,,,,0,28,28,28,,,,,,,,,1,2.35225988751,4,13.3130128501,,,,,,,,,2018_jun._13_1556,60.0375618551,Experimento Piloto1,001,133,
2.5,Stim\\02_019.jpg,Al19_25,Alegría,25,Luis decide la comida siguiente.,Afirmación,Al19,19,,,,,0,29,29,29,,,,,,,,,1,3.11773397212,3,1.68326901417,,,,,,,,,2018_jun._13_1556,60.0375618551,Experimento Piloto1,001,133,
0.25,Stim\\02_078.jpg,Al78_27,Alegría,27,Claudia informa los avances en el reporte.,Afirmación,Al78,78,,,,,0,30,30,30,,,,,,,,,1,2.89490242348,2,1.06665690872,,,,,,,,,2018_jun._13_1556,60.0375618551,Experimento Piloto1,001,133,
0.25,Stim\\03_019.jpg,Tr19_22,Tristeza,22,Enrique corre todas las mañanas.,Afirmación,Tr19,19,,,,,0,31,31,31,,,,,,,,,1,2.50329687787,3,0.900318977843,,,,,,,,,2018_jun._13_1556,60.0375618551,Experimento Piloto1,001,133,
2.5,Stim\\05_019.jpg,En19_26,Enojo,26,Víctor trae el café a Marco.,Afirmación,En19,19,,,,,0,32,32,32,,,,,,,,,1,2.57214441646,2,8.18140146762,,,,,,,,,2018_jun._13_1556,60.0375618551,Experimento Piloto1,001,133,
2.5,Stim\\02_078.jpg,Al78_26,Alegría,26,Víctor trae el café a Marco.,Afirmación,Al78,78,,,,,0,33,33,33,,,,,,,,,1,4.01588775621,2,0.900102547717,,,,,,,,,2018_jun._13_1556,60.0375618551,Experimento Piloto1,001,133,
0.25,Stim\\05_078.jpg,En78_17,Enojo,17,Brenda sube el autobús en las mañanas.,Afirmación,En78,78,,,,,0,34,34,34,,,,,,,,,1,10.2461194302,3,1.66671947264,,,,,,,,,2018_jun._13_1556,60.0375618551,Experimento Piloto1,001,133,
0.25,Stim\\05_078.jpg,En78_21,Enojo,21,Mauro anuncia la actividad.,Afirmación,En78,78,,,,,0,35,35,35,,,,,,,,,1,3.02305627897,3,2.69963737913,,,,,,,,,2018_jun._13_1556,60.0375618551,Experimento Piloto1,001,133,
2.5,Stim\\03_078.jpg,Tr78_20,Tristeza,20,Karen analiza la idea.,Afirmación,Tr78,78,,,,,0,36,36,36,,,,,,,,,1,1.39004189373,3,1.63327053141,,,,,,,,,2018_jun._13_1556,60.0375618551,Experimento Piloto1,001,133,
0.25,Stim\\03_078.jpg,Tr78_28,Tristeza,28,Antonio responde la pregunta.,Afirmación,Tr78,78,,,,,0,37,37,37,,,,,,,,,1,1.47169897202,3,1.01674589051,,,,,,,,,2018_jun._13_1556,60.0375618551,Experimento Piloto1,001,133,
2.5,Stim\\03_028.jpg,Tr28_17,Tristeza,17,Brenda sube el autobús en las mañanas.,Afirmación,Tr28,28,,,,,0,38,38,38,,,,,,,,,1,2.03267202402,3,1.01675436921,,,,,,,,,2018_jun._13_1556,60.0375618551,Experimento Piloto1,001,133,
0.25,Stim\\02_028.jpg,Al28_27,Alegría,27,Claudia informa los avances en el reporte.,Afirmación,Al28,28,,,,,0,39,39,39,,,,,,,,,1,2.19670597811,3,6.79837815743,,,,,,,,,2018_jun._13_1556,60.0375618551,Experimento Piloto1,001,133,
2.5,Stim\\02_019.jpg,Al19_28,Alegría,28,Antonio responde la pregunta.,Afirmación,Al19,19,,,,,0,40,40,40,,,,,,,,,1,3.16850981834,2,0.550191261756,,,,,,,,,2018_jun._13_1556,60.0375618551,Experimento Piloto1,001,133,
0.25,Stim\\02_019.jpg,Al19_17,Alegría,17,Brenda sube el autobús en las mañanas.,Afirmación,Al19,19,,,,,0,41,41,41,,,,,,,,,1,2.14955901804,2,3.04940943582,,,,,,,,,2018_jun._13_1556,60.0375618551,Experimento Piloto1,001,133,
2.5,Stim\\03_075.jpg,Tr75_21,Tristeza,21,Mauro anuncia la actividad.,Afirmación,Tr75,75,,,,,0,42,42,42,,,,,,,,,1,3.43843923981,4,2.29975795526,,,,,,,,,2018_jun._13_1556,60.0375618551,Experimento Piloto1,001,133,
0.25,Stim\\03_075.jpg,Tr75_26,Tristeza,26,Víctor trae el café a Marco.,Afirmación,Tr75,75,,,,,0,43,43,43,,,,,,,,,1,1.78921892376,4,0.750221785098,,,,,,,,,2018_jun._13_1556,60.0375618551,Experimento Piloto1,001,133,
0.25,Stim\\02_075.jpg,Al75_18,Alegría,18,Sofía escucha la música.,Afirmación,Al75,75,,,,,0,44,44,44,,,,,,,,,1,1.57470810939,3,0.450421882558,,,,,,,,,2018_jun._13_1556,60.0375618551,Experimento Piloto1,001,133,
2.5,Stim\\05_028.jpg,En28_27,Enojo,27,Claudia informa los avances en el reporte.,Afirmación,En28,28,,,,,0,45,45,45,,,,,,,,,1,2.51290726795,3,0.750221785098,,,,,,,,,2018_jun._13_1556,60.0375618551,Experimento Piloto1,001,133,
0.25,Stim\\02_019.jpg,Al19_23,Alegría,23,Óscar consigue un nuevo departamento.,Afirmación,Al19,19,,,,,0,46,46,46,,,,,,,,,1,1.61651482346,2,0.966854060943,,,,,,,,,2018_jun._13_1556,60.0375618551,Experimento Piloto1,001,133,
0.25,Stim\\03_075.jpg,Tr75_21,Tristeza,21,Mauro anuncia la actividad.,Afirmación,Tr75,75,,,,,0,47,47,47,,,,,,,,,1,2.70574695614,3,1.48307337918,,,,,,,,,2018_jun._13_1556,60.0375618551,Experimento Piloto1,001,133,
0.25,Stim\\02_078.jpg,Al78_28,Alegría,28,Antonio responde la pregunta.,Afirmación,Al78,78,,,,,0,48,48,48,,,,,,,,,1,1.5213850814,2,1.21685539969,,,,,,,,,2018_jun._13_1556,60.0375618551,Experimento Piloto1,001,133,
2.5,Stim\\03_075.jpg,Tr75_23,Tristeza,23,Óscar consigue un nuevo departamento.,Afirmación,Tr75,75,,,,,0,49,49,49,,,,,,,,,1,4.49867598313,4,0.716614425938,,,,,,,,,2018_jun._13_1556,60.0375618551,Experimento Piloto1,001,133,
0.25,Stim\\02_078.jpg,Al78_22,Alegría,22,Enrique corre todas las mañanas.,Afirmación,Al78,78,,,,,0,50,50,50,,,,,,,,,1,2.95254155905,3,1.26683603254,,,,,,,,,2018_jun._13_1556,60.0375618551,Experimento Piloto1,001,133,
2.5,Stim\\03_028.jpg,Tr28_23,Tristeza,23,Óscar consigue un nuevo departamento.,Afirmación,Tr28,28,,,,,0,51,51,51,,,,,,,,,1,4.1495866854,4,3.11607794698,,,,,,,,,2018_jun._13_1556,60.0375618551,Experimento Piloto1,001,133,
0.25,Stim\\02_028.jpg,Al28_19,Alegría,19,Armando acompaña a Rodrígo a la tienda.,Afirmación,Al28,28,,,,,0,52,52,52,,,,,,,,,1,3.26405323199,3,0.600141996013,,,,,,,,,2018_jun._13_1556,60.0375618551,Experimento Piloto1,001,133,
0.25,Stim\\03_028.jpg,Tr28_28,Tristeza,28,Antonio responde la pregunta.,Afirmación,Tr28,28,,,,,0,53,53,53,,,,,,,,,1,6.08787866347,2,1.73317913988,,,,,,,,,2018_jun._13_1556,60.0375618551,Experimento Piloto1,001,133,
2.5,Stim\\05_075.jpg,En75_16,Enojo,16,Valeria modifica algunas imágenes.,Afirmación,En75,75,,,,,0,54,54,54,,,,,,,,,1,1.43525749384,2,0.900363156363,,,,,,,,,2018_jun._13_1556,60.0375618551,Experimento Piloto1,001,133,
0.25,Stim\\03_019.jpg,Tr19_28,Tristeza,28,Antonio responde la pregunta.,Afirmación,Tr19,19,,,,,0,55,55,55,,,,,,,,,1,1.53787482574,2,0.800320673584,,,,,,,,,2018_jun._13_1556,60.0375618551,Experimento Piloto1,001,133,
2.5,Stim\\03_019.jpg,Tr19_24,Tristeza,24,Guadalupe comenta los resultados con los compañeros.,Afirmación,Tr19,19,,,,,0,56,56,56,,,,,,,,,1,1.84152763076,2,0.750160649166,,,,,,,,,2018_jun._13_1556,60.0375618551,Experimento Piloto1,001,133,
0.25,Stim\\03_019.jpg,Tr19_30,Tristeza,30,Marisol toma 2 litros de agua cada día.,Afirmación,Tr19,19,,,,,0,57,57,57,,,,,,,,,1,4.94686662728,3,0.500230710052,,,,,,,,,2018_jun._13_1556,60.0375618551,Experimento Piloto1,001,133,
0.25,Stim\\02_075.jpg,Al75_23,Alegría,23,Óscar consigue un nuevo departamento.,Afirmación,Al75,75,,,,,0,58,58,58,,,,,,,,,1,3.83237732205,2,1.01683157006,,,,,,,,,2018_jun._13_1556,60.0375618551,Experimento Piloto1,001,133,
2.5,Stim\\02_078.jpg,Al78_22,Alegría,22,Enrique corre todas las mañanas.,Afirmación,Al78,78,,,,,0,59,59,59,,,,,,,,,1,4.44842046171,3,0.350319156342,,,,,,,,,2018_jun._13_1556,60.0375618551,Experimento Piloto1,001,133,
2.5,Stim\\05_075.jpg,En75_20,Enojo,20,Karen analiza la idea.,Afirmación,En75,75,,,,,0,60,60,60,,,,,,,,,1,1.07604015872,2,0.950207683671,,,,,,,,,2018_jun._13_1556,60.0375618551,Experimento Piloto1,001,133,
2.5,Stim\\03_028.jpg,Tr28_18,Tristeza,18,Sofía escucha la música.,Afirmación,Tr28,28,,,,,0,61,61,61,,,,,,,,,1,1.95813036501,4,4.84888982502,,,,,,,,,2018_jun._13_1556,60.0375618551,Experimento Piloto1,001,133,
0.25,Stim\\02_028.jpg,Al28_22,Alegría,22,Enrique corre todas las mañanas.,Afirmación,Al28,28,,,,,0,62,62,62,,,,,,,,,1,1.68668637891,3,1.01683335505,,,,,,,,,2018_jun._13_1556,60.0375618551,Experimento Piloto1,001,133,
2.5,Stim\\03_075.jpg,Tr75_29,Tristeza,29,Miriam mira la película.,Afirmación,Tr75,75,,,,,0,63,63,63,,,,,,,,,1,1.38675260207,3,1.56663370384,,,,,,,,,2018_jun._13_1556,60.0375618551,Experimento Piloto1,001,133,
2.5,Stim\\05_075.jpg,En75_19,Enojo,19,Armando acompaña a Rodrígo a la tienda.,Afirmación,En75,75,,,,,0,64,64,64,,,,,,,,,1,1.58206628742,2,1.41669091279,,,,,,,,,2018_jun._13_1556,60.0375618551,Experimento Piloto1,001,133,
0.25,Stim\\05_078.jpg,En78_27,Enojo,27,Claudia informa los avances en el reporte.,Afirmación,En78,78,,,,,0,65,65,65,,,,,,,,,1,1.57794519007,2,0.600263821629,,,,,,,,,2018_jun._13_1556,60.0375618551,Experimento Piloto1,001,133,
0.25,Stim\\02_075.jpg,Al75_29,Alegría,29,Miriam mira la película.,Afirmación,Al75,75,,,,,0,66,66,66,,,,,,,,,1,1.94068029567,2,3.0158605351,,,,,,,,,2018_jun._13_1556,60.0375618551,Experimento Piloto1,001,133,
2.5,Stim\\03_075.jpg,Tr75_19,Tristeza,19,Armando acompaña a Rodrígo a la tienda.,Afirmación,Tr75,75,,,,,0,67,67,67,,,,,,,,,1,2.49807399501,4,0.600192422,,,,,,,,,2018_jun._13_1556,60.0375618551,Experimento Piloto1,001,133,
2.5,Stim\\03_028.jpg,Tr28_22,Tristeza,22,Enrique corre todas las mañanas.,Afirmación,Tr28,28,,,,,0,68,68,68,,,,,,,,,1,1.48719938525,3,1.66668421908,,,,,,,,,2018_jun._13_1556,60.0375618551,Experimento Piloto1,001,133,
0.25,Stim\\03_078.jpg,Tr78_25,Tristeza,25,Luis decide la comida siguiente.,Afirmación,Tr78,78,,,,,0,69,69,69,,,,,,,,,1,3.11831275536,3,0.966806758689,,,,,,,,,2018_jun._13_1556,60.0375618551,Experimento Piloto1,001,133,
2.5,Stim\\02_028.jpg,Al28_19,Alegría,19,Armando acompaña a Rodrígo a la tienda.,Afirmación,Al28,28,,,,,0,70,70,70,,,,,,,,,1,3.88190902973,2,4.6490569894,,,,,,,,,2018_jun._13_1556,60.0375618551,Experimento Piloto1,001,133,
0.25,Stim\\02_075.jpg,Al75_25,Alegría,25,Luis decide la comida siguiente.,Afirmación,Al75,75,,,,,0,71,71,71,,,,,,,,,1,1.53612419608,3,0.750225355079,,,,,,,,,2018_jun._13_1556,60.0375618551,Experimento Piloto1,001,133,
2.5,Stim\\02_019.jpg,Al19_24,Alegría,24,Guadalupe comenta los resultados con los compañeros.,Afirmación,Al19,19,,,,,0,72,72,72,,,,,,,,,1,2.44064638084,2,0.500384219254,,,,,,,,,2018_jun._13_1556,60.0375618551,Experimento Piloto1,001,133,
0.25,Stim\\03_028.jpg,Tr28_23,Tristeza,23,Óscar consigue un nuevo departamento.,Afirmación,Tr28,28,,,,,0,73,73,73,,,,,,,,,1,2.71714635317,4,6.948267845,,,,,,,,,2018_jun._13_1556,60.0375618551,Experimento Piloto1,001,133,
0.25,Stim\\03_028.jpg,Tr28_25,Tristeza,25,Luis decide la comida siguiente.,Afirmación,Tr28,28,,,,,0,74,74,74,,,,,,,,,1,3.21915848397,3,1.68329980526,,,,,,,,,2018_jun._13_1556,60.0375618551,Experimento Piloto1,001,133,
0.25,Stim\\05_019.jpg,En19_23,Enojo,23,Óscar consigue un nuevo departamento.,Afirmación,En19,19,,,,,0,75,75,75,,,,,,,,,1,1.56627893693,2,0.500433752747,,,,,,,,,2018_jun._13_1556,60.0375618551,Experimento Piloto1,001,133,
2.5,Stim\\03_019.jpg,Tr19_26,Tristeza,26,Víctor trae el café a Marco.,Afirmación,Tr19,19,,,,,0,76,76,76,,,,,,,,,1,1.68887924002,3,2.34977027169,,,,,,,,,2018_jun._13_1556,60.0375618551,Experimento Piloto1,001,133,
0.25,Stim\\05_028.jpg,En28_30,Enojo,30,Marisol toma 2 litros de agua cada día.,Afirmación,En28,28,,,,,0,77,77,77,,,,,,,,,1,1.63286176853,3,0.433591204994,,,,,,,,,2018_jun._13_1556,60.0375618551,Experimento Piloto1,001,133,
2.5,Stim\\02_019.jpg,Al19_26,Alegría,26,Víctor trae el café a Marco.,Afirmación,Al19,19,,,,,0,78,78,78,,,,,,,,,1,1.53855312222,3,0.816893866236,,,,,,,,,2018_jun._13_1556,60.0375618551,Experimento Piloto1,001,133,
0.25,Stim\\03_075.jpg,Tr75_27,Tristeza,27,Claudia informa los avances en el reporte.,Afirmación,Tr75,75,,,,,0,79,79,79,,,,,,,,,1,1.31350595384,3,1.31661853142,,,,,,,,,2018_jun._13_1556,60.0375618551,Experimento Piloto1,001,133,
2.5,Stim\\02_078.jpg,Al78_27,Alegría,27,Claudia informa los avances en el reporte.,Afirmación,Al78,78,,,,,0,80,80,80,,,,,,,,,1,1.69988683159,3,1.51661424744,,,,,,,,,2018_jun._13_1556,60.0375618551,Experimento Piloto1,001,133,
0.25,Stim\\02_019.jpg,Al19_26,Alegría,26,Víctor trae el café a Marco.,Afirmación,Al19,19,,,,,0,81,81,81,,,,,,,,,1,3.3888932522,2,1.41658381335,,,,,,,,,2018_jun._13_1556,60.0375618551,Experimento Piloto1,001,133,
0.25,Stim\\03_019.jpg,Tr19_29,Tristeza,29,Miriam mira la película.,Afirmación,Tr19,19,,,,,0,82,82,82,,,,,,,,,1,3.93905907784,2,2.44963916412,,,,,,,,,2018_jun._13_1556,60.0375618551,Experimento Piloto1,001,133,
2.5,Stim\\05_075.jpg,En75_27,Enojo,27,Claudia informa los avances en el reporte.,Afirmación,En75,75,,,,,0,83,83,83,,,,,,,,,1,2.09721327248,2,1.93324893302,,,,,,,,,2018_jun._13_1556,60.0375618551,Experimento Piloto1,001,133,
0.25,Stim\\05_019.jpg,En19_25,Enojo,25,Luis decide la comida siguiente.,Afirmación,En19,19,,,,,0,84,84,84,,,,,,,,,1,2.18591481667,2,1.26685745243,,,,,,,,,2018_jun._13_1556,60.0375618551,Experimento Piloto1,001,133,
2.5,Stim\\03_028.jpg,Tr28_20,Tristeza,20,Karen analiza la idea.,Afirmación,Tr28,28,,,,,0,85,85,85,,,,,,,,,1,1.5923487265,3,2.24976928995,,,,,,,,,2018_jun._13_1556,60.0375618551,Experimento Piloto1,001,133,
2.5,Stim\\05_028.jpg,En28_26,Enojo,26,Víctor trae el café a Marco.,Afirmación,En28,28,,,,,0,86,86,86,,,,,,,,,1,1.78900026239,2,2.69950484357,,,,,,,,,2018_jun._13_1556,60.0375618551,Experimento Piloto1,001,133,
0.25,Stim\\05_028.jpg,En28_21,Enojo,21,Mauro anuncia la actividad.,Afirmación,En28,28,,,,,0,87,87,87,,,,,,,,,1,2.87256460328,2,0.750419472821,,,,,,,,,2018_jun._13_1556,60.0375618551,Experimento Piloto1,001,133,
0.25,Stim\\03_075.jpg,Tr75_22,Tristeza,22,Enrique corre todas las mañanas.,Afirmación,Tr75,75,,,,,0,88,88,88,,,,,,,,,1,1.46974842341,3,0.700428576274,,,,,,,,,2018_jun._13_1556,60.0375618551,Experimento Piloto1,001,133,
0.25,Stim\\05_028.jpg,En28_27,Enojo,27,Claudia informa los avances en el reporte.,Afirmación,En28,28,,,,,0,89,89,89,,,,,,,,,1,1.3303955361,3,0.500072738372,,,,,,,,,2018_jun._13_1556,60.0375618551,Experimento Piloto1,001,133,
2.5,Stim\\03_075.jpg,Tr75_22,Tristeza,22,Enrique corre todas las mañanas.,Afirmación,Tr75,75,,,,,0,90,90,90,,,,,,,,,1,1.98667325923,3,1.06679836923,,,,,,,,,2018_jun._13_1556,60.0375618551,Experimento Piloto1,001,133,
0.25,Stim\\05_019.jpg,En19_28,Enojo,28,Antonio responde la pregunta.,Afirmación,En19,19,,,,,0,91,91,91,,,,,,,,,1,2.92183302483,3,1.36689547273,,,,,,,,,2018_jun._13_1556,60.0375618551,Experimento Piloto1,001,133,
2.5,Stim\\03_019.jpg,Tr19_17,Tristeza,17,Brenda sube el autobús en las mañanas.,Afirmación,Tr19,19,,,,,0,92,92,92,,,,,,,,,1,2.74814003966,3,1.48327686813,,,,,,,,,2018_jun._13_1556,60.0375618551,Experimento Piloto1,001,133,
0.25,Stim\\05_028.jpg,En28_29,Enojo,29,Miriam mira la película.,Afirmación,En28,28,,,,,0,93,93,93,,,,,,,,,1,3.73989293626,2,0.433641630982,,,,,,,,,2018_jun._13_1556,60.0375618551,Experimento Piloto1,001,133,
0.25,Stim\\05_028.jpg,En28_18,Enojo,18,Sofía escucha la música.,Afirmación,En28,28,,,,,0,94,94,94,,,,,,,,,1,2.15788019856,2,0.750329330789,,,,,,,,,2018_jun._13_1556,60.0375618551,Experimento Piloto1,001,133,
0.25,Stim\\05_028.jpg,En28_25,Enojo,25,Luis decide la comida siguiente.,Afirmación,En28,28,,,,,0,95,95,95,,,,,,,,,1,1.01817834556,2,0.500257038665,,,,,,,,,2018_jun._13_1556,60.0375618551,Experimento Piloto1,001,133,
2.5,Stim\\03_075.jpg,Tr75_16,Tristeza,16,Valeria modifica algunas imágenes.,Afirmación,Tr75,75,,,,,0,96,96,96,,,,,,,,,1,1.26827875129,4,1.06685415019,,,,,,,,,2018_jun._13_1556,60.0375618551,Experimento Piloto1,001,133,
2.5,Stim\\05_019.jpg,En19_18,Enojo,18,Sofía escucha la música.,Afirmación,En19,19,,,,,0,97,97,97,,,,,,,,,1,0.92556677918,2,0.700307643152,,,,,,,,,2018_jun._13_1556,60.0375618551,Experimento Piloto1,001,133,
0.25,Stim\\05_075.jpg,En75_28,Enojo,28,Antonio responde la pregunta.,Afirmación,En75,75,,,,,0,98,98,98,,,,,,,,,1,1.47227864776,2,0.916991683728,,,,,,,,,2018_jun._13_1556,60.0375618551,Experimento Piloto1,001,133,
0.25,Stim\\03_019.jpg,Tr19_24,Tristeza,24,Guadalupe comenta los resultados con los compañeros.,Afirmación,Tr19,19,,,,,0,99,99,99,,,,,,,,,1,1.97470177267,2,2.13317012568,,,,,,,,,2018_jun._13_1556,60.0375618551,Experimento Piloto1,001,133,
0.25,Stim\\02_075.jpg,Al75_21,Alegría,21,Mauro anuncia la actividad.,Afirmación,Al75,75,,,,,0,100,100,100,,,,,,,,,1,1.27776151453,2,0.75019054776,,,,,,,,,2018_jun._13_1556,60.0375618551,Experimento Piloto1,001,133,
0.25,Stim\\03_019.jpg,Tr19_23,Tristeza,23,Óscar consigue un nuevo departamento.,Afirmación,Tr19,19,,,,,0,101,101,101,,,,,,,,,1,1.78242212532,2,1.46703791499,,,,,,,,,2018_jun._13_1556,60.0375618551,Experimento Piloto1,001,133,
2.5,Stim\\05_028.jpg,En28_30,Enojo,30,Marisol toma 2 litros de agua cada día.,Afirmación,En28,28,,,,,0,102,102,102,,,,,,,,,1,1.23272307475,3,1.566698856,,,,,,,,,2018_jun._13_1556,60.0375618551,Experimento Piloto1,001,133,
0.25,Stim\\02_078.jpg,Al78_19,Alegría,19,Armando acompaña a Rodrígo a la tienda.,Afirmación,Al78,78,,,,,0,103,103,103,,,,,,,,,1,2.24829935008,4,1.10012771609,,,,,,,,,2018_jun._13_1556,60.0375618551,Experimento Piloto1,001,133,
2.5,Stim\\03_075.jpg,Tr75_25,Tristeza,25,Luis decide la comida siguiente.,Afirmación,Tr75,75,,,,,0,104,104,104,,,,,,,,,1,1.2344763819,4,1.21675187022,,,,,,,,,2018_jun._13_1556,60.0375618551,Experimento Piloto1,001,133,
2.5,Stim\\03_028.jpg,Tr28_29,Tristeza,29,Miriam mira la película.,Afirmación,Tr28,28,,,,,0,105,105,105,,,,,,,,,1,2.05817507903,3,1.10019688448,,,,,,,,,2018_jun._13_1556,60.0375618551,Experimento Piloto1,001,133,
0.25,Stim\\03_028.jpg,Tr28_24,Tristeza,24,Guadalupe comenta los resultados con los compañeros.,Afirmación,Tr28,28,,,,,0,106,106,106,,,,,,,,,1,2.19119481924,3,1.9331561135,,,,,,,,,2018_jun._13_1556,60.0375618551,Experimento Piloto1,001,133,
0.25,Stim\\02_075.jpg,Al75_30,Alegría,30,Marisol toma 2 litros de agua cada día.,Afirmación,Al75,75,,,,,0,107,107,107,,,,,,,,,1,5.31360189709,3,0.450320584334,,,,,,,,,2018_jun._13_1556,60.0375618551,Experimento Piloto1,001,133,
2.5,Stim\\05_019.jpg,En19_27,Enojo,27,Claudia informa los avances en el reporte.,Afirmación,En19,19,,,,,0,108,108,108,,,,,,,,,1,1.68054556457,3,2.39975179704,,,,,,,,,2018_jun._13_1556,60.0375618551,Experimento Piloto1,001,133,
2.5,Stim\\05_075.jpg,En75_18,Enojo,18,Sofía escucha la música.,Afirmación,En75,75,,,,,0,109,109,109,,,,,,,,,1,10.205146753,2,1.71663049085,,,,,,,,,2018_jun._13_1556,60.0375618551,Experimento Piloto1,001,133,
2.5,Stim\\02_028.jpg,Al28_23,Alegría,23,Óscar consigue un nuevo departamento.,Afirmación,Al28,28,,,,,0,110,110,110,,,,,,,,,1,7.28178488363,3,0.750249006206,,,,,,,,,2018_jun._13_1556,60.0375618551,Experimento Piloto1,001,133,
2.5,Stim\\05_078.jpg,En78_29,Enojo,29,Miriam mira la película.,Afirmación,En78,78,,,,,0,111,111,111,,,,,,,,,1,3.79043271745,2,0.700236243523,,,,,,,,,2018_jun._13_1556,60.0375618551,Experimento Piloto1,001,133,
0.25,Stim\\03_078.jpg,Tr78_20,Tristeza,20,Karen analiza la idea.,Afirmación,Tr78,78,,,,,0,112,112,112,,,,,,,,,1,1.79305219134,4,2.39968619863,,,,,,,,,2018_jun._13_1556,60.0375618551,Experimento Piloto1,001,133,
0.25,Stim\\02_019.jpg,Al19_25,Alegría,25,Luis decide la comida siguiente.,Afirmación,Al19,19,,,,,0,113,113,113,,,,,,,,,1,4.45035806914,2,2.34977830415,,,,,,,,,2018_jun._13_1556,60.0375618551,Experimento Piloto1,001,133,
2.5,Stim\\03_078.jpg,Tr78_16,Tristeza,16,Valeria modifica algunas imágenes.,Afirmación,Tr78,78,,,,,0,114,114,114,,,,,,,,,1,1.21807142462,3,2.0332717809,,,,,,,,,2018_jun._13_1556,60.0375618551,Experimento Piloto1,001,133,
0.25,Stim\\02_028.jpg,Al28_21,Alegría,21,Mauro anuncia la actividad.,Afirmación,Al28,28,,,,,0,115,115,115,,,,,,,,,1,2.67260012459,2,0.633656981902,,,,,,,,,2018_jun._13_1556,60.0375618551,Experimento Piloto1,001,133,
2.5,Stim\\05_019.jpg,En19_30,Enojo,30,Marisol toma 2 litros de agua cada día.,Afirmación,En19,19,,,,,0,116,116,116,,,,,,,,,1,2.36479766238,2,2.48309390658,,,,,,,,,2018_jun._13_1556,60.0375618551,Experimento Piloto1,001,133,
0.25,Stim\\05_078.jpg,En78_26,Enojo,26,Víctor trae el café a Marco.,Afirmación,En78,78,,,,,0,117,117,117,,,,,,,,,1,2.47145755203,2,1.51629161036,,,,,,,,,2018_jun._13_1556,60.0375618551,Experimento Piloto1,001,133,
0.25,Stim\\02_078.jpg,Al78_21,Alegría,21,Mauro anuncia la actividad.,Afirmación,Al78,78,,,,,0,118,118,118,,,,,,,,,1,5.8884215684,2,1.31668680731,,,,,,,,,2018_jun._13_1556,60.0375618551,Experimento Piloto1,001,133,
0.25,Stim\\03_075.jpg,Tr75_30,Tristeza,30,Marisol toma 2 litros de agua cada día.,Afirmación,Tr75,75,,,,,0,119,119,119,,,,,,,,,1,5.41441460337,3,0.650129322578,,,,,,,,,2018_jun._13_1556,60.0375618551,Experimento Piloto1,001,133,
2.5,Stim\\03_019.jpg,Tr19_16,Tristeza,16,Valeria modifica algunas imágenes.,Afirmación,Tr19,19,,,,,,,,,0,0,0,0,,,,,,,,,1,4.08466434142,2,0.900359140134,,,,,2018_jun._13_1556,60.0375618551,Experimento Piloto1,001,133,
2.5,Stim\\05_078.jpg,En78_19,Enojo,19,Armando acompaña a Rodrígo a la tienda.,Afirmación,En78,78,,,,,,,,,0,1,1,1,,,,,,,,,1,3.94692731696,2,2.03316512771,,,,,2018_jun._13_1556,60.0375618551,Experimento Piloto1,001,133,
2.5,Stim\\02_075.jpg,Al75_21,Alegría,21,Mauro anuncia la actividad.,Afirmación,Al75,75,,,,,,,,,0,2,2,2,,,,,,,,,1,0.922271240051,2,2.08322519264,,,,,2018_jun._13_1556,60.0375618551,Experimento Piloto1,001,133,
0.25,Stim\\02_075.jpg,Al75_16,Alegría,16,Valeria modifica algunas imágenes.,Afirmación,Al75,75,,,,,,,,,0,3,3,3,,,,,,,,,1,1.43583493834,2,0.333708478885,,,,,2018_jun._13_1556,60.0375618551,Experimento Piloto1,001,133,
0.25,Stim\\05_078.jpg,En78_30,Enojo,30,Marisol toma 2 litros de agua cada día.,Afirmación,En78,78,,,,,,,,,0,4,4,4,,,,,,,,,1,1.1661397969,2,0.600165200892,,,,,2018_jun._13_1556,60.0375618551,Experimento Piloto1,001,133,
0.25,Stim\\02_019.jpg,Al19_22,Alegría,22,Enrique corre todas las mañanas.,Afirmación,Al19,19,,,,,,,,,0,5,5,5,,,,,,,,,1,1.07017958792,3,0.283561841896,,,,,2018_jun._13_1556,60.0375618551,Experimento Piloto1,001,133,
2.5,Stim\\05_028.jpg,En28_23,Enojo,23,Óscar consigue un nuevo departamento.,Afirmación,En28,28,,,,,,,,,0,6,6,6,,,,,,,,,1,4.14855674575,2,1.68336584991,,,,,2018_jun._13_1556,60.0375618551,Experimento Piloto1,001,133,
0.25,Stim\\03_019.jpg,Tr19_16,Tristeza,16,Valeria modifica algunas imágenes.,Afirmación,Tr19,19,,,,,,,,,0,7,7,7,,,,,,,,,1,1.16841298259,2,1.16675070998,,,,,2018_jun._13_1556,60.0375618551,Experimento Piloto1,001,133,
0.25,Stim\\02_078.jpg,Al78_17,Alegría,17,Brenda sube el autobús en las mañanas.,Afirmación,Al78,78,,,,,,,,,0,8,8,8,,,,,,,,,1,1.68045363754,3,1.61652374841,,,,,2018_jun._13_1556,60.0375618551,Experimento Piloto1,001,133,
0.25,Stim\\02_078.jpg,Al78_16,Alegría,16,Valeria modifica algunas imágenes.,Afirmación,Al78,78,,,,,,,,,0,9,9,9,,,,,,,,,1,0.918519635791,2,1.0001253956,,,,,2018_jun._13_1556,60.0375618551,Experimento Piloto1,001,133,
0.25,Stim\\05_075.jpg,En75_22,Enojo,22,Enrique corre todas las mañanas.,Afirmación,En75,75,,,,,,,,,0,10,10,10,,,,,,,,,1,1.07008364467,3,0.966899578207,,,,,2018_jun._13_1556,60.0375618551,Experimento Piloto1,001,133,
0.25,Stim\\02_028.jpg,Al28_26,Alegría,26,Víctor trae el café a Marco.,Afirmación,Al28,28,,,,,,,,,0,11,11,11,,,,,,,,,1,3.57138802664,2,0.650397517435,,,,,2018_jun._13_1556,60.0375618551,Experimento Piloto1,001,133,
2.5,Stim\\03_075.jpg,Tr75_28,Tristeza,28,Antonio responde la pregunta.,Afirmación,Tr75,75,,,,,,,,,0,12,12,12,,,,,,,,,1,2.52131278928,2,3.98251646208,,,,,2018_jun._13_1556,60.0375618551,Experimento Piloto1,001,133,
0.25,Stim\\05_075.jpg,En75_23,Enojo,23,Óscar consigue un nuevo departamento.,Afirmación,En75,75,,,,,,,,,0,13,13,13,,,,,,,,,1,1.68363627601,2,0.483703034663,,,,,2018_jun._13_1556,60.0375618551,Experimento Piloto1,001,133,
2.5,Stim\\02_078.jpg,Al78_28,Alegría,28,Antonio responde la pregunta.,Afirmación,Al78,78,,,,,,,,,0,14,14,14,,,,,,,,,1,2.4712513856,3,4.99897630782,,,,,2018_jun._13_1556,60.0375618551,Experimento Piloto1,001,133,
2.5,Stim\\02_028.jpg,Al28_18,Alegría,18,Sofía escucha la música.,Afirmación,Al28,28,,,,,,,,,0,15,15,15,,,,,,,,,1,1.09080961824,3,1.26637862866,,,,,2018_jun._13_1556,60.0375618551,Experimento Piloto1,001,133,
2.5,Stim\\02_019.jpg,Al19_22,Alegría,22,Enrique corre todas las mañanas.,Afirmación,Al19,19,,,,,,,,,0,16,16,16,,,,,,,,,1,2.13299742783,3,1.21667734686,,,,,2018_jun._13_1556,60.0375618551,Experimento Piloto1,001,133,
2.5,Stim\\05_028.jpg,En28_28,Enojo,28,Antonio responde la pregunta.,Afirmación,En28,28,,,,,,,,,0,17,17,17,,,,,,,,,1,1.18807376296,2,4.64909893668,,,,,2018_jun._13_1556,60.0375618551,Experimento Piloto1,001,133,
0.25,Stim\\03_078.jpg,Tr78_30,Tristeza,30,Marisol toma 2 litros de agua cada día.,Afirmación,Tr78,78,,,,,,,,,0,18,18,18,,,,,,,,,1,2.34819590987,3,4.84890588993,,,,,2018_jun._13_1556,60.0375618551,Experimento Piloto1,001,133,
0.25,Stim\\03_019.jpg,Tr19_20,Tristeza,20,Karen analiza la idea.,Afirmación,Tr19,19,,,,,,,,,0,19,19,19,,,,,,,,,1,2.80789974421,2,0.700213038643,,,,,2018_jun._13_1556,60.0375618551,Experimento Piloto1,001,133,
0.25,Stim\\05_028.jpg,En28_19,Enojo,19,Armando acompaña a Rodrígo a la tienda.,Afirmación,En28,28,,,,,,,,,0,20,20,20,,,,,,,,,1,1.18275895307,2,0.383837265966,,,,,2018_jun._13_1556,60.0375618551,Experimento Piloto1,001,133,
0.25,Stim\\05_019.jpg,En19_26,Enojo,26,Víctor trae el café a Marco.,Afirmación,En19,19,,,,,,,,,0,21,21,21,,,,,,,,,1,1.12239815289,2,0.350443213198,,,,,2018_jun._13_1556,60.0375618551,Experimento Piloto1,001,133,
0.25,Stim\\02_028.jpg,Al28_16,Alegría,16,Valeria modifica algunas imágenes.,Afirmación,Al28,28,,,,,,,,,0,22,22,22,,,,,,,,,1,1.118045453,2,0.433722401812,,,,,2018_jun._13_1556,60.0375618551,Experimento Piloto1,001,133,
2.5,Stim\\02_075.jpg,Al75_17,Alegría,17,Brenda sube el autobús en las mañanas.,Afirmación,Al75,75,,,,,,,,,0,23,23,23,,,,,,,,,1,2.04886010492,3,1.16674803249,,,,,2018_jun._13_1556,60.0375618551,Experimento Piloto1,001,133,
2.5,Stim\\05_075.jpg,En75_30,Enojo,30,Marisol toma 2 litros de agua cada día.,Afirmación,En75,75,,,,,,,,,0,24,24,24,,,,,,,,,1,2.44916703408,3,0.550332276024,,,,,2018_jun._13_1556,60.0375618551,Experimento Piloto1,001,133,
2.5,Stim\\03_075.jpg,Tr75_27,Tristeza,27,Claudia informa los avances en el reporte.,Afirmación,Tr75,75,,,,,,,,,0,25,25,25,,,,,,,,,1,2.34663716672,4,4.64913419025,,,,,2018_jun._13_1556,60.0375618551,Experimento Piloto1,001,133,
2.5,Stim\\03_028.jpg,Tr28_24,Tristeza,24,Guadalupe comenta los resultados con los compañeros.,Afirmación,Tr28,28,,,,,,,,,0,26,26,26,,,,,,,,,1,7.07202973081,3,3.98252806452,,,,,2018_jun._13_1556,60.0375618551,Experimento Piloto1,001,133,
0.25,Stim\\05_028.jpg,En28_24,Enojo,24,Guadalupe comenta los resultados con los compañeros.,Afirmación,En28,28,,,,,,,,,0,27,27,27,,,,,,,,,1,2.24981837719,2,0.966652803239,,,,,2018_jun._13_1556,60.0375618551,Experimento Piloto1,001,133,
0.25,Stim\\03_028.jpg,Tr28_17,Tristeza,17,Brenda sube el autobús en las mañanas.,Afirmación,Tr28,28,,,,,,,,,0,28,28,28,,,,,,,,,1,1.16574085148,3,0.650132892559,,,,,2018_jun._13_1556,60.0375618551,Experimento Piloto1,001,133,
0.25,Stim\\02_028.jpg,Al28_28,Alegría,28,Antonio responde la pregunta.,Afirmación,Al28,28,,,,,,,,,0,29,29,29,,,,,,,,,1,0.921675053148,2,1.10007282762,,,,,2018_jun._13_1556,60.0375618551,Experimento Piloto1,001,133,
2.5,Stim\\02_028.jpg,Al28_24,Alegría,24,Guadalupe comenta los resultados con los compañeros.,Afirmación,Al28,28,,,,,,,,,0,30,30,30,,,,,,,,,1,1.17224446519,2,1.05008460856,,,,,2018_jun._13_1556,60.0375618551,Experimento Piloto1,001,133,
0.25,Stim\\02_078.jpg,Al78_29,Alegría,29,Miriam mira la película.,Afirmación,Al78,78,,,,,,,,,0,31,31,31,,,,,,,,,1,3.84047359374,3,1.36676382966,,,,,2018_jun._13_1556,60.0375618551,Experimento Piloto1,001,133,
0.25,Stim\\05_078.jpg,En78_19,Enojo,19,Armando acompaña a Rodrígo a la tienda.,Afirmación,En78,78,,,,,,,,,0,32,32,32,,,,,,,,,1,2.56345329661,2,0.53363815025,,,,,2018_jun._13_1556,60.0375618551,Experimento Piloto1,001,133,
0.25,Stim\\03_019.jpg,Tr19_21,Tristeza,21,Mauro anuncia la actividad.,Afirmación,Tr19,19,,,,,,,,,0,33,33,33,,,,,,,,,1,2.40558559298,2,1.93323866932,,,,,2018_jun._13_1556,60.0375618551,Experimento Piloto1,001,133,
0.25,Stim\\02_028.jpg,Al28_25,Alegría,25,Luis decide la comida siguiente.,Afirmación,Al28,28,,,,,,,,,0,34,34,34,,,,,,,,,1,2.35078280768,2,1.01685522119,,,,,2018_jun._13_1556,60.0375618551,Experimento Piloto1,001,133,
2.5,Stim\\03_078.jpg,Tr78_26,Tristeza,26,Víctor trae el café a Marco.,Afirmación,Tr78,78,,,,,,,,,0,35,35,35,,,,,,,,,1,2.10496861094,4,0.65006550916,,,,,2018_jun._13_1556,60.0375618551,Experimento Piloto1,001,133,
2.5,Stim\\05_078.jpg,En78_20,Enojo,20,Karen analiza la idea.,Afirmación,En78,78,,,,,,,,,0,36,36,36,,,,,,,,,1,3.12572983808,2,0.85024641797,,,,,2018_jun._13_1556,60.0375618551,Experimento Piloto1,001,133,
2.5,Stim\\02_078.jpg,Al78_23,Alegría,23,Óscar consigue un nuevo departamento.,Afirmación,Al78,78,,,,,,,,,0,37,37,37,,,,,,,,,1,1.47816465468,2,0.700295148217,,,,,2018_jun._13_1556,60.0375618551,Experimento Piloto1,001,133,
0.25,Stim\\03_078.jpg,Tr78_21,Tristeza,21,Mauro anuncia la actividad.,Afirmación,Tr78,78,,,,,,,,,0,38,38,38,,,,,,,,,1,1.02302771912,3,4.13238740725,,,,,2018_jun._13_1556,60.0375618551,Experimento Piloto1,001,133,
2.5,Stim\\03_075.jpg,Tr75_18,Tristeza,18,Sofía escucha la música.,Afirmación,Tr75,75,,,,,,,,,0,39,39,39,,,,,,,,,1,1.58874616896,4,0.966958929148,,,,,2018_jun._13_1556,60.0375618551,Experimento Piloto1,001,133,
2.5,Stim\\03_019.jpg,Tr19_19,Tristeza,19,Armando acompaña a Rodrígo a la tienda.,Afirmación,Tr19,19,,,,,,,,,0,40,40,40,,,,,,,,,1,1.6821069852,2,3.68265229987,,,,,2018_jun._13_1556,60.0375618551,Experimento Piloto1,001,133,
0.25,Stim\\03_019.jpg,Tr19_17,Tristeza,17,Brenda sube el autobús en las mañanas.,Afirmación,Tr19,19,,,,,,,,,0,41,41,41,,,,,,,,,1,1.31577735454,2,0.800107367192,,,,,2018_jun._13_1556,60.0375618551,Experimento Piloto1,001,133,
2.5,Stim\\05_078.jpg,En78_18,Enojo,18,Sofía escucha la música.,Afirmación,En78,78,,,,,,,,,0,42,42,42,,,,,,,,,1,1.48991435614,3,1.36674508726,,,,,2018_jun._13_1556,60.0375618551,Experimento Piloto1,001,133,
0.25,Stim\\05_019.jpg,En19_24,Enojo,24,Guadalupe comenta los resultados con los compañeros.,Afirmación,En19,19,,,,,,,,,0,43,43,43,,,,,,,,,1,2.14061710699,2,1.86669823125,,,,,2018_jun._13_1556,60.0375618551,Experimento Piloto1,001,133,
0.25,Stim\\02_075.jpg,Al75_20,Alegría,20,Karen analiza la idea.,Afirmación,Al75,75,,,,,,,,,0,44,44,44,,,,,,,,,1,1.07575902268,2,0.500377971786,,,,,2018_jun._13_1556,60.0375618551,Experimento Piloto1,001,133,
0.25,Stim\\03_075.jpg,Tr75_23,Tristeza,23,Óscar consigue un nuevo departamento.,Afirmación,Tr75,75,,,,,,,,,0,45,45,45,,,,,,,,,1,1.26620994704,2,0.766589257569,,,,,2018_jun._13_1556,60.0375618551,Experimento Piloto1,001,133,
0.25,Stim\\05_078.jpg,En78_16,Enojo,16,Valeria modifica algunas imágenes.,Afirmación,En78,78,,,,,,,,,0,46,46,46,,,,,,,,,1,1.21759795583,2,0.433668405843,,,,,2018_jun._13_1556,60.0375618551,Experimento Piloto1,001,133,
2.5,Stim\\02_019.jpg,Al19_20,Alegría,20,Karen analiza la idea.,Afirmación,Al19,19,,,,,,,,,0,47,47,47,,,,,,,,,1,0.875812393905,2,3.11608821067,,,,,2018_jun._13_1556,60.0375618551,Experimento Piloto1,001,133,
0.25,Stim\\03_075.jpg,Tr75_28,Tristeza,28,Antonio responde la pregunta.,Afirmación,Tr75,75,,,,,,,,,0,48,48,48,,,,,,,,,1,1.37015531204,4,0.350289257748,,,,,2018_jun._13_1556,60.0375618551,Experimento Piloto1,001,133,
0.25,Stim\\05_078.jpg,En78_25,Enojo,25,Luis decide la comida siguiente.,Afirmación,En78,78,,,,,,,,,0,49,49,49,,,,,,,,,1,1.78600504795,3,1.00037574055,,,,,2018_jun._13_1556,60.0375618551,Experimento Piloto1,001,133,
2.5,Stim\\03_019.jpg,Tr19_23,Tristeza,23,Óscar consigue un nuevo departamento.,Afirmación,Tr19,19,,,,,,,,,0,50,50,50,,,,,,,,,1,1.74832835618,2,1.88324598779,,,,,2018_jun._13_1556,60.0375618551,Experimento Piloto1,001,133,
2.5,Stim\\03_075.jpg,Tr75_24,Tristeza,24,Guadalupe comenta los resultados con los compañeros.,Afirmación,Tr75,75,,,,,,,,,0,51,51,51,,,,,,,,,1,1.62439109504,2,2.03321153747,,,,,2018_jun._13_1556,60.0375618551,Experimento Piloto1,001,133,
0.25,Stim\\02_078.jpg,Al78_20,Alegría,20,Karen analiza la idea.,Afirmación,Al78,78,,,,,,,,,0,52,52,52,,,,,,,,,1,3.93848252583,2,1.21668582557,,,,,2018_jun._13_1556,60.0375618551,Experimento Piloto1,001,133,
2.5,Stim\\02_078.jpg,Al78_30,Alegría,30,Marisol toma 2 litros de agua cada día.,Afirmación,Al78,78,,,,,,,,,0,53,53,53,,,,,,,,,1,1.28160727705,3,0.28371892108,,,,,2018_jun._13_1556,60.0375618551,Experimento Piloto1,001,133,
2.5,Stim\\03_028.jpg,Tr28_27,Tristeza,27,Claudia informa los avances en el reporte.,Afirmación,Tr28,28,,,,,,,,,0,54,54,54,,,,,,,,,1,1.06146303195,3,3.11616496527,,,,,2018_jun._13_1556,60.0375618551,Experimento Piloto1,001,133,
2.5,Stim\\02_075.jpg,Al75_28,Alegría,28,Antonio responde la pregunta.,Afirmación,Al75,75,,,,,,,,,0,55,55,55,,,,,,,,,1,1.33808527615,2,4.48247228356,,,,,2018_jun._13_1556,60.0375618551,Experimento Piloto1,001,133,
2.5,Stim\\03_078.jpg,Tr78_28,Tristeza,28,Antonio responde la pregunta.,Afirmación,Tr78,78,,,,,,,,,0,56,56,56,,,,,,,,,1,1.61665762271,4,2.7995571438,,,,,2018_jun._13_1556,60.0375618551,Experimento Piloto1,001,133,
0.25,Stim\\03_028.jpg,Tr28_19,Tristeza,19,Armando acompaña a Rodrígo a la tienda.,Afirmación,Tr28,28,,,,,,,,,0,57,57,57,,,,,,,,,1,1.5162460931,4,2.39990039752,,,,,2018_jun._13_1556,60.0375618551,Experimento Piloto1,001,133,
2.5,Stim\\05_078.jpg,En78_21,Enojo,21,Mauro anuncia la actividad.,Afirmación,En78,78,,,,,,,,,0,58,58,58,,,,,,,,,1,2.6216448868,2,0.533568089364,,,,,2018_jun._13_1556,60.0375618551,Experimento Piloto1,001,133,
0.25,Stim\\05_028.jpg,En28_17,Enojo,17,Brenda sube el autobús en las mañanas.,Afirmación,En28,28,,,,,,,,,0,59,59,59,,,,,,,,,1,1.11624707485,2,0.400397517435,,,,,2018_jun._13_1556,60.0375618551,Experimento Piloto1,001,133,
0.25,Stim\\03_075.jpg,Tr75_20,Tristeza,20,Karen analiza la idea.,Afirmación,Tr75,75,,,,,,,,,0,60,60,60,,,,,,,,,1,0.925860856403,4,1.05021089665,,,,,2018_jun._13_1556,60.0375618551,Experimento Piloto1,001,133,
2.5,Stim\\03_078.jpg,Tr78_21,Tristeza,21,Mauro anuncia la actividad.,Afirmación,Tr78,78,,,,,,,,,0,61,61,61,,,,,,,,,1,1.14005081869,3,2.13310720476,,,,,2018_jun._13_1556,60.0375618551,Experimento Piloto1,001,133,
0.25,Stim\\05_075.jpg,En75_17,Enojo,17,Brenda sube el autobús en las mañanas.,Afirmación,En75,75,,,,,,,,,0,62,62,62,,,,,,,,,1,1.36593113149,3,0.550549152397,,,,,2018_jun._13_1556,60.0375618551,Experimento Piloto1,001,133,
0.25,Stim\\03_019.jpg,Tr19_26,Tristeza,26,Víctor trae el café a Marco.,Afirmación,Tr19,19,,,,,,,,,0,63,63,63,,,,,,,,,1,1.32251123205,2,3.3826957644,,,,,2018_jun._13_1556,60.0375618551,Experimento Piloto1,001,133,
0.25,Stim\\05_019.jpg,En19_30,Enojo,30,Marisol toma 2 litros de agua cada día.,Afirmación,En19,19,,,,,,,,,0,64,64,64,,,,,,,,,1,1.16515626701,2,1.10018617453,,,,,2018_jun._13_1556,60.0375618551,Experimento Piloto1,001,133,
0.25,Stim\\02_019.jpg,Al19_27,Alegría,27,Claudia informa los avances en el reporte.,Afirmación,Al19,19,,,,,,,,,0,65,65,65,,,,,,,,,1,1.16379387284,2,2.9162071803,,,,,2018_jun._13_1556,60.0375618551,Experimento Piloto1,001,133,
0.25,Stim\\05_028.jpg,En28_23,Enojo,23,Óscar consigue un nuevo departamento.,Afirmación,En28,28,,,,,,,,,0,66,66,66,,,,,,,,,1,2.74938239321,2,3.68269201592,,,,,2018_jun._13_1556,60.0375618551,Experimento Piloto1,001,133,
0.25,Stim\\05_019.jpg,En19_18,Enojo,18,Sofía escucha la música.,Afirmación,En19,19,,,,,,,,,0,67,67,67,,,,,,,,,1,1.12252801097,2,0.550221606599,,,,,2018_jun._13_1556,60.0375618551,Experimento Piloto1,001,133,
0.25,Stim\\05_075.jpg,En75_25,Enojo,25,Luis decide la comida siguiente.,Afirmación,En75,75,,,,,,,,,0,68,68,68,,,,,,,,,1,0.951477258326,3,0.966822823605,,,,,2018_jun._13_1556,60.0375618551,Experimento Piloto1,001,133,
0.25,Stim\\03_078.jpg,Tr78_16,Tristeza,16,Valeria modifica algunas imágenes.,Afirmación,Tr78,78,,,,,,,,,0,69,69,69,,,,,,,,,1,1.73501991157,2,2.23319743604,,,,,2018_jun._13_1556,60.0375618551,Experimento Piloto1,001,133,
0.25,Stim\\05_019.jpg,En19_27,Enojo,27,Claudia informa los avances en el reporte.,Afirmación,En19,19,,,,,,,,,0,70,70,70,,,,,,,,,1,1.83005103288,3,5.51545444971,,,,,2018_jun._13_1556,60.0375618551,Experimento Piloto1,001,133,
0.25,Stim\\05_075.jpg,En75_30,Enojo,30,Marisol toma 2 litros de agua cada día.,Afirmación,En75,75,,,,,,,,,0,71,71,71,,,,,,,,,1,1.48190599525,3,1.93333773631,,,,,2018_jun._13_1556,60.0375618551,Experimento Piloto1,001,133,
2.5,Stim\\02_028.jpg,Al28_16,Alegría,16,Valeria modifica algunas imágenes.,Afirmación,Al28,28,,,,,,,,,0,72,72,72,,,,,,,,,1,3.72931731245,2,1.78319458005,,,,,2018_jun._13_1556,60.0375618551,Experimento Piloto1,001,133,
0.25,Stim\\05_075.jpg,En75_29,Enojo,29,Miriam mira la película.,Afirmación,En75,75,,,,,,,,,0,73,73,73,,,,,,,,,1,2.35597891569,2,1.36677096963,,,,,2018_jun._13_1556,60.0375618551,Experimento Piloto1,001,133,
2.5,Stim\\02_028.jpg,Al28_28,Alegría,28,Antonio responde la pregunta.,Afirmación,Al28,28,,,,,,,,,0,74,74,74,,,,,,,,,1,1.53837506939,2,3.56606250681,,,,,2018_jun._13_1556,60.0375618551,Experimento Piloto1,001,133,
2.5,Stim\\03_019.jpg,Tr19_28,Tristeza,28,Antonio responde la pregunta.,Afirmación,Tr19,19,,,,,,,,,0,75,75,75,,,,,,,,,1,1.14996599593,3,1.19992387015,,,,,2018_jun._13_1556,60.0375618551,Experimento Piloto1,001,133,
0.25,Stim\\02_028.jpg,Tr28_30,Tristeza,30,Marisol toma 2 litros de agua cada día.,Afirmación,Tr28,28,,,,,,,,,0,76,76,76,,,,,,,,,1,3.77786816773,2,2.39971565098,,,,,2018_jun._13_1556,60.0375618551,Experimento Piloto1,001,133,
2.5,Stim\\02_075.jpg,Al75_27,Alegría,27,Claudia informa los avances en el reporte.,Afirmación,Al75,75,,,,,,,,,0,77,77,77,,,,,,,,,1,1.68120913487,3,1.01673473431,,,,,2018_jun._13_1556,60.0375618551,Experimento Piloto1,001,133,
2.5,Stim\\02_075.jpg,Al75_20,Alegría,20,Karen analiza la idea.,Afirmación,Al75,75,,,,,,,,,0,78,78,78,,,,,,,,,1,2.92494024744,3,8.84780098067,,,,,2018_jun._13_1556,60.0375618551,Experimento Piloto1,001,133,
2.5,Stim\\05_019.jpg,En19_28,Enojo,28,Antonio responde la pregunta.,Afirmación,En19,19,,,,,,,,,0,79,79,79,,,,,,,,,1,3.13841755217,2,0.700192957498,,,,,2018_jun._13_1556,60.0375618551,Experimento Piloto1,001,133,
2.5,Stim\\02_078.jpg,Al78_21,Alegría,21,Mauro anuncia la actividad.,Afirmación,Al78,78,,,,,,,,,0,80,80,80,,,,,,,,,1,1.32274506584,3,3.01600199562,,,,,2018_jun._13_1556,60.0375618551,Experimento Piloto1,001,133,
2.5,Stim\\03_078.jpg,Tr78_19,Tristeza,19,Armando acompaña a Rodrígo a la tienda.,Afirmación,Tr78,78,,,,,,,,,0,81,81,81,,,,,,,,,1,1.28087810834,4,0.483697233443,,,,,2018_jun._13_1556,60.0375618551,Experimento Piloto1,001,133,
2.5,Stim\\05_075.jpg,En75_22,Enojo,22,Enrique corre todas las mañanas.,Afirmación,En75,75,,,,,,,,,0,82,82,82,,,,,,,,,1,1.336573389,3,0.600178588322,,,,,2018_jun._13_1556,60.0375618551,Experimento Piloto1,001,133,
0.25,Stim\\03_019.jpg,Tr19_19,Tristeza,19,Armando acompaña a Rodrígo a la tienda.,Afirmación,Tr19,19,,,,,,,,,0,83,83,83,,,,,,,,,1,1.11383733737,3,2.13306793496,,,,,2018_jun._13_1556,60.0375618551,Experimento Piloto1,001,133,
2.5,Stim\\03_019.jpg,Tr19_27,Tristeza,27,Claudia informa los avances en el reporte.,Afirmación,Tr19,19,,,,,,,,,0,84,84,84,,,,,,,,,1,1.33050932925,4,2.0832051115,,,,,2018_jun._13_1556,60.0375618551,Experimento Piloto1,001,133,
0.25,Stim\\05_078.jpg,En78_18,Enojo,18,Sofía escucha la música.,Afirmación,En78,78,,,,,,,,,0,85,85,85,,,,,,,,,1,0.874549066717,2,0.483685184755,,,,,2018_jun._13_1556,60.0375618551,Experimento Piloto1,001,133,
2.5,Stim\\05_019.jpg,En19_25,Enojo,25,Luis decide la comida siguiente.,Afirmación,En19,19,,,,,,,,,0,86,86,86,,,,,,,,,1,2.00059395566,3,2.79959685984,,,,,2018_jun._13_1556,60.0375618551,Experimento Piloto1,001,133,
0.25,Stim\\05_028.jpg,En28_16,Enojo,16,Valeria modifica algunas imágenes.,Afirmación,En28,28,,,,,,,,,0,87,87,87,,,,,,,,,1,0.967806353496,2,1.16673152133,,,,,2018_jun._13_1556,60.0375618551,Experimento Piloto1,001,133,
2.5,Stim\\02_028.jpg,Al28_22,Alegría,22,Enrique corre todas las mañanas.,Afirmación,Al28,28,,,,,,,,,0,88,88,88,,,,,,,,,1,1.27020921876,3,0.55042152556,,,,,2018_jun._13_1556,60.0375618551,Experimento Piloto1,001,133,
0.25,Stim\\03_078.jpg,Tr78_17,Tristeza,17,Brenda sube el autobús en las mañanas.,Afirmación,Tr78,78,,,,,,,,,0,89,89,89,,,,,,,,,1,1.16536511093,3,1.83331935091,,,,,2018_jun._13_1556,60.0375618551,Experimento Piloto1,001,133,
2.5,Stim\\02_028.jpg,Al28_25,Alegría,25,Luis decide la comida siguiente.,Afirmación,Al28,28,,,,,,,,,0,90,90,90,,,,,,,,,1,4.250866613,2,4.39916810507,,,,,2018_jun._13_1556,60.0375618551,Experimento Piloto1,001,133,
0.25,Stim\\03_028.jpg,Tr28_18,Tristeza,18,Sofía escucha la música.,Afirmación,Tr28,28,,,,,,,,,0,91,91,91,,,,,,,,,1,2.04072991841,3,1.8331564705,,,,,2018_jun._13_1556,60.0375618551,Experimento Piloto1,001,133,
2.5,Stim\\03_075.jpg,Tr75_26,Tristeza,26,Víctor trae el café a Marco.,Afirmación,Tr75,75,,,,,,,,,0,92,92,92,,,,,,,,,1,1.53913547544,4,0.333821379548,,,,,2018_jun._13_1556,60.0375618551,Experimento Piloto1,001,133,
0.25,Stim\\02_019.jpg,Al19_19,Alegría,19,Armando acompaña a Rodrígo a la tienda.,Afirmación,Al19,19,,,,,,,,,0,93,93,93,,,,,,,,,1,2.86499490385,2,0.850127716087,,,,,2018_jun._13_1556,60.0375618551,Experimento Piloto1,001,133,
0.25,Stim\\02_028.jpg,Al28_24,Alegría,24,Guadalupe comenta los resultados con los compañeros.,Afirmación,Al28,28,,,,,,,,,0,94,94,94,,,,,,,,,1,2.39013694449,2,1.06683183781,,,,,2018_jun._13_1556,60.0375618551,Experimento Piloto1,001,133,
0.25,Stim\\05_078.jpg,En78_20,Enojo,20,Karen analiza la idea.,Afirmación,En78,78,,,,,,,,,0,95,95,95,,,,,,,,,1,2.04273535549,3,14.9625946268,,,,,2018_jun._13_1556,60.0375618551,Experimento Piloto1,001,133,
2.5,Stim\\02_019.jpg,Al19_17,Alegría,17,Brenda sube el autobús en las mañanas.,Afirmación,Al19,19,,,,,,,,,0,96,96,96,,,,,,,,,1,1.21624671785,3,0.650175732337,,,,,2018_jun._13_1556,60.0375618551,Experimento Piloto1,001,133,
0.25,Stim\\03_019.jpg,Tr19_18,Tristeza,18,Sofía escucha la música.,Afirmación,Tr19,19,,,,,,,,,0,97,97,97,,,,,,,,,1,4.82163078538,2,1.76666601217,,,,,2018_jun._13_1556,60.0375618551,Experimento Piloto1,001,133,
0.25,Stim\\02_075.jpg,Al75_26,Alegría,26,Víctor trae el café a Marco.,Afirmación,Al75,75,,,,,,,,,0,98,98,98,,,,,,,,,1,1.63852375912,2,0.550278726302,,,,,2018_jun._13_1556,60.0375618551,Experimento Piloto1,001,133,
2.5,Stim\\02_075.jpg,Al75_18,Alegría,18,Sofía escucha la música.,Afirmación,Al75,75,,,,,,,,,0,99,99,99,,,,,,,,,1,0.57445419446,2,1.31657078291,,,,,2018_jun._13_1556,60.0375618551,Experimento Piloto1,001,133,
2.5,Stim\\05_019.jpg,En19_24,Enojo,24,Guadalupe comenta los resultados con los compañeros.,Afirmación,En19,19,,,,,,,,,0,100,100,100,,,,,,,,,1,2.59086272172,2,2.1332058255,,,,,2018_jun._13_1556,60.0375618551,Experimento Piloto1,001,133,
2.5,Stim\\03_019.jpg,Tr19_30,Tristeza,30,Marisol toma 2 litros de agua cada día.,Afirmación,Tr19,19,,,,,,,,,0,101,101,101,,,,,,,,,1,0.0987836180689,2,1.53304687207,,,,,2018_jun._13_1556,60.0375618551,Experimento Piloto1,001,133,
2.5,Stim\\05_075.jpg,En75_17,Enojo,17,Brenda sube el autobús en las mañanas.,Afirmación,En75,75,,,,,,,,,0,102,102,102,,,,,,,,,1,1.06587463653,2,0.50037931053,,,,,2018_jun._13_1556,60.0375618551,Experimento Piloto1,001,133,
0.25,Stim\\02_019.jpg,Al19_29,Alegría,29,Miriam mira la película.,Afirmación,Al19,19,,,,,,,,,0,103,103,103,,,,,,,,,1,1.17184418102,3,6.13183718386,,,,,2018_jun._13_1556,60.0375618551,Experimento Piloto1,001,133,
0.25,Stim\\05_078.jpg,En78_22,Enojo,22,Enrique corre todas las mañanas.,Afirmación,En78,78,,,,,,,,,0,104,104,104,,,,,,,,,1,1.12012942968,3,0.950210361157,,,,,2018_jun._13_1556,60.0375618551,Experimento Piloto1,001,133,
0.25,Stim\\03_028.jpg,Tr28_21,Tristeza,21,Mauro anuncia la actividad.,Afirmación,Tr28,28,,,,,,,,,0,105,105,105,,,,,,,,,1,0.822968635928,3,2.69967620268,,,,,2018_jun._13_1556,60.0375618551,Experimento Piloto1,001,133,
2.5,Stim\\05_028.jpg,En28_19,Enojo,19,Armando acompaña a Rodrígo a la tienda.,Afirmación,En28,28,,,,,,,,,0,106,106,106,,,,,,,,,1,1.83187440091,2,1.31667877485,,,,,2018_jun._13_1556,60.0375618551,Experimento Piloto1,001,133,
2.5,Stim\\03_019.jpg,Tr19_29,Tristeza,29,Miriam mira la película.,Afirmación,Tr19,19,,,,,,,,,0,107,107,107,,,,,,,,,1,1.34125006471,2,1.46659523729,,,,,2018_jun._13_1556,60.0375618551,Experimento Piloto1,001,133,
2.5,Stim\\05_078.jpg,En78_17,Enojo,17,Brenda sube el autobús en las mañanas.,Afirmación,En78,78,,,,,,,,,0,108,108,108,,,,,,,,,1,0.966512681467,2,4.09920309089,,,,,2018_jun._13_1556,60.0375618551,Experimento Piloto1,001,133,
2.5,Stim\\02_028.jpg,Al28_21,Alegría,21,Mauro anuncia la actividad.,Afirmación,Al28,28,,,,,,,,,0,109,109,109,,,,,,,,,1,1.59027099729,3,1.66675427996,,,,,2018_jun._13_1556,60.0375618551,Experimento Piloto1,001,133,
0.25,Stim\\02_075.jpg,Al75_27,Alegría,27,Claudia informa los avances en el reporte.,Afirmación,Al75,75,,,,,,,,,0,110,110,110,,,,,,,,,1,1.06372416895,3,6.69842269294,,,,,2018_jun._13_1556,60.0375618551,Experimento Piloto1,001,133,
0.25,Stim\\02_019.jpg,Al19_28,Alegría,28,Antonio responde la pregunta.,Afirmación,Al19,19,,,,,,,,,0,111,111,111,,,,,,,,,1,2.05440160863,2,1.41685602443,,,,,2018_jun._13_1556,60.0375618551,Experimento Piloto1,001,133,
2.5,Stim\\05_019.jpg,En19_20,Enojo,20,Karen analiza la idea.,Afirmación,En19,19,,,,,,,,,0,112,112,112,,,,,,,,,1,1.175793473,2,2.19946914376,,,,,2018_jun._13_1556,60.0375618551,Experimento Piloto1,001,133,
2.5,Stim\\03_078.jpg,Tr78_22,Tristeza,22,Enrique corre todas las mañanas.,Afirmación,Tr78,78,,,,,,,,,0,113,113,113,,,,,,,,,1,1.41989095492,2,2.91664851926,,,,,2018_jun._13_1556,60.0375618551,Experimento Piloto1,001,133,
2.5,Stim\\05_028.jpg,En28_18,Enojo,18,Sofía escucha la música.,Afirmación,En28,28,,,,,,,,,0,114,114,114,,,,,,,,,1,1.8414156226,2,0.600296843957,,,,,2018_jun._13_1556,60.0375618551,Experimento Piloto1,001,133,
0.25,Stim\\03_075.jpg,Tr75_29,Tristeza,29,Miriam mira la película.,Afirmación,Tr75,75,,,,,,,,,0,115,115,115,,,,,,,,,1,0.658996264015,4,0.766878872314,,,,,2018_jun._13_1556,60.0375618551,Experimento Piloto1,001,133,
0.25,Stim\\03_078.jpg,Tr78_24,Tristeza,24,Guadalupe comenta los resultados con los compañeros.,Afirmación,Tr78,78,,,,,,,,,0,116,116,116,,,,,,,,,1,1.05756059597,2,1.31654802428,,,,,2018_jun._13_1556,60.0375618551,Experimento Piloto1,001,133,
2.5,Stim\\05_075.jpg,En75_23,Enojo,23,Óscar consigue un nuevo departamento.,Afirmación,En75,75,,,,,,,,,0,117,117,117,,,,,,,,,1,1.01740321334,2,0.800260876395,,,,,2018_jun._13_1556,60.0375618551,Experimento Piloto1,001,133,
2.5,Stim\\03_019.jpg,Tr19_21,Tristeza,21,Mauro anuncia la actividad.,Afirmación,Tr19,19,,,,,,,,,0,118,118,118,,,,,,,,,1,0.623265212137,2,3.98210546796,,,,,2018_jun._13_1556,60.0375618551,Experimento Piloto1,001,133,
0.25,Stim\\03_078.jpg,Tr78_29,Tristeza,29,Miriam mira la película.,Afirmación,Tr78,78,,,,,,,,,0,119,119,119,,,,,,,,,1,1.00898564332,4,2.033156649,,,,,2018_jun._13_1556,60.0375618551,Experimento Piloto1,001,133,
2.5,Stim\\02_078.jpg,Al78_17,Alegría,17,Brenda sube el autobús en las mañanas.,Afirmación,Al78,78,,,,,,,,,,,,,0,0,0,0,,,,,,,,,1,2.48162709045,3,1.8831861906,2018_jun._13_1556,60.0375618551,Experimento Piloto1,001,133,
2.5,Stim\\05_019.jpg,En19_23,Enojo,23,Óscar consigue un nuevo departamento.,Afirmación,En19,19,,,,,,,,,,,,,0,1,1,1,,,,,,,,,1,1.28349311975,2,1.0001057607,2018_jun._13_1556,60.0375618551,Experimento Piloto1,001,133,
0.25,Stim\\02_075.jpg,Al75_17,Alegría,17,Brenda sube el autobús en las mañanas.,Afirmación,Al75,75,,,,,,,,,,,,,0,2,2,2,,,,,,,,,1,5.31458676572,3,4.34908349651,2018_jun._13_1556,60.0375618551,Experimento Piloto1,001,133,
2.5,Stim\\02_075.jpg,Al75_24,Alegría,24,Guadalupe comenta los resultados con los compañeros.,Afirmación,Al75,75,,,,,,,,,,,,,0,3,3,3,,,,,,,,,1,2.49015889987,3,2.60057396377,2018_jun._13_1556,60.0375618551,Experimento Piloto1,001,133,
0.25,Stim\\05_075.jpg,En75_19,Enojo,19,Armando acompaña a Rodrígo a la tienda.,Afirmación,En75,75,,,,,,,,,,,,,0,4,4,4,,,,,,,,,1,0.754524951493,2,1.46771442647,2018_jun._13_1556,60.0375618551,Experimento Piloto1,001,133,
2.5,Stim\\02_019.jpg,Al19_29,Alegría,29,Miriam mira la película.,Afirmación,Al19,19,,,,,,,,,,,,,0,5,5,5,,,,,,,,,1,1.29015872138,3,0.950119772878,2018_jun._13_1556,60.0375618551,Experimento Piloto1,001,133,
2.5,Stim\\02_078.jpg,Al78_24,Alegría,24,Guadalupe comenta los resultados con los compañeros.,Afirmación,Al78,78,,,,,,,,,,,,,0,6,6,6,,,,,,,,,1,2.60023570803,2,1.7166215659,2018_jun._13_1556,60.0375618551,Experimento Piloto1,001,133,
0.25,Stim\\05_028.jpg,En28_20,Enojo,20,Karen analiza la idea.,Afirmación,En28,28,,,,,,,,,,,,,0,7,7,7,,,,,,,,,1,4.50866479124,3,1.68323331435,2018_jun._13_1556,60.0375618551,Experimento Piloto1,001,133,
0.25,Stim\\03_078.jpg,Tr78_27,Tristeza,27,Claudia informa los avances en el reporte.,Afirmación,Tr78,78,,,,,,,,,,,,,0,8,8,8,,,,,,,,,1,1.31339974689,2,1.06692153359,2018_jun._13_1556,60.0375618551,Experimento Piloto1,001,133,
0.25,Stim\\02_019.jpg,Al19_30,Alegría,30,Marisol toma 2 litros de agua cada día.,Afirmación,Al19,19,,,,,,,,,,,,,0,9,9,9,,,,,,,,,1,1.78194419405,3,0.333721866315,2018_jun._13_1556,60.0375618551,Experimento Piloto1,001,133,
2.5,Stim\\02_019.jpg,Al19_19,Alegría,19,Armando acompaña a Rodrígo a la tienda.,Afirmación,Al19,19,,,,,,,,,,,,,0,10,10,10,,,,,,,,,1,0.81520883499,2,1.16775744475,2018_jun._13_1556,60.0375618551,Experimento Piloto1,001,133,
0.25,Stim\\02_028.jpg,Al28_30,Alegría,30,Marisol toma 2 litros de agua cada día.,Afirmación,Al28,28,,,,,,,,,,,,,0,11,11,11,,,,,,,,,1,6.86201664682,3,0.600283902775,2018_jun._13_1556,60.0375618551,Experimento Piloto1,001,133,
2.5,Stim\\02_019.jpg,Al19_16,Alegría,16,Valeria modifica algunas imágenes.,Afirmación,Al19,19,,,,,,,,,,,,,0,12,12,12,,,,,,,,,1,3.21731860478,3,0.700272389585,2018_jun._13_1556,60.0375618551,Experimento Piloto1,001,133,
2.5,Stim\\03_075.jpg,Tr75_30,Tristeza,30,Marisol toma 2 litros de agua cada día.,Afirmación,Tr75,75,,,,,,,,,,,,,0,13,13,13,,,,,,,,,1,1.01623136693,3,3.26602163052,2018_jun._13_1556,60.0375618551,Experimento Piloto1,001,133,
2.5,Stim\\02_078.jpg,Al78_19,Alegría,19,Armando acompaña a Rodrígo a la tienda.,Afirmación,Al78,78,,,,,,,,,,,,,0,14,14,14,,,,,,,,,1,1.13202683912,3,2.74956089228,2018_jun._13_1556,60.0375618551,Experimento Piloto1,001,133,
2.5,Stim\\05_075.jpg,En75_25,Enojo,25,Luis decide la comida siguiente.,Afirmación,En75,75,,,,,,,,,,,,,0,15,15,15,,,,,,,,,1,1.83452555839,2,0.966914750628,2018_jun._13_1556,60.0375618551,Experimento Piloto1,001,133,
0.25,Stim\\03_075.jpg,Tr75_24,Tristeza,24,Guadalupe comenta los resultados con los compañeros.,Afirmación,Tr75,75,,,,,,,,,,,,,0,16,16,16,,,,,,,,,1,1.92424677854,3,1.3168139879,2018_jun._13_1556,60.0375618551,Experimento Piloto1,001,133,
2.5,Stim\\05_078.jpg,En78_25,Enojo,25,Luis decide la comida siguiente.,Afirmación,En78,78,,,,,,,,,,,,,0,17,17,17,,,,,,,,,1,2.4980467739,3,2.49992636913,2018_jun._13_1556,60.0375618551,Experimento Piloto1,001,133,
2.5,Stim\\05_028.jpg,En28_17,Enojo,17,Brenda sube el autobús en las mañanas.,Afirmación,En28,28,,,,,,,,,,,,,0,18,18,18,,,,,,,,,1,2.2987298006,3,1.53329007706,2018_jun._13_1556,60.0375618551,Experimento Piloto1,001,133,
0.25,Stim\\02_078.jpg,Al78_26,Alegría,26,Víctor trae el café a Marco.,Afirmación,Al78,78,,,,,,,,,,,,,0,19,19,19,,,,,,,,,1,1.12237851799,4,1.93318868958,2018_jun._13_1556,60.0375618551,Experimento Piloto1,001,133,
2.5,Stim\\03_075.jpg,Tr75_20,Tristeza,20,Karen analiza la idea.,Afirmación,Tr75,75,,,,,,,,,,,,,0,20,20,20,,,,,,,,,1,0.809362990359,4,2.96618736691,2018_jun._13_1556,60.0375618551,Experimento Piloto1,001,133,
2.5,Stim\\05_028.jpg,En28_21,Enojo,21,Mauro anuncia la actividad.,Afirmación,En28,28,,,,,,,,,,,,,0,21,21,21,,,,,,,,,1,2.62240752409,2,0.433835748723,2018_jun._13_1556,60.0375618551,Experimento Piloto1,001,133,
0.25,Stim\\05_019.jpg,En19_21,Enojo,21,Mauro anuncia la actividad.,Afirmación,En19,19,,,,,,,,,,,,,0,22,22,22,,,,,,,,,1,0.933442158268,2,0.400002588237,2018_jun._13_1556,60.0375618551,Experimento Piloto1,001,133,
0.25,Stim\\03_028.jpg,Tr28_16,Tristeza,16,Valeria modifica algunas imágenes.,Afirmación,Tr28,28,,,,,,,,,,,,,0,23,23,23,,,,,,,,,1,1.05254477203,3,1.38305276254,2018_jun._13_1556,60.0375618551,Experimento Piloto1,001,133,
0.25,Stim\\05_075.jpg,En75_27,Enojo,27,Claudia informa los avances en el reporte.,Afirmación,En75,75,,,,,,,,,,,,,0,24,24,24,,,,,,,,,1,1.92980479341,2,2.28301563473,2018_jun._13_1556,60.0375618551,Experimento Piloto1,001,133,
2.5,Stim\\02_078.jpg,Al78_18,Alegría,18,Sofía escucha la música.,Afirmación,Al78,78,,,,,,,,,,,,,0,25,25,25,,,,,,,,,1,2.82393208467,2,0.800363067114,2018_jun._13_1556,60.0375618551,Experimento Piloto1,001,133,
2.5,Stim\\03_028.jpg,Tr28_25,Tristeza,25,Luis decide la comida siguiente.,Afirmación,Tr28,28,,,,,,,,,,,,,0,26,26,26,,,,,,,,,1,5.18248540324,3,0.700311659381,2018_jun._13_1556,60.0375618551,Experimento Piloto1,001,133,
0.25,Stim\\03_075.jpg,Tr75_18,Tristeza,18,Sofía escucha la música.,Afirmación,Tr75,75,,,,,,,,,,,,,0,27,27,27,,,,,,,,,1,1.22410246204,4,0.750290507241,2018_jun._13_1556,60.0375618551,Experimento Piloto1,001,133,
2.5,Stim\\02_028.jpg,Al28_27,Alegría,27,Claudia informa los avances en el reporte.,Afirmación,Al28,28,,,,,,,,,,,,,0,28,28,28,,,,,,,,,1,2.56278972631,3,0.850311570131,2018_jun._13_1556,60.0375618551,Experimento Piloto1,001,133,
2.5,Stim\\02_028.jpg,Al28_20,Alegría,20,Karen analiza la idea.,Afirmación,Al28,28,,,,,,,,,,,,,0,29,29,29,,,,,,,,,1,0.87631576129,3,2.08315334677,2018_jun._13_1556,60.0375618551,Experimento Piloto1,001,133,
0.25,Stim\\05_078.jpg,En78_29,Enojo,29,Miriam mira la película.,Afirmación,En78,78,,,,,,,,,,,,,0,30,30,30,,,,,,,,,1,2.05827860849,3,4.84888090006,2018_jun._13_1556,60.0375618551,Experimento Piloto1,001,133,
0.25,Stim\\05_019.jpg,En19_22,Enojo,22,Enrique corre todas las mañanas.,Afirmación,En19,19,,,,,,,,,,,,,0,31,31,31,,,,,,,,,1,4.75228746562,2,2.64972189845,2018_jun._13_1556,60.0375618551,Experimento Piloto1,001,133,
2.5,Stim\\03_019.jpg,Tr19_20,Tristeza,20,Karen analiza la idea.,Afirmación,Tr19,19,,,,,,,,,,,,,0,32,32,32,,,,,,,,,1,1.29091198746,2,0.550243026487,2018_jun._13_1556,60.0375618551,Experimento Piloto1,001,133,
2.5,Stim\\05_078.jpg,En78_22,Enojo,22,Enrique corre todas las mañanas.,Afirmación,En78,78,,,,,,,,,,,,,0,33,33,33,,,,,,,,,1,0.970030005694,3,0.399973582137,2018_jun._13_1556,60.0375618551,Experimento Piloto1,001,133,
2.5,Stim\\02_078.jpg,Al78_16,Alegría,16,Valeria modifica algunas imágenes.,Afirmación,Al78,78,,,,,,,,,,,,,0,34,34,34,,,,,,,,,1,0.851997493873,3,3.06618210118,2018_jun._13_1556,60.0375618551,Experimento Piloto1,001,133,
2.5,Stim\\05_028.jpg,En28_24,Enojo,24,Guadalupe comenta los resultados con los compañeros.,Afirmación,En28,28,,,,,,,,,,,,,0,35,35,35,,,,,,,,,1,4.08989614924,2,1.36678524955,2018_jun._13_1556,60.0375618551,Experimento Piloto1,001,133,
2.5,Stim\\02_075.jpg,Al75_16,Alegría,16,Valeria modifica algunas imágenes.,Afirmación,Al75,75,,,,,,,,,,,,,0,36,36,36,,,,,,,,,1,1.01837647953,2,0.866823626851,2018_jun._13_1556,60.0375618551,Experimento Piloto1,001,133,
0.25,Stim\\02_019.jpg,Al19_18,Alegría,18,Sofía escucha la música.,Afirmación,Al19,19,,,,,,,,,,,,,0,37,37,37,,,,,,,,,1,0.657898940965,2,1.78320752124,2018_jun._13_1556,60.0375618551,Experimento Piloto1,001,133,
2.5,Stim\\02_028.jpg,Al28_26,Alegría,26,Víctor trae el café a Marco.,Afirmación,Al28,28,,,,,,,,,,,,,0,38,38,38,,,,,,,,,1,0.805905017073,2,0.916865395634,2018_jun._13_1556,60.0375618551,Experimento Piloto1,001,133,
2.5,Stim\\02_078.jpg,Al78_29,Alegría,29,Miriam mira la película.,Afirmación,Al78,78,,,,,,,,,,,,,0,39,39,39,,,,,,,,,1,2.35745376428,2,1.51682844633,2018_jun._13_1556,60.0375618551,Experimento Piloto1,001,133,
0.25,Stim\\05_078.jpg,En78_24,Enojo,24,Guadalupe comenta los resultados con los compañeros.,Afirmación,En78,78,,,,,,,,,,,,,0,40,40,40,,,,,,,,,1,0.957278924436,2,0.400287740505,2018_jun._13_1556,60.0375618551,Experimento Piloto1,001,133,
0.25,Stim\\03_075.jpg,Tr75_19,Tristeza,19,Armando acompaña a Rodrígo a la tienda.,Afirmación,Tr75,75,,,,,,,,,,,,,0,41,41,41,,,,,,,,,1,1.51505505804,4,0.400344413961,2018_jun._13_1556,60.0375618551,Experimento Piloto1,001,133,
0.25,Stim\\02_028.jpg,Al28_17,Alegría,17,Brenda sube el autobús en las mañanas.,Afirmación,Al28,28,,,,,,,,,,,,,0,42,42,42,,,,,,,,,1,1.11647064493,3,2.03301741972,2018_jun._13_1556,60.0375618551,Experimento Piloto1,001,133,
2.5,Stim\\05_075.jpg,En75_21,Enojo,21,Mauro anuncia la actividad.,Afirmación,En75,75,,,,,,,,,,,,,0,43,43,43,,,,,,,,,1,0.919651319911,2,0.400290864239,2018_jun._13_1556,60.0375618551,Experimento Piloto1,001,133,
0.25,Stim\\03_019.jpg,Tr19_27,Tristeza,27,Claudia informa los avances en el reporte.,Afirmación,Tr19,19,,,,,,,,,,,,,0,44,44,44,,,,,,,,,1,0.696829142473,2,5.1653985795,2018_jun._13_1556,60.0375618551,Experimento Piloto1,001,133,
2.5,Stim\\02_075.jpg,Al75_19,Alegría,19,Armando acompaña a Rodrígo a la tienda.,Afirmación,Al75,75,,,,,,,,,,,,,0,45,45,45,,,,,,,,,1,2.96442201108,2,3.21577815778,2018_jun._13_1556,60.0375618551,Experimento Piloto1,001,133,
2.5,Stim\\03_019.jpg,Tr19_22,Tristeza,22,Enrique corre todas las mañanas.,Afirmación,Tr19,19,,,,,,,,,,,,,0,46,46,46,,,,,,,,,1,2.91978697921,3,0.34987870988,2018_jun._13_1556,60.0375618551,Experimento Piloto1,001,133,
2.5,Stim\\02_075.jpg,Al75_23,Alegría,23,Óscar consigue un nuevo departamento.,Afirmación,Al75,75,,,,,,,,,,,,,0,47,47,47,,,,,,,,,1,1.5829065718,2,0.383764973841,2018_jun._13_1556,60.0375618551,Experimento Piloto1,001,133,
2.5,Stim\\02_019.jpg,Al19_27,Alegría,27,Claudia informa los avances en el reporte.,Afirmación,Al19,19,,,,,,,,,,,,,0,48,48,48,,,,,,,,,1,1.28030914254,2,0.449920746412,2018_jun._13_1556,60.0375618551,Experimento Piloto1,001,133,
2.5,Stim\\03_028.jpg,Tr28_16,Tristeza,16,Valeria modifica algunas imágenes.,Afirmación,Tr28,28,,,,,,,,,,,,,0,49,49,49,,,,,,,,,1,0.749316348551,2,1.11670135499,2018_jun._13_1556,60.0375618551,Experimento Piloto1,001,133,
2.5,Stim\\02_078.jpg,Al78_20,Alegría,20,Karen analiza la idea.,Afirmación,Al78,78,,,,,,,,,,,,,0,50,50,50,,,,,,,,,1,0.575993748962,3,7.19786666833,2018_jun._13_1556,60.0375618551,Experimento Piloto1,001,133,
2.5,Stim\\05_075.jpg,En75_24,Enojo,24,Guadalupe comenta los resultados con los compañeros.,Afirmación,En75,75,,,,,,,,,,,,,0,51,51,51,,,,,,,,,1,2.65656421415,2,0.966464932964,2018_jun._13_1556,60.0375618551,Experimento Piloto1,001,133,
0.25,Stim\\03_028.jpg,Tr28_26,Tristeza,26,Víctor trae el café a Marco.,Afirmación,Tr28,28,,,,,,,,,,,,,0,52,52,52,,,,,,,,,1,0.805600676154,3,1.06679881548,2018_jun._13_1556,60.0375618551,Experimento Piloto1,001,133,
2.5,Stim\\03_028.jpg,Tr28_21,Tristeza,21,Mauro anuncia la actividad.,Afirmación,Tr28,28,,,,,,,,,,,,,0,53,53,53,,,,,,,,,1,3.02211469636,3,1.41675695745,2018_jun._13_1556,60.0375618551,Experimento Piloto1,001,133,
2.5,Stim\\02_075.jpg,Al75_29,Alegría,29,Miriam mira la película.,Afirmación,Al75,75,,,,,,,,,,,,,0,54,54,54,,,,,,,,,1,0.825196304355,2,0.90027524557,2018_jun._13_1556,60.0375618551,Experimento Piloto1,001,133,
0.25,Stim\\03_078.jpg,Tr78_26,Tristeza,26,Víctor trae el café a Marco.,Afirmación,Tr78,78,,,,,,,,,,,,,0,55,55,55,,,,,,,,,1,0.922566209768,4,1.1167669534,2018_jun._13_1556,60.0375618551,Experimento Piloto1,001,133,
0.25,Stim\\05_019.jpg,En19_19,Enojo,19,Armando acompaña a Rodrígo a la tienda.,Afirmación,En19,19,,,,,,,,,,,,,0,56,56,56,,,,,,,,,1,1.01281355593,2,0.599810433985,2018_jun._13_1556,60.0375618551,Experimento Piloto1,001,133,
0.25,Stim\\03_078.jpg,Tr78_19,Tristeza,19,Armando acompaña a Rodrígo a la tienda.,Afirmación,Tr78,78,,,,,,,,,,,,,0,57,57,57,,,,,,,,,1,0.966836657283,4,1.11680577694,2018_jun._13_1556,60.0375618551,Experimento Piloto1,001,133,
2.5,Stim\\03_078.jpg,Tr78_18,Tristeza,18,Sofía escucha la música.,Afirmación,Tr78,78,,,,,,,,,,,,,0,58,58,58,,,,,,,,,1,0.975477797393,2,2.03335165924,2018_jun._13_1556,60.0375618551,Experimento Piloto1,001,133,
2.5,Stim\\05_075.jpg,En75_26,Enojo,26,Víctor trae el café a Marco.,Afirmación,En75,75,,,,,,,,,,,,,0,59,59,59,,,,,,,,,1,0.971993941742,2,2.08315423926,2018_jun._13_1556,60.0375618551,Experimento Piloto1,001,133,
2.5,Stim\\02_075.jpg,Al75_30,Alegría,30,Marisol toma 2 litros de agua cada día.,Afirmación,Al75,75,,,,,,,,,,,,,0,60,60,60,,,,,,,,,1,1.13195186951,3,0.283712673613,2018_jun._13_1556,60.0375618551,Experimento Piloto1,001,133,
2.5,Stim\\03_019.jpg,Tr19_18,Tristeza,18,Sofía escucha la música.,Afirmación,Tr19,19,,,,,,,,,,,,,0,61,61,61,,,,,,,,,1,0.674434202564,2,2.84970556578,2018_jun._13_1556,60.0375618551,Experimento Piloto1,001,133,
0.25,Stim\\03_078.jpg,Tr78_23,Tristeza,23,Óscar consigue un nuevo departamento.,Afirmación,Tr78,78,,,,,,,,,,,,,0,62,62,62,,,,,,,,,1,0.967260592582,2,2.23334157404,2018_jun._13_1556,60.0375618551,Experimento Piloto1,001,133,
2.5,Stim\\03_019.jpg,Tr19_25,Tristeza,25,Luis decide la comida siguiente.,Afirmación,Tr19,19,,,,,,,,,,,,,0,63,63,63,,,,,,,,,1,1.28450030077,2,1.01711225985,2018_jun._13_1556,60.0375618551,Experimento Piloto1,001,133,
0.25,Stim\\02_028.jpg,Al28_29,Alegría,29,Miriam mira la película.,Afirmación,Al28,28,,,,,,,,,,,,,0,64,64,64,,,,,,,,,1,1.52411076224,3,1.06685861267,2018_jun._13_1556,60.0375618551,Experimento Piloto1,001,133,
2.5,Stim\\02_019.jpg,Al19_21,Alegría,21,Mauro anuncia la actividad.,Afirmación,Al19,19,,,,,,,,,,,,,0,65,65,65,,,,,,,,,1,0.973739216424,3,1.73326392694,2018_jun._13_1556,60.0375618551,Experimento Piloto1,001,133,
2.5,Stim\\02_078.jpg,Al78_25,Alegría,25,Luis decide la comida siguiente.,Afirmación,Al78,78,,,,,,,,,,,,,0,66,66,66,,,,,,,,,1,0.967988868798,3,1.21686878712,2018_jun._13_1556,60.0375618551,Experimento Piloto1,001,133,
2.5,Stim\\05_075.jpg,En75_29,Enojo,29,Miriam mira la película.,Afirmación,En75,75,,,,,,,,,,,,,0,67,67,67,,,,,,,,,1,0.699808291995,2,0.350475343031,2018_jun._13_1556,60.0375618551,Experimento Piloto1,001,133,
0.25,Stim\\03_028.jpg,Tr28_20,Tristeza,20,Karen analiza la idea.,Afirmación,Tr28,28,,,,,,,,,,,,,0,68,68,68,,,,,,,,,1,0.810191226056,3,1.26667270589,2018_jun._13_1556,60.0375618551,Experimento Piloto1,001,133,
2.5,Stim\\02_075.jpg,Al75_26,Alegría,26,Víctor trae el café a Marco.,Afirmación,Al75,75,,,,,,,,,,,,,0,69,69,69,,,,,,,,,1,1.23728238732,2,1.0001544017,2018_jun._13_1556,60.0375618551,Experimento Piloto1,001,133,
0.25,Stim\\05_019.jpg,En19_20,Enojo,20,Karen analiza la idea.,Afirmación,En19,19,,,,,,,,,,,,,0,70,70,70,,,,,,,,,1,0.92600187067,2,0.966474304166,2018_jun._13_1556,60.0375618551,Experimento Piloto1,001,133,
0.25,Stim\\05_028.jpg,En28_22,Enojo,22,Enrique corre todas las mañanas.,Afirmación,En28,28,,,,,,,,,,,,,0,71,71,71,,,,,,,,,1,0.553042338195,3,3.98257625927,2018_jun._13_1556,60.0375618551,Experimento Piloto1,001,133,
2.5,Stim\\05_028.jpg,En28_22,Enojo,22,Enrique corre todas las mañanas.,Afirmación,En28,28,,,,,,,,,,,,,0,72,72,72,,,,,,,,,1,0.983227780881,3,1.46684781348,2018_jun._13_1556,60.0375618551,Experimento Piloto1,001,133,
0.25,Stim\\05_019.jpg,En19_17,Enojo,17,Brenda sube el autobús en las mañanas.,Afirmación,En19,19,,,,,,,,,,,,,0,73,73,73,,,,,,,,,1,1.53320172002,3,0.95027729831,2018_jun._13_1556,60.0375618551,Experimento Piloto1,001,133,
2.5,Stim\\05_078.jpg,En78_26,Enojo,26,Víctor trae el café a Marco.,Afirmación,En78,78,,,,,,,,,,,,,0,74,74,74,,,,,,,,,1,1.07008364466,3,1.53329007706,2018_jun._13_1556,60.0375618551,Experimento Piloto1,001,133,
2.5,Stim\\03_078.jpg,Tr78_29,Tristeza,29,Miriam mira la película.,Afirmación,Tr78,78,,,,,,,,,,,,,0,75,75,75,,,,,,,,,1,0.724220271425,4,0.383809152362,2018_jun._13_1556,60.0375618551,Experimento Piloto1,001,133,
0.25,Stim\\02_075.jpg,Al75_22,Alegría,22,Enrique corre todas las mañanas.,Afirmación,Al75,75,,,,,,,,,,,,,0,76,76,76,,,,,,,,,1,0.970130411422,3,0.450359854131,2018_jun._13_1556,60.0375618551,Experimento Piloto1,001,133,
2.5,Stim\\02_019.jpg,Al19_23,Alegría,23,Óscar consigue un nuevo departamento.,Afirmación,Al19,19,,,,,,,,,,,,,0,77,77,77,,,,,,,,,1,0.917016227351,2,1.10031737135,2018_jun._13_1556,60.0375618551,Experimento Piloto1,001,133,
0.25,Stim\\05_075.jpg,En75_21,Enojo,21,Mauro anuncia la actividad.,Afirmación,En75,75,,,,,,,,,,,,,0,78,78,78,,,,,,,,,1,0.457019654533,3,3.26625055558,2018_jun._13_1556,60.0375618551,Experimento Piloto1,001,133,
0.25,Stim\\02_078.jpg,Al78_25,Alegría,25,Luis decide la comida siguiente.,Afirmación,Al78,78,,,,,,,,,,,,,0,79,79,79,,,,,,,,,1,1.53507685278,2,1.51677088038,2018_jun._13_1556,60.0375618551,Experimento Piloto1,001,133,
0.25,Stim\\03_078.jpg,Tr78_22,Tristeza,22,Enrique corre todas las mañanas.,Afirmación,Tr78,78,,,,,,,,,,,,,0,80,80,80,,,,,,,,,1,1.33661979876,3,1.41673910754,2018_jun._13_1556,60.0375618551,Experimento Piloto1,001,133,
0.25,Stim\\05_028.jpg,En28_26,Enojo,26,Víctor trae el café a Marco.,Afirmación,En28,28,,,,,,,,,,,,,0,81,81,81,,,,,,,,,1,0.705696976404,4,0.700333971765,2018_jun._13_1556,60.0375618551,Experimento Piloto1,001,133,
2.5,Stim\\05_019.jpg,En19_29,Enojo,29,Miriam mira la película.,Afirmación,En19,19,,,,,,,,,,,,,0,82,82,82,,,,,,,,,1,2.30341897124,2,3.11631892072,2018_jun._13_1556,60.0375618551,Experimento Piloto1,001,133,
0.25,Stim\\02_019.jpg,Al19_21,Alegría,21,Mauro anuncia la actividad.,Afirmación,Al19,19,,,,,,,,,,,,,0,83,83,83,,,,,,,,,1,1.12270383255,3,1.36669600001,2018_jun._13_1556,60.0375618551,Experimento Piloto1,001,133,
2.5,Stim\\05_078.jpg,En78_30,Enojo,30,Marisol toma 2 litros de agua cada día.,Afirmación,En78,78,,,,,,,,,,,,,0,84,84,84,,,,,,,,,1,7.11318001453,3,0.966788462533,2018_jun._13_1556,60.0375618551,Experimento Piloto1,001,133,
0.25,Stim\\02_078.jpg,Al78_30,Alegría,30,Marisol toma 2 litros de agua cada día.,Afirmación,Al78,78,,,,,,,,,,,,,0,85,85,85,,,,,,,,,1,0.616849509217,3,0.650103440213,2018_jun._13_1556,60.0375618551,Experimento Piloto1,001,133,
0.25,Stim\\03_075.jpg,Tr75_16,Tristeza,16,Valeria modifica algunas imágenes.,Afirmación,Tr75,75,,,,,,,,,,,,,0,86,86,86,,,,,,,,,1,1.68472288911,4,1.46675008523,2018_jun._13_1556,60.0375618551,Experimento Piloto1,001,133,
0.25,Stim\\02_019.jpg,Al19_24,Alegría,24,Guadalupe comenta los resultados con los compañeros.,Afirmación,Al19,19,,,,,,,,,,,,,0,87,87,87,,,,,,,,,1,2.04027608452,2,2.28305668952,2018_jun._13_1556,60.0375618551,Experimento Piloto1,001,133,
2.5,Stim\\02_028.jpg,Al28_29,Alegría,29,Miriam mira la película.,Afirmación,Al28,28,,,,,,,,,,,,,0,88,88,88,,,,,,,,,1,0.924435987556,3,1.46660639348,2018_jun._13_1556,60.0375618551,Experimento Piloto1,001,133,
0.25,Stim\\03_019.jpg,Tr19_25,Tristeza,25,Luis decide la comida siguiente.,Afirmación,Tr19,19,,,,,,,,,,,,,0,89,89,89,,,,,,,,,1,1.88486274314,2,1.06678453555,2018_jun._13_1556,60.0375618551,Experimento Piloto1,001,133,
0.25,Stim\\03_075.jpg,Tr75_25,Tristeza,25,Luis decide la comida siguiente.,Afirmación,Tr75,75,,,,,,,,,,,,,0,90,90,90,,,,,,,,,1,1.23345045848,4,2.49961265701,2018_jun._13_1556,60.0375618551,Experimento Piloto1,001,133,
2.5,Stim\\03_078.jpg,Tr78_25,Tristeza,25,Luis decide la comida siguiente.,Afirmación,Tr78,78,,,,,,,,,,,,,0,91,91,91,,,,,,,,,1,1.13344724549,3,1.98325678698,2018_jun._13_1556,60.0375618551,Experimento Piloto1,001,133,
2.5,Stim\\02_019.jpg,Al19_18,Alegría,18,Sofía escucha la música.,Afirmación,Al19,19,,,,,,,,,,,,,0,92,92,92,,,,,,,,,1,0.991175452094,3,2.03313299787,2018_jun._13_1556,60.0375618551,Experimento Piloto1,001,133,
2.5,Stim\\03_028.jpg,Tr28_19,Tristeza,19,Armando acompaña a Rodrígo a la tienda.,Afirmación,Tr28,28,,,,,,,,,,,,,0,93,93,93,,,,,,,,,1,0.548777102853,3,1.0168047952,2018_jun._13_1556,60.0375618551,Experimento Piloto1,001,133,
0.25,Stim\\03_078.jpg,Tr78_18,Tristeza,18,Sofía escucha la música.,Afirmación,Tr78,78,,,,,,,,,,,,,0,94,94,94,,,,,,,,,1,0.807869845617,4,0.45034468171,2018_jun._13_1556,60.0375618551,Experimento Piloto1,001,133,
0.25,Stim\\05_019.jpg,En19_29,Enojo,29,Miriam mira la película.,Afirmación,En19,19,,,,,,,,,,,,,0,95,95,95,,,,,,,,,1,0.708373569999,2,0.500149939221,2018_jun._13_1556,60.0375618551,Experimento Piloto1,001,133,
2.5,Stim\\03_078.jpg,Tr78_24,Tristeza,24,Guadalupe comenta los resultados con los compañeros.,Afirmación,Tr78,78,,,,,,,,,,,,,0,96,96,96,,,,,,,,,1,1.52464670571,3,3.68229485548,2018_jun._13_1556,60.0375618551,Experimento Piloto1,001,133,
2.5,Stim\\05_019.jpg,En19_22,Enojo,22,Enrique corre todas las mañanas.,Afirmación,En19,19,,,,,,,,,,,,,0,97,97,97,,,,,,,,,1,1.01839522194,3,0.550235886524,2018_jun._13_1556,60.0375618551,Experimento Piloto1,001,133,
0.25,Stim\\02_028.jpg,Al28_20,Alegría,20,Karen analiza la idea.,Afirmación,Al28,28,,,,,,,,,,,,,0,98,98,98,,,,,,,,,1,0.609214657629,2,0.850251326694,2018_jun._13_1556,60.0375618551,Experimento Piloto1,001,133,
2.5,Stim\\03_078.jpg,Tr78_27,Tristeza,27,Claudia informa los avances en el reporte.,Afirmación,Tr78,78,,,,,,,,,,,,,0,99,99,99,,,,,,,,,1,1.13002631076,3,1.31641414998,2018_jun._13_1556,60.0375618551,Experimento Piloto1,001,133,
0.25,Stim\\03_075.jpg,Tr75_17,Tristeza,17,Brenda sube el autobús en las mañanas.,Afirmación,Tr75,75,,,,,,,,,,,,,0,100,100,100,,,,,,,,,1,1.93314183358,3,4.79892525708,2018_jun._13_1556,60.0375618551,Experimento Piloto1,001,133,
2.5,Stim\\05_028.jpg,En28_25,Enojo,25,Luis decide la comida siguiente.,Afirmación,En28,28,,,,,,,,,,,,,0,101,101,101,,,,,,,,,1,4.56702774054,3,1.3163516753,2018_jun._13_1556,60.0375618551,Experimento Piloto1,001,133,
2.5,Stim\\02_028.jpg,Tr28_30,Tristeza,30,Marisol toma 2 litros de agua cada día.,Afirmación,Tr28,28,,,,,,,,,,,,,0,102,102,102,,,,,,,,,1,1.46580716388,3,0.300301038686,2018_jun._13_1556,60.0375618551,Experimento Piloto1,001,133,
0.25,Stim\\02_078.jpg,Al78_18,Alegría,18,Sofía escucha la música.,Afirmación,Al78,78,,,,,,,,,,,,,0,103,103,103,,,,,,,,,1,0.924636799012,3,4.79895203194,2018_jun._13_1556,60.0375618551,Experimento Piloto1,001,133,
0.25,Stim\\02_078.jpg,Al78_24,Alegría,24,Guadalupe comenta los resultados con los compañeros.,Afirmación,Al78,78,,,,,,,,,,,,,0,104,104,104,,,,,,,,,1,1.15707025902,2,0.383685988001,2018_jun._13_1556,60.0375618551,Experimento Piloto1,001,133,
0.25,Stim\\05_075.jpg,En75_26,Enojo,26,Víctor trae el café a Marco.,Afirmación,En75,75,,,,,,,,,,,,,0,105,105,105,,,,,,,,,1,0.871016123821,2,0.40037163507,2018_jun._13_1556,60.0375618551,Experimento Piloto1,001,133,
0.25,Stim\\05_019.jpg,En19_16,Enojo,16,Valeria modifica algunas imágenes.,Afirmación,En19,19,,,,,,,,,,,,,0,106,106,106,,,,,,,,,1,1.36706906308,2,0.400316746604,2018_jun._13_1556,60.0375618551,Experimento Piloto1,001,133,
2.5,Stim\\05_019.jpg,En19_21,Enojo,21,Mauro anuncia la actividad.,Afirmación,En19,19,,,,,,,,,,,,,0,107,107,107,,,,,,,,,1,0.773736806687,2,2.38350525769,2018_jun._13_1556,60.0375618551,Experimento Piloto1,001,133,
0.25,Stim\\03_028.jpg,Tr28_22,Tristeza,22,Enrique corre todas las mañanas.,Afirmación,Tr28,28,,,,,,,,,,,,,0,108,108,108,,,,,,,,,1,1.32013094692,3,0.400360478878,2018_jun._13_1556,60.0375618551,Experimento Piloto1,001,133,
2.5,Stim\\05_075.jpg,En75_28,Enojo,28,Antonio responde la pregunta.,Afirmación,En75,75,,,,,,,,,,,,,0,109,109,109,,,,,,,,,1,1.02241278982,2,0.60024061675,2018_jun._13_1556,60.0375618551,Experimento Piloto1,001,133,
2.5,Stim\\05_078.jpg,En78_28,Enojo,28,Antonio responde la pregunta.,Afirmación,En78,78,,,,,,,,,,,,,0,110,110,110,,,,,,,,,1,2.01650000803,2,0.28378630448,2018_jun._13_1556,60.0375618551,Experimento Piloto1,001,133,
2.5,Stim\\03_028.jpg,Tr28_26,Tristeza,26,Víctor trae el café a Marco.,Afirmación,Tr28,28,,,,,,,,,,,,,0,111,111,111,,,,,,,,,1,2.15558871672,2,1.83304713982,2018_jun._13_1556,60.0375618551,Experimento Piloto1,001,133,
2.5,Stim\\05_028.jpg,En28_20,Enojo,20,Karen analiza la idea.,Afirmación,En28,28,,,,,,,,,,,,,0,112,112,112,,,,,,,,,1,2.45949454418,3,0.966745176509,2018_jun._13_1556,60.0375618551,Experimento Piloto1,001,133,
2.5,Stim\\02_019.jpg,Al19_30,Alegría,30,Marisol toma 2 litros de agua cada día.,Afirmación,Al19,19,,,,,,,,,,,,,0,113,113,113,,,,,,,,,1,1.06547479861,3,0.300586190954,2018_jun._13_1556,60.0375618551,Experimento Piloto1,001,133,
2.5,Stim\\05_078.jpg,En78_23,Enojo,23,Óscar consigue un nuevo departamento.,Afirmación,En78,78,,,,,,,,,,,,,0,114,114,114,,,,,,,,,1,1.31691528612,2,0.60032138758,2018_jun._13_1556,60.0375618551,Experimento Piloto1,001,133,
0.25,Stim\\05_078.jpg,En78_23,Enojo,23,Óscar consigue un nuevo departamento.,Afirmación,En78,78,,,,,,,,,,,,,0,115,115,115,,,,,,,,,1,3.59934767514,2,0.900223480839,2018_jun._13_1556,60.0375618551,Experimento Piloto1,001,133,
2.5,Stim\\05_019.jpg,En19_19,Enojo,19,Armando acompaña a Rodrígo a la tienda.,Afirmación,En19,19,,,,,,,,,,,,,0,116,116,116,,,,,,,,,1,0.865242571314,2,0.300278726302,2018_jun._13_1556,60.0375618551,Experimento Piloto1,001,133,
2.5,Stim\\03_078.jpg,Tr78_17,Tristeza,17,Brenda sube el autobús en las mañanas.,Afirmación,Tr78,78,,,,,,,,,,,,,0,117,117,117,,,,,,,,,1,0.766701711985,3,0.433680900777,2018_jun._13_1556,60.0375618551,Experimento Piloto1,001,133,
0.25,Stim\\05_075.jpg,En75_20,Enojo,20,Karen analiza la idea.,Afirmación,En75,75,,,,,,,,,,,,,0,118,118,118,,,,,,,,,1,0.825888880757,3,1.21684379725,2018_jun._13_1556,60.0375618551,Experimento Piloto1,001,133,
0.25,Stim\\05_078.jpg,En78_28,Enojo,28,Antonio responde la pregunta.,Afirmación,En78,78,,,,,,,,,,,,,0,119,119,119,,,,,,,,,1,1.07080745841,2,0.333778093523,2018_jun._13_1556,60.0375618551,Experimento Piloto1,001,133,
