Tiempo,ImagenesE,ClaveEn,Emocion,NumEn,Enunciado,ActoHabla,Clave,Cara,trials.thisRepN,trials.thisTrialN,trials.thisN,trials.thisIndex,Bloque1.thisRepN,Bloque1.thisTrialN,Bloque1.thisN,Bloque1.thisIndex,Bloque2.thisRepN,Bloque2.thisTrialN,Bloque2.thisN,Bloque2.thisIndex,Bloque3.thisRepN,Bloque3.thisTrialN,Bloque3.thisN,Bloque3.thisIndex,Sig_B1.keys,Sig_B1.rt,Resp_Bloque1.keys,Resp_Bloque1.rt,Sig_B2.keys,Sig_B2.rt,Resp_Bloque2.keys,Resp_Bloque2.rt,Sig_B3.keys,Sig_B3.rt,Resp_Bloque3.keys,Resp_Bloque3.rt,date,frameRate,expName,session,participant,
2.5,Stim\\05_028.jpg,En28_16,Enojo,16,Valeria modifica algunas imágenes.,Afirmación,En28,28,,,,,0,0,0,0,,,,,,,,,1,3.09787282655,3,1.2667084057,,,,,,,,,2018_jun._13_1710,60.0160156406,Experimento Piloto1,001,134,
2.5,Stim\\05_028.jpg,En28_29,Enojo,29,Miriam mira la película.,Afirmación,En28,28,,,,,0,1,1,1,,,,,,,,,1,2.25676466861,3,2.54964951707,,,,,,,,,2018_jun._13_1710,60.0160156406,Experimento Piloto1,001,134,
0.25,Stim\\03_028.jpg,Tr28_29,Tristeza,29,Miriam mira la película.,Afirmación,Tr28,28,,,,,0,2,2,2,,,,,,,,,1,3.23276636078,3,2.64963845013,,,,,,,,,2018_jun._13_1710,60.0160156406,Experimento Piloto1,001,134,
2.5,Stim\\02_075.jpg,Al75_22,Alegría,22,Enrique corre todas las mañanas.,Afirmación,Al75,75,,,,,0,3,3,3,,,,,,,,,1,3.58500839838,3,2.23264364267,,,,,,,,,2018_jun._13_1710,60.0160156406,Experimento Piloto1,001,134,
2.5,Stim\\05_019.jpg,En19_17,Enojo,17,Brenda sube el autobús en las mañanas.,Afirmación,En19,19,,,,,0,4,4,4,,,,,,,,,1,4.26081481257,3,1.7164876916,,,,,,,,,2018_jun._13_1710,60.0160156406,Experimento Piloto1,001,134,
2.5,Stim\\02_028.jpg,Al28_17,Alegría,17,Brenda sube el autobús en las mañanas.,Afirmación,Al28,28,,,,,0,5,5,5,,,,,,,,,1,2.83288158193,3,0.65026765936,,,,,,,,,2018_jun._13_1710,60.0160156406,Experimento Piloto1,001,134,
0.25,Stim\\05_075.jpg,En75_24,Enojo,24,Guadalupe comenta los resultados con los compañeros.,Afirmación,En75,75,,,,,0,6,6,6,,,,,,,,,1,3.97308323233,3,1.83326981741,,,,,,,,,2018_jun._13_1710,60.0160156406,Experimento Piloto1,001,134,
2.5,Stim\\03_078.jpg,Tr78_23,Tristeza,23,Óscar consigue un nuevo departamento.,Afirmación,Tr78,78,,,,,0,7,7,7,,,,,,,,,1,3.008613919,3,1.31676936313,,,,,,,,,2018_jun._13_1710,60.0160156406,Experimento Piloto1,001,134,
0.25,Stim\\05_075.jpg,En75_16,Enojo,16,Valeria modifica algunas imágenes.,Afirmación,En75,75,,,,,0,8,8,8,,,,,,,,,1,5.38299296535,3,1.46663272209,,,,,,,,,2018_jun._13_1710,60.0160156406,Experimento Piloto1,001,134,
0.25,Stim\\02_078.jpg,Al78_23,Alegría,23,Óscar consigue un nuevo departamento.,Afirmación,Al78,78,,,,,0,9,9,9,,,,,,,,,1,2.91529415755,3,2.13310095729,,,,,,,,,2018_jun._13_1710,60.0160156406,Experimento Piloto1,001,134,
2.5,Stim\\05_078.jpg,En78_24,Enojo,24,Guadalupe comenta los resultados con los compañeros.,Afirmación,En78,78,,,,,0,10,10,10,,,,,,,,,1,5.7730116542,3,1.53290407281,,,,,,,,,2018_jun._13_1710,60.0160156406,Experimento Piloto1,001,134,
2.5,Stim\\03_028.jpg,Tr28_28,Tristeza,28,Antonio responde la pregunta.,Afirmación,Tr28,28,,,,,0,11,11,11,,,,,,,,,1,2.85225497878,2,1.01666288844,,,,,,,,,2018_jun._13_1710,60.0160156406,Experimento Piloto1,001,134,
0.25,Stim\\02_019.jpg,Al19_20,Alegría,20,Karen analiza la idea.,Afirmación,Al19,19,,,,,0,12,12,12,,,,,,,,,1,3.99070912327,3,1.53323875857,,,,,,,,,2018_jun._13_1710,60.0160156406,Experimento Piloto1,001,134,
2.5,Stim\\05_078.jpg,En78_27,Enojo,27,Claudia informa los avances en el reporte.,Afirmación,En78,78,,,,,0,13,13,13,,,,,,,,,1,4.07708660954,2,0.816845671487,,,,,,,,,2018_jun._13_1710,60.0160156406,Experimento Piloto1,001,134,
0.25,Stim\\05_028.jpg,En28_28,Enojo,28,Antonio responde la pregunta.,Afirmación,En28,28,,,,,0,14,14,14,,,,,,,,,1,2.95409137725,2,0.866790158276,,,,,,,,,2018_jun._13_1710,60.0160156406,Experimento Piloto1,001,134,
2.5,Stim\\03_078.jpg,Tr78_30,Tristeza,30,Marisol toma 2 litros de agua cada día.,Afirmación,Tr78,78,,,,,0,15,15,15,,,,,,,,,1,3.87681957492,2,1.06682380535,,,,,,,,,2018_jun._13_1710,60.0160156406,Experimento Piloto1,001,134,
0.25,Stim\\03_028.jpg,Tr28_27,Tristeza,27,Claudia informa los avances en el reporte.,Afirmación,Tr28,28,,,,,0,16,16,16,,,,,,,,,1,3.21187170558,4,2.6995677645,,,,,,,,,2018_jun._13_1710,60.0160156406,Experimento Piloto1,001,134,
0.25,Stim\\02_075.jpg,Al75_24,Alegría,24,Guadalupe comenta los resultados con los compañeros.,Afirmación,Al75,75,,,,,0,17,17,17,,,,,,,,,1,3.42270722404,3,2.23310015405,,,,,,,,,2018_jun._13_1710,60.0160156406,Experimento Piloto1,001,134,
0.25,Stim\\02_019.jpg,Al19_16,Alegría,16,Valeria modifica algunas imágenes.,Afirmación,Al19,19,,,,,0,18,18,18,,,,,,,,,1,3.63415588681,3,2.03319859628,,,,,,,,,2018_jun._13_1710,60.0160156406,Experimento Piloto1,001,134,
2.5,Stim\\02_028.jpg,Al28_30,Alegría,30,Marisol toma 2 litros de agua cada día.,Afirmación,Al28,28,,,,,0,19,19,19,,,,,,,,,1,3.0138015483,3,1.16673062883,,,,,,,,,2018_jun._13_1710,60.0160156406,Experimento Piloto1,001,134,
2.5,Stim\\05_078.jpg,En78_16,Enojo,16,Valeria modifica algunas imágenes.,Afirmación,En78,78,,,,,0,20,20,20,,,,,,,,,1,3.16843395624,2,0.966848259724,,,,,,,,,2018_jun._13_1710,60.0160156406,Experimento Piloto1,001,134,
0.25,Stim\\02_075.jpg,Al75_28,Alegría,28,Antonio responde la pregunta.,Afirmación,Al75,75,,,,,0,21,21,21,,,,,,,,,1,3.12016066701,3,0.850162523406,,,,,,,,,2018_jun._13_1710,60.0160156406,Experimento Piloto1,001,134,
2.5,Stim\\03_075.jpg,Tr75_17,Tristeza,17,Brenda sube el autobús en las mañanas.,Afirmación,Tr75,75,,,,,0,22,22,22,,,,,,,,,1,3.8950429915,4,2.84963550489,,,,,,,,,2018_jun._13_1710,60.0160156406,Experimento Piloto1,001,134,
0.25,Stim\\05_075.jpg,En75_18,Enojo,18,Sofía escucha la música.,Afirmación,En75,75,,,,,0,23,23,23,,,,,,,,,1,3.47396100152,2,0.700153241454,,,,,,,,,2018_jun._13_1710,60.0160156406,Experimento Piloto1,001,134,
2.5,Stim\\02_075.jpg,Al75_25,Alegría,25,Luis decide la comida siguiente.,Afirmación,Al75,75,,,,,0,24,24,24,,,,,,,,,1,3.64696408777,3,0.650199383464,,,,,,,,,2018_jun._13_1710,60.0160156406,Experimento Piloto1,001,134,
0.25,Stim\\02_028.jpg,Al28_18,Alegría,18,Sofía escucha la música.,Afirmación,Al28,28,,,,,0,25,25,25,,,,,,,,,1,2.50779460826,3,0.850185728285,,,,,,,,,2018_jun._13_1710,60.0160156406,Experimento Piloto1,001,134,
0.25,Stim\\02_028.jpg,Al28_23,Alegría,23,Óscar consigue un nuevo departamento.,Afirmación,Al28,28,,,,,0,26,26,26,,,,,,,,,1,2.24934803214,3,1.05029434497,,,,,,,,,2018_jun._13_1710,60.0160156406,Experimento Piloto1,001,134,
0.25,Stim\\02_075.jpg,Al75_19,Alegría,19,Armando acompaña a Rodrígo a la tienda.,Afirmación,Al75,75,,,,,0,27,27,27,,,,,,,,,1,3.63041811623,3,1.21691653562,,,,,,,,,2018_jun._13_1710,60.0160156406,Experimento Piloto1,001,134,
2.5,Stim\\05_019.jpg,En19_16,Enojo,16,Valeria modifica algunas imágenes.,Afirmación,En19,19,,,,,0,28,28,28,,,,,,,,,1,2.2008752702,2,0.900288633,,,,,,,,,2018_jun._13_1710,60.0160156406,Experimento Piloto1,001,134,
2.5,Stim\\02_019.jpg,Al19_25,Alegría,25,Luis decide la comida siguiente.,Afirmación,Al19,19,,,,,0,29,29,29,,,,,,,,,1,3.13492387907,3,0.700206344928,,,,,,,,,2018_jun._13_1710,60.0160156406,Experimento Piloto1,001,134,
0.25,Stim\\02_078.jpg,Al78_27,Alegría,27,Claudia informa los avances en el reporte.,Afirmación,Al78,78,,,,,0,30,30,30,,,,,,,,,1,2.54610631048,3,1.6665936308,,,,,,,,,2018_jun._13_1710,60.0160156406,Experimento Piloto1,001,134,
0.25,Stim\\03_019.jpg,Tr19_22,Tristeza,22,Enrique corre todas las mañanas.,Afirmación,Tr19,19,,,,,0,31,31,31,,,,,,,,,1,1.686670314,2,1.26679631649,,,,,,,,,2018_jun._13_1710,60.0160156406,Experimento Piloto1,001,134,
2.5,Stim\\05_019.jpg,En19_26,Enojo,26,Víctor trae el café a Marco.,Afirmación,En19,19,,,,,0,32,32,32,,,,,,,,,1,2.76665262474,2,0.850255342923,,,,,,,,,2018_jun._13_1710,60.0160156406,Experimento Piloto1,001,134,
2.5,Stim\\02_078.jpg,Al78_26,Alegría,26,Víctor trae el café a Marco.,Afirmación,Al78,78,,,,,0,33,33,33,,,,,,,,,1,2.58318904658,3,0.650323886567,,,,,,,,,2018_jun._13_1710,60.0160156406,Experimento Piloto1,001,134,
0.25,Stim\\05_078.jpg,En78_17,Enojo,17,Brenda sube el autobús en las mañanas.,Afirmación,En78,78,,,,,0,34,34,34,,,,,,,,,1,2.34275168815,2,1.10019599198,,,,,,,,,2018_jun._13_1710,60.0160156406,Experimento Piloto1,001,134,
0.25,Stim\\05_078.jpg,En78_21,Enojo,21,Mauro anuncia la actividad.,Afirmación,En78,78,,,,,0,35,35,35,,,,,,,,,1,2.30532891132,2,0.900444373442,,,,,,,,,2018_jun._13_1710,60.0160156406,Experimento Piloto1,001,134,
2.5,Stim\\03_078.jpg,Tr78_20,Tristeza,20,Karen analiza la idea.,Afirmación,Tr78,78,,,,,0,36,36,36,,,,,,,,,1,1.95718074995,4,2.18314272607,,,,,,,,,2018_jun._13_1710,60.0160156406,Experimento Piloto1,001,134,
0.25,Stim\\03_078.jpg,Tr78_28,Tristeza,28,Antonio responde la pregunta.,Afirmación,Tr78,78,,,,,0,37,37,37,,,,,,,,,1,3.02026366098,4,0.650288186753,,,,,,,,,2018_jun._13_1710,60.0160156406,Experimento Piloto1,001,134,
2.5,Stim\\03_028.jpg,Tr28_17,Tristeza,17,Brenda sube el autobús en las mañanas.,Afirmación,Tr28,28,,,,,0,38,38,38,,,,,,,,,1,2.51226422504,4,1.10005720895,,,,,,,,,2018_jun._13_1710,60.0160156406,Experimento Piloto1,001,134,
0.25,Stim\\02_028.jpg,Al28_27,Alegría,27,Claudia informa los avances en el reporte.,Afirmación,Al28,28,,,,,0,39,39,39,,,,,,,,,1,2.66315796989,3,0.70029648696,,,,,,,,,2018_jun._13_1710,60.0160156406,Experimento Piloto1,001,134,
2.5,Stim\\02_019.jpg,Al19_28,Alegría,28,Antonio responde la pregunta.,Afirmación,Al19,19,,,,,0,40,40,40,,,,,,,,,1,1.63755807914,3,1.316747497,,,,,,,,,2018_jun._13_1710,60.0160156406,Experimento Piloto1,001,134,
0.25,Stim\\02_019.jpg,Al19_17,Alegría,17,Brenda sube el autobús en las mañanas.,Afirmación,Al19,19,,,,,0,41,41,41,,,,,,,,,1,1.63171044951,3,1.00015752543,,,,,,,,,2018_jun._13_1710,60.0160156406,Experimento Piloto1,001,134,
2.5,Stim\\03_075.jpg,Tr75_21,Tristeza,21,Mauro anuncia la actividad.,Afirmación,Tr75,75,,,,,0,42,42,42,,,,,,,,,1,2.10604183661,4,0.600376722294,,,,,,,,,2018_jun._13_1710,60.0160156406,Experimento Piloto1,001,134,
0.25,Stim\\03_075.jpg,Tr75_26,Tristeza,26,Víctor trae el café a Marco.,Afirmación,Tr75,75,,,,,0,43,43,43,,,,,,,,,1,5.12108484597,3,2.28323518859,,,,,,,,,2018_jun._13_1710,60.0160156406,Experimento Piloto1,001,134,
0.25,Stim\\02_075.jpg,Al75_18,Alegría,18,Sofía escucha la música.,Afirmación,Al75,75,,,,,0,44,44,44,,,,,,,,,1,1.5905574883,3,0.800239456506,,,,,,,,,2018_jun._13_1710,60.0160156406,Experimento Piloto1,001,134,
2.5,Stim\\05_028.jpg,En28_27,Enojo,27,Claudia informa los avances en el reporte.,Afirmación,En28,28,,,,,0,45,45,45,,,,,,,,,1,2.66143099137,2,0.650252486938,,,,,,,,,2018_jun._13_1710,60.0160156406,Experimento Piloto1,001,134,
0.25,Stim\\02_019.jpg,Al19_23,Alegría,23,Óscar consigue un nuevo departamento.,Afirmación,Al19,19,,,,,0,46,46,46,,,,,,,,,1,1.73107418957,3,0.950208129919,,,,,,,,,2018_jun._13_1710,60.0160156406,Experimento Piloto1,001,134,
0.25,Stim\\03_075.jpg,Tr75_21,Tristeza,21,Mauro anuncia la actividad.,Afirmación,Tr75,75,,,,,0,47,47,47,,,,,,,,,1,1.95522752384,2,0.950134945298,,,,,,,,,2018_jun._13_1710,60.0160156406,Experimento Piloto1,001,134,
0.25,Stim\\02_078.jpg,Al78_28,Alegría,28,Antonio responde la pregunta.,Afirmación,Al78,78,,,,,0,48,48,48,,,,,,,,,1,2.82046831017,3,0.59997688437,,,,,,,,,2018_jun._13_1710,60.0160156406,Experimento Piloto1,001,134,
2.5,Stim\\03_075.jpg,Tr75_23,Tristeza,23,Óscar consigue un nuevo departamento.,Afirmación,Tr75,75,,,,,0,49,49,49,,,,,,,,,1,3.01582706653,4,0.650222588343,,,,,,,,,2018_jun._13_1710,60.0160156406,Experimento Piloto1,001,134,
0.25,Stim\\02_078.jpg,Al78_22,Alegría,22,Enrique corre todas las mañanas.,Afirmación,Al78,78,,,,,0,50,50,50,,,,,,,,,1,1.93585278825,3,0.700151456464,,,,,,,,,2018_jun._13_1710,60.0160156406,Experimento Piloto1,001,134,
2.5,Stim\\03_028.jpg,Tr28_23,Tristeza,23,Óscar consigue un nuevo departamento.,Afirmación,Tr28,28,,,,,0,51,51,51,,,,,,,,,1,1.23261954529,2,2.69957981318,,,,,,,,,2018_jun._13_1710,60.0160156406,Experimento Piloto1,001,134,
0.25,Stim\\02_028.jpg,Al28_19,Alegría,19,Armando acompaña a Rodrígo a la tienda.,Afirmación,Al28,28,,,,,0,52,52,52,,,,,,,,,1,3.01417907384,3,0.649889687574,,,,,,,,,2018_jun._13_1710,60.0160156406,Experimento Piloto1,001,134,
0.25,Stim\\03_028.jpg,Tr28_28,Tristeza,28,Antonio responde la pregunta.,Afirmación,Tr28,28,,,,,0,53,53,53,,,,,,,,,1,2.38585118175,4,0.766926620816,,,,,,,,,2018_jun._13_1710,60.0160156406,Experimento Piloto1,001,134,
2.5,Stim\\05_075.jpg,En75_16,Enojo,16,Valeria modifica algunas imágenes.,Afirmación,En75,75,,,,,0,54,54,54,,,,,,,,,1,2.45044865742,2,0.900294880468,,,,,,,,,2018_jun._13_1710,60.0160156406,Experimento Piloto1,001,134,
0.25,Stim\\03_019.jpg,Tr19_28,Tristeza,28,Antonio responde la pregunta.,Afirmación,Tr19,19,,,,,0,55,55,55,,,,,,,,,1,2.05383175034,2,0.600172340854,,,,,,,,,2018_jun._13_1710,60.0160156406,Experimento Piloto1,001,134,
2.5,Stim\\03_019.jpg,Tr19_24,Tristeza,24,Guadalupe comenta los resultados con los compañeros.,Afirmación,Tr19,19,,,,,0,56,56,56,,,,,,,,,1,2.14031231983,2,2.23300778077,,,,,,,,,2018_jun._13_1710,60.0160156406,Experimento Piloto1,001,134,
0.25,Stim\\03_019.jpg,Tr19_30,Tristeza,30,Marisol toma 2 litros de agua cada día.,Afirmación,Tr19,19,,,,,0,57,57,57,,,,,,,,,1,3.41404377154,2,1.63331738742,,,,,,,,,2018_jun._13_1710,60.0160156406,Experimento Piloto1,001,134,
0.25,Stim\\02_075.jpg,Al75_23,Alegría,23,Óscar consigue un nuevo departamento.,Afirmación,Al75,75,,,,,0,58,58,58,,,,,,,,,1,1.46562598732,3,0.600342361222,,,,,,,,,2018_jun._13_1710,60.0160156406,Experimento Piloto1,001,134,
2.5,Stim\\02_078.jpg,Al78_22,Alegría,22,Enrique corre todas las mañanas.,Afirmación,Al78,78,,,,,0,59,59,59,,,,,,,,,1,1.03611348614,3,0.650166807383,,,,,,,,,2018_jun._13_1710,60.0160156406,Experimento Piloto1,001,134,
2.5,Stim\\05_075.jpg,En75_20,Enojo,20,Karen analiza la idea.,Afirmación,En75,75,,,,,0,60,60,60,,,,,,,,,1,1.54258854,2,0.900178409824,,,,,,,,,2018_jun._13_1710,60.0160156406,Experimento Piloto1,001,134,
2.5,Stim\\03_028.jpg,Tr28_18,Tristeza,18,Sofía escucha la música.,Afirmación,Tr28,28,,,,,0,61,61,61,,,,,,,,,1,1.88992943932,4,2.54981328997,,,,,,,,,2018_jun._13_1710,60.0160156406,Experimento Piloto1,001,134,
0.25,Stim\\02_028.jpg,Al28_22,Alegría,22,Enrique corre todas las mañanas.,Afirmación,Al28,28,,,,,0,62,62,62,,,,,,,,,1,1.06625662455,3,0.600362888615,,,,,,,,,2018_jun._13_1710,60.0160156406,Experimento Piloto1,001,134,
2.5,Stim\\03_075.jpg,Tr75_29,Tristeza,29,Miriam mira la película.,Afirmación,Tr75,75,,,,,0,63,63,63,,,,,,,,,1,1.39137126558,4,1.00016421915,,,,,,,,,2018_jun._13_1710,60.0160156406,Experimento Piloto1,001,134,
2.5,Stim\\05_075.jpg,En75_19,Enojo,19,Armando acompaña a Rodrígo a la tienda.,Afirmación,En75,75,,,,,0,64,64,64,,,,,,,,,1,1.03178443738,2,1.46672955784,,,,,,,,,2018_jun._13_1710,60.0160156406,Experimento Piloto1,001,134,
0.25,Stim\\05_078.jpg,En78_27,Enojo,27,Claudia informa los avances en el reporte.,Afirmación,En78,78,,,,,0,65,65,65,,,,,,,,,1,2.6458712272,2,0.650226604573,,,,,,,,,2018_jun._13_1710,60.0160156406,Experimento Piloto1,001,134,
0.25,Stim\\02_075.jpg,Al75_29,Alegría,29,Miriam mira la película.,Afirmación,Al75,75,,,,,0,66,66,66,,,,,,,,,1,1.17376616979,3,0.65027524557,,,,,,,,,2018_jun._13_1710,60.0160156406,Experimento Piloto1,001,134,
2.5,Stim\\03_075.jpg,Tr75_19,Tristeza,19,Armando acompaña a Rodrígo a la tienda.,Afirmación,Tr75,75,,,,,0,67,67,67,,,,,,,,,1,1.33194580054,4,0.600144227251,,,,,,,,,2018_jun._13_1710,60.0160156406,Experimento Piloto1,001,134,
2.5,Stim\\03_028.jpg,Tr28_22,Tristeza,22,Enrique corre todas las mañanas.,Afirmación,Tr28,28,,,,,0,68,68,68,,,,,,,,,1,0.919355457699,4,0.750164665395,,,,,,,,,2018_jun._13_1710,60.0160156406,Experimento Piloto1,001,134,
0.25,Stim\\03_078.jpg,Tr78_25,Tristeza,25,Luis decide la comida siguiente.,Afirmación,Tr78,78,,,,,0,69,69,69,,,,,,,,,1,2.70159729895,2,0.81662745637,,,,,,,,,2018_jun._13_1710,60.0160156406,Experimento Piloto1,001,134,
2.5,Stim\\02_028.jpg,Al28_19,Alegría,19,Armando acompaña a Rodrígo a la tienda.,Afirmación,Al28,28,,,,,0,70,70,70,,,,,,,,,1,1.43184548406,3,0.750393590455,,,,,,,,,2018_jun._13_1710,60.0160156406,Experimento Piloto1,001,134,
0.25,Stim\\02_075.jpg,Al75_25,Alegría,25,Luis decide la comida siguiente.,Afirmación,Al75,75,,,,,0,71,71,71,,,,,,,,,1,1.56836871482,3,0.600427594528,,,,,,,,,2018_jun._13_1710,60.0160156406,Experimento Piloto1,001,134,
2.5,Stim\\02_019.jpg,Al19_24,Alegría,24,Guadalupe comenta los resultados con los compañeros.,Afirmación,Al19,19,,,,,0,72,72,72,,,,,,,,,1,1.07353403174,3,1.26659952127,,,,,,,,,2018_jun._13_1710,60.0160156406,Experimento Piloto1,001,134,
0.25,Stim\\03_028.jpg,Tr28_23,Tristeza,23,Óscar consigue un nuevo departamento.,Afirmación,Tr28,28,,,,,0,73,73,73,,,,,,,,,1,2.38230306644,4,0.600612341069,,,,,,,,,2018_jun._13_1710,60.0160156406,Experimento Piloto1,001,134,
0.25,Stim\\03_028.jpg,Tr28_25,Tristeza,25,Luis decide la comida siguiente.,Afirmación,Tr28,28,,,,,0,74,74,74,,,,,,,,,1,2.300337631,4,0.700292916978,,,,,,,,,2018_jun._13_1710,60.0160156406,Experimento Piloto1,001,134,
0.25,Stim\\05_019.jpg,En19_23,Enojo,23,Óscar consigue un nuevo departamento.,Afirmación,En19,19,,,,,0,75,75,75,,,,,,,,,1,2.66587829576,2,0.900202507198,,,,,,,,,2018_jun._13_1710,60.0160156406,Experimento Piloto1,001,134,
2.5,Stim\\03_019.jpg,Tr19_26,Tristeza,26,Víctor trae el café a Marco.,Afirmación,Tr19,19,,,,,0,76,76,76,,,,,,,,,1,1.22167130467,2,0.967016495099,,,,,,,,,2018_jun._13_1710,60.0160156406,Experimento Piloto1,001,134,
0.25,Stim\\05_028.jpg,En28_30,Enojo,30,Marisol toma 2 litros de agua cada día.,Afirmación,En28,28,,,,,0,77,77,77,,,,,,,,,1,1.92886097957,2,0.750341379477,,,,,,,,,2018_jun._13_1710,60.0160156406,Experimento Piloto1,001,134,
2.5,Stim\\02_019.jpg,Al19_26,Alegría,26,Víctor trae el café a Marco.,Afirmación,Al19,19,,,,,0,78,78,78,,,,,,,,,1,1.03818452163,3,1.00012271811,,,,,,,,,2018_jun._13_1710,60.0160156406,Experimento Piloto1,001,134,
0.25,Stim\\03_075.jpg,Tr75_27,Tristeza,27,Claudia informa los avances en el reporte.,Afirmación,Tr75,75,,,,,0,79,79,79,,,,,,,,,1,1.01337984424,4,0.550300146191,,,,,,,,,2018_jun._13_1710,60.0160156406,Experimento Piloto1,001,134,
2.5,Stim\\02_078.jpg,Al78_27,Alegría,27,Claudia informa los avances en el reporte.,Afirmación,Al78,78,,,,,0,80,80,80,,,,,,,,,1,1.1834649169,3,0.600229906806,,,,,,,,,2018_jun._13_1710,60.0160156406,Experimento Piloto1,001,134,
0.25,Stim\\02_019.jpg,Al19_26,Alegría,26,Víctor trae el café a Marco.,Afirmación,Al19,19,,,,,0,81,81,81,,,,,,,,,1,1.38877008784,3,1.1503952862,,,,,,,,,2018_jun._13_1710,60.0160156406,Experimento Piloto1,001,134,
0.25,Stim\\03_019.jpg,Tr19_29,Tristeza,29,Miriam mira la película.,Afirmación,Tr19,19,,,,,0,82,82,82,,,,,,,,,1,2.40705597909,2,0.750235172528,,,,,,,,,2018_jun._13_1710,60.0160156406,Experimento Piloto1,001,134,
2.5,Stim\\05_075.jpg,En75_27,Enojo,27,Claudia informa los avances en el reporte.,Afirmación,En75,75,,,,,0,83,83,83,,,,,,,,,1,1.52860760013,2,0.716100348609,,,,,,,,,2018_jun._13_1710,60.0160156406,Experimento Piloto1,001,134,
0.25,Stim\\05_019.jpg,En19_25,Enojo,25,Luis decide la comida siguiente.,Afirmación,En19,19,,,,,0,84,84,84,,,,,,,,,1,1.59785899287,2,0.600473558039,,,,,,,,,2018_jun._13_1710,60.0160156406,Experimento Piloto1,001,134,
2.5,Stim\\03_028.jpg,Tr28_20,Tristeza,20,Karen analiza la idea.,Afirmación,Tr28,28,,,,,0,85,85,85,,,,,,,,,1,1.29260281993,4,0.750159310423,,,,,,,,,2018_jun._13_1710,60.0160156406,Experimento Piloto1,001,134,
2.5,Stim\\05_028.jpg,En28_26,Enojo,26,Víctor trae el café a Marco.,Afirmación,En28,28,,,,,0,86,86,86,,,,,,,,,1,1.02186256642,2,0.750275781067,,,,,,,,,2018_jun._13_1710,60.0160156406,Experimento Piloto1,001,134,
0.25,Stim\\05_028.jpg,En28_21,Enojo,21,Mauro anuncia la actividad.,Afirmación,En28,28,,,,,0,87,87,87,,,,,,,,,1,3.22161775495,2,0.550376900792,,,,,,,,,2018_jun._13_1710,60.0160156406,Experimento Piloto1,001,134,
0.25,Stim\\03_075.jpg,Tr75_22,Tristeza,22,Enrique corre todas las mañanas.,Afirmación,Tr75,75,,,,,0,88,88,88,,,,,,,,,1,1.83633018401,4,0.500408762876,,,,,,,,,2018_jun._13_1710,60.0160156406,Experimento Piloto1,001,134,
0.25,Stim\\05_028.jpg,En28_27,Enojo,27,Claudia informa los avances en el reporte.,Afirmación,En28,28,,,,,0,89,89,89,,,,,,,,,1,1.62796063025,2,0.650268105607,,,,,,,,,2018_jun._13_1710,60.0160156406,Experimento Piloto1,001,134,
2.5,Stim\\03_075.jpg,Tr75_22,Tristeza,22,Enrique corre todas las mañanas.,Afirmación,Tr75,75,,,,,0,90,90,90,,,,,,,,,1,1.27356500133,4,0.600266945363,,,,,,,,,2018_jun._13_1710,60.0160156406,Experimento Piloto1,001,134,
0.25,Stim\\05_019.jpg,En19_28,Enojo,28,Antonio responde la pregunta.,Afirmación,En19,19,,,,,0,91,91,91,,,,,,,,,1,1.88766383984,2,0.600261590391,,,,,,,,,2018_jun._13_1710,60.0160156406,Experimento Piloto1,001,134,
2.5,Stim\\03_019.jpg,Tr19_17,Tristeza,17,Brenda sube el autobús en las mañanas.,Afirmación,Tr19,19,,,,,0,92,92,92,,,,,,,,,1,1.36549827124,2,0.766878426067,,,,,,,,,2018_jun._13_1710,60.0160156406,Experimento Piloto1,001,134,
0.25,Stim\\05_028.jpg,En28_29,Enojo,29,Miriam mira la película.,Afirmación,En28,28,,,,,0,93,93,93,,,,,,,,,1,1.99049626312,2,0.700157257683,,,,,,,,,2018_jun._13_1710,60.0160156406,Experimento Piloto1,001,134,
0.25,Stim\\05_028.jpg,En28_18,Enojo,18,Sofía escucha la música.,Afirmación,En28,28,,,,,0,94,94,94,,,,,,,,,1,1.32310117149,2,0.650373866308,,,,,,,,,2018_jun._13_1710,60.0160156406,Experimento Piloto1,001,134,
0.25,Stim\\05_028.jpg,En28_25,Enojo,25,Luis decide la comida siguiente.,Afirmación,En28,28,,,,,0,95,95,95,,,,,,,,,1,2.6682773233,2,2.18310791875,,,,,,,,,2018_jun._13_1710,60.0160156406,Experimento Piloto1,001,134,
2.5,Stim\\03_075.jpg,Tr75_16,Tristeza,16,Valeria modifica algunas imágenes.,Afirmación,Tr75,75,,,,,0,96,96,96,,,,,,,,,1,0.868819692731,4,0.750145030496,,,,,,,,,2018_jun._13_1710,60.0160156406,Experimento Piloto1,001,134,
2.5,Stim\\05_019.jpg,En19_18,Enojo,18,Sofía escucha la música.,Afirmación,En19,19,,,,,0,97,97,97,,,,,,,,,1,3.02434727352,2,0.65029443422,,,,,,,,,2018_jun._13_1710,60.0160156406,Experimento Piloto1,001,134,
0.25,Stim\\05_075.jpg,En75_28,Enojo,28,Antonio responde la pregunta.,Afirmación,En75,75,,,,,0,98,98,98,,,,,,,,,1,1.63786465129,2,0.75009817449,,,,,,,,,2018_jun._13_1710,60.0160156406,Experimento Piloto1,001,134,
0.25,Stim\\03_019.jpg,Tr19_24,Tristeza,24,Guadalupe comenta los resultados con los compañeros.,Afirmación,Tr19,19,,,,,0,99,99,99,,,,,,,,,1,1.72448846628,2,0.650310052889,,,,,,,,,2018_jun._13_1710,60.0160156406,Experimento Piloto1,001,134,
0.25,Stim\\02_075.jpg,Al75_21,Alegría,21,Mauro anuncia la actividad.,Afirmación,Al75,75,,,,,0,100,100,100,,,,,,,,,1,1.26975315363,3,0.750235618776,,,,,,,,,2018_jun._13_1710,60.0160156406,Experimento Piloto1,001,134,
0.25,Stim\\03_019.jpg,Tr19_23,Tristeza,23,Óscar consigue un nuevo departamento.,Afirmación,Tr19,19,,,,,0,101,101,101,,,,,,,,,1,1.94898675001,2,1.14999723326,,,,,,,,,2018_jun._13_1710,60.0160156406,Experimento Piloto1,001,134,
2.5,Stim\\05_028.jpg,En28_30,Enojo,30,Marisol toma 2 litros de agua cada día.,Afirmación,En28,28,,,,,0,102,102,102,,,,,,,,,1,1.08179318383,2,0.64994993101,,,,,,,,,2018_jun._13_1710,60.0160156406,Experimento Piloto1,001,134,
0.25,Stim\\02_078.jpg,Al78_19,Alegría,19,Armando acompaña a Rodrígo a la tienda.,Afirmación,Al78,78,,,,,0,103,103,103,,,,,,,,,1,1.83106713886,3,0.750298985947,,,,,,,,,2018_jun._13_1710,60.0160156406,Experimento Piloto1,001,134,
2.5,Stim\\03_075.jpg,Tr75_25,Tristeza,25,Luis decide la comida siguiente.,Afirmación,Tr75,75,,,,,0,104,104,104,,,,,,,,,1,1.3322336303,4,0.549975724126,,,,,,,,,2018_jun._13_1710,60.0160156406,Experimento Piloto1,001,134,
2.5,Stim\\03_028.jpg,Tr28_29,Tristeza,29,Miriam mira la película.,Afirmación,Tr28,28,,,,,0,105,105,105,,,,,,,,,1,1.32466259213,4,0.600413314603,,,,,,,,,2018_jun._13_1710,60.0160156406,Experimento Piloto1,001,134,
0.25,Stim\\03_028.jpg,Tr28_24,Tristeza,24,Guadalupe comenta los resultados con los compañeros.,Afirmación,Tr28,28,,,,,0,106,106,106,,,,,,,,,1,2.90692344353,4,0.850199115715,,,,,,,,,2018_jun._13_1710,60.0160156406,Experimento Piloto1,001,134,
0.25,Stim\\02_075.jpg,Al75_30,Alegría,30,Marisol toma 2 litros de agua cada día.,Afirmación,Al75,75,,,,,0,107,107,107,,,,,,,,,1,1.31441853035,3,0.650264981874,,,,,,,,,2018_jun._13_1710,60.0160156406,Experimento Piloto1,001,134,
2.5,Stim\\05_019.jpg,En19_27,Enojo,27,Claudia informa los avances en el reporte.,Afirmación,En19,19,,,,,0,108,108,108,,,,,,,,,1,1.47989297196,2,0.600417777079,,,,,,,,,2018_jun._13_1710,60.0160156406,Experimento Piloto1,001,134,
2.5,Stim\\05_075.jpg,En75_18,Enojo,18,Sofía escucha la música.,Afirmación,En75,75,,,,,0,109,109,109,,,,,,,,,1,1.14111154943,2,0.75025971615,,,,,,,,,2018_jun._13_1710,60.0160156406,Experimento Piloto1,001,134,
2.5,Stim\\02_028.jpg,Al28_23,Alegría,23,Óscar consigue un nuevo departamento.,Afirmación,Al28,28,,,,,0,110,110,110,,,,,,,,,1,0.915728356541,3,0.650327902797,,,,,,,,,2018_jun._13_1710,60.0160156406,Experimento Piloto1,001,134,
2.5,Stim\\05_078.jpg,En78_29,Enojo,29,Miriam mira la película.,Afirmación,En78,78,,,,,0,111,111,111,,,,,,,,,1,0.824787541479,2,0.600393679705,,,,,,,,,2018_jun._13_1710,60.0160156406,Experimento Piloto1,001,134,
0.25,Stim\\03_078.jpg,Tr78_20,Tristeza,20,Karen analiza la idea.,Afirmación,Tr78,78,,,,,0,112,112,112,,,,,,,,,1,1.62599758669,4,0.550412154359,,,,,,,,,2018_jun._13_1710,60.0160156406,Experimento Piloto1,001,134,
0.25,Stim\\02_019.jpg,Al19_25,Alegría,25,Luis decide la comida siguiente.,Afirmación,Al19,19,,,,,0,113,113,113,,,,,,,,,1,1.01895437028,3,0.600377614788,,,,,,,,,2018_jun._13_1710,60.0160156406,Experimento Piloto1,001,134,
2.5,Stim\\03_078.jpg,Tr78_16,Tristeza,16,Valeria modifica algunas imágenes.,Afirmación,Tr78,78,,,,,0,114,114,114,,,,,,,,,1,1.11888573739,4,0.450464276088,,,,,,,,,2018_jun._13_1710,60.0160156406,Experimento Piloto1,001,134,
0.25,Stim\\02_028.jpg,Al28_21,Alegría,21,Mauro anuncia la actividad.,Afirmación,Al28,28,,,,,0,115,115,115,,,,,,,,,1,0.972896700802,3,0.500390466721,,,,,,,,,2018_jun._13_1710,60.0160156406,Experimento Piloto1,001,134,
2.5,Stim\\05_019.jpg,En19_30,Enojo,30,Marisol toma 2 litros de agua cada día.,Afirmación,En19,19,,,,,0,116,116,116,,,,,,,,,1,1.48138567045,2,0.700302734427,,,,,,,,,2018_jun._13_1710,60.0160156406,Experimento Piloto1,001,134,
0.25,Stim\\05_078.jpg,En78_26,Enojo,26,Víctor trae el café a Marco.,Afirmación,En78,78,,,,,0,117,117,117,,,,,,,,,1,1.52118025372,2,0.700250077201,,,,,,,,,2018_jun._13_1710,60.0160156406,Experimento Piloto1,001,134,
0.25,Stim\\02_078.jpg,Al78_21,Alegría,21,Mauro anuncia la actividad.,Afirmación,Al78,78,,,,,0,118,118,118,,,,,,,,,1,1.48945115105,3,0.800063188672,,,,,,,,,2018_jun._13_1710,60.0160156406,Experimento Piloto1,001,134,
0.25,Stim\\03_075.jpg,Tr75_30,Tristeza,30,Marisol toma 2 litros de agua cada día.,Afirmación,Tr75,75,,,,,0,119,119,119,,,,,,,,,1,2.81450287116,4,0.483692770967,,,,,,,,,2018_jun._13_1710,60.0160156406,Experimento Piloto1,001,134,
2.5,Stim\\02_078.jpg,Al78_17,Alegría,17,Brenda sube el autobús en las mañanas.,Afirmación,Al78,78,,,,,,,,,0,0,0,0,,,,,,,,,1,2.28146224655,3,0.550262661385,,,,,2018_jun._13_1710,60.0160156406,Experimento Piloto1,001,134,
2.5,Stim\\05_019.jpg,En19_23,Enojo,23,Óscar consigue un nuevo departamento.,Afirmación,En19,19,,,,,,,,,0,1,1,1,,,,,,,,,1,0.965958441846,2,1.66674401626,,,,,2018_jun._13_1710,60.0160156406,Experimento Piloto1,001,134,
0.25,Stim\\02_075.jpg,Al75_17,Alegría,17,Brenda sube el autobús en las mañanas.,Afirmación,Al75,75,,,,,,,,,0,2,2,2,,,,,,,,,1,1.23135621811,3,0.383647610701,,,,,2018_jun._13_1710,60.0160156406,Experimento Piloto1,001,134,
2.5,Stim\\02_075.jpg,Al75_24,Alegría,24,Guadalupe comenta los resultados con los compañeros.,Afirmación,Al75,75,,,,,,,,,0,3,3,3,,,,,,,,,1,0.956407848961,3,0.816875570082,,,,,2018_jun._13_1710,60.0160156406,Experimento Piloto1,001,134,
0.25,Stim\\05_075.jpg,En75_19,Enojo,19,Armando acompaña a Rodrígo a la tienda.,Afirmación,En75,75,,,,,,,,,0,4,4,4,,,,,,,,,1,1.56461844931,4,1.16676855989,,,,,2018_jun._13_1710,60.0160156406,Experimento Piloto1,001,134,
2.5,Stim\\02_019.jpg,Al19_29,Alegría,29,Miriam mira la película.,Afirmación,Al19,19,,,,,,,,,0,5,5,5,,,,,,,,,1,1.12391450251,3,0.650294434221,,,,,2018_jun._13_1710,60.0160156406,Experimento Piloto1,001,134,
2.5,Stim\\02_078.jpg,Al78_24,Alegría,24,Guadalupe comenta los resultados con los compañeros.,Afirmación,Al78,78,,,,,,,,,0,6,6,6,,,,,,,,,1,1.41075358739,3,0.600449906913,,,,,2018_jun._13_1710,60.0160156406,Experimento Piloto1,001,134,
0.25,Stim\\05_028.jpg,En28_20,Enojo,20,Karen analiza la idea.,Afirmación,En28,28,,,,,,,,,0,7,7,7,,,,,,,,,1,1.59273963947,2,0.700270158347,,,,,2018_jun._13_1710,60.0160156406,Experimento Piloto1,001,134,
0.25,Stim\\03_078.jpg,Tr78_27,Tristeza,27,Claudia informa los avances en el reporte.,Afirmación,Tr78,78,,,,,,,,,0,8,8,8,,,,,,,,,1,1.82882295927,4,0.500323529569,,,,,2018_jun._13_1710,60.0160156406,Experimento Piloto1,001,134,
0.25,Stim\\02_019.jpg,Al19_30,Alegría,30,Marisol toma 2 litros de agua cada día.,Afirmación,Al19,19,,,,,,,,,0,9,9,9,,,,,,,,,1,1.41516519197,3,0.600455708132,,,,,2018_jun._13_1710,60.0160156406,Experimento Piloto1,001,134,
2.5,Stim\\02_019.jpg,Al19_19,Alegría,19,Armando acompaña a Rodrígo a la tienda.,Afirmación,Al19,19,,,,,,,,,0,10,10,10,,,,,,,,,1,1.53187859564,3,0.550291221237,,,,,2018_jun._13_1710,60.0160156406,Experimento Piloto1,001,134,
0.25,Stim\\02_028.jpg,Al28_30,Alegría,30,Marisol toma 2 litros de agua cada día.,Afirmación,Al28,28,,,,,,,,,0,11,11,11,,,,,,,,,1,1.26448519975,3,0.700357176645,,,,,2018_jun._13_1710,60.0160156406,Experimento Piloto1,001,134,
2.5,Stim\\02_019.jpg,Al19_16,Alegría,16,Valeria modifica algunas imágenes.,Afirmación,Al19,19,,,,,,,,,0,12,12,12,,,,,,,,,1,1.13455304725,3,0.600226336825,,,,,2018_jun._13_1710,60.0160156406,Experimento Piloto1,001,134,
2.5,Stim\\03_075.jpg,Tr75_30,Tristeza,30,Marisol toma 2 litros de agua cada día.,Afirmación,Tr75,75,,,,,,,,,0,13,13,13,,,,,,,,,1,0.698433849137,4,0.600440535712,,,,,2018_jun._13_1710,60.0160156406,Experimento Piloto1,001,134,
2.5,Stim\\02_078.jpg,Al78_19,Alegría,19,Armando acompaña a Rodrígo a la tienda.,Afirmación,Al78,78,,,,,,,,,0,14,14,14,,,,,,,,,1,1.28162468071,3,0.500190547759,,,,,2018_jun._13_1710,60.0160156406,Experimento Piloto1,001,134,
2.5,Stim\\05_075.jpg,En75_25,Enojo,25,Luis decide la comida siguiente.,Afirmación,En75,75,,,,,,,,,0,15,15,15,,,,,,,,,1,1.21908217562,2,0.866496081053,,,,,2018_jun._13_1710,60.0160156406,Experimento Piloto1,001,134,
0.25,Stim\\03_075.jpg,Tr75_24,Tristeza,24,Guadalupe comenta los resultados con los compañeros.,Afirmación,Tr75,75,,,,,,,,,0,16,16,16,,,,,,,,,1,1.40591626252,4,0.500358783136,,,,,2018_jun._13_1710,60.0160156406,Experimento Piloto1,001,134,
2.5,Stim\\05_078.jpg,En78_25,Enojo,25,Luis decide la comida siguiente.,Afirmación,En78,78,,,,,,,,,0,17,17,17,,,,,,,,,1,0.650606807598,2,0.600365119853,,,,,2018_jun._13_1710,60.0160156406,Experimento Piloto1,001,134,
2.5,Stim\\05_028.jpg,En28_17,Enojo,17,Brenda sube el autobús en las mañanas.,Afirmación,En28,28,,,,,,,,,0,18,18,18,,,,,,,,,1,1.18113104152,2,0.650217233371,,,,,2018_jun._13_1710,60.0160156406,Experimento Piloto1,001,134,
0.25,Stim\\02_078.jpg,Al78_26,Alegría,26,Víctor trae el café a Marco.,Afirmación,Al78,78,,,,,,,,,0,19,19,19,,,,,,,,,1,1.63867860707,3,0.65025784191,,,,,2018_jun._13_1710,60.0160156406,Experimento Piloto1,001,134,
2.5,Stim\\03_075.jpg,Tr75_20,Tristeza,20,Karen analiza la idea.,Afirmación,Tr75,75,,,,,,,,,0,20,20,20,,,,,,,,,1,0.925333837891,4,0.549863269711,,,,,2018_jun._13_1710,60.0160156406,Experimento Piloto1,001,134,
2.5,Stim\\05_028.jpg,En28_21,Enojo,21,Mauro anuncia la actividad.,Afirmación,En28,28,,,,,,,,,0,21,21,21,,,,,,,,,1,2.13686728772,2,0.600384754752,,,,,2018_jun._13_1710,60.0160156406,Experimento Piloto1,001,134,
0.25,Stim\\05_019.jpg,En19_21,Enojo,21,Mauro anuncia la actividad.,Afirmación,En19,19,,,,,,,,,0,22,22,22,,,,,,,,,1,0.933508202926,2,0.700340219232,,,,,2018_jun._13_1710,60.0160156406,Experimento Piloto1,001,134,
0.25,Stim\\03_028.jpg,Tr28_16,Tristeza,16,Valeria modifica algunas imágenes.,Afirmación,Tr28,28,,,,,,,,,0,23,23,23,,,,,,,,,1,1.5340710105,4,0.499998215009,,,,,2018_jun._13_1710,60.0160156406,Experimento Piloto1,001,134,
0.25,Stim\\05_075.jpg,En75_27,Enojo,27,Claudia informa los avances en el reporte.,Afirmación,En75,75,,,,,,,,,0,24,24,24,,,,,,,,,1,1.0466502864,2,0.817058531631,,,,,2018_jun._13_1710,60.0160156406,Experimento Piloto1,001,134,
2.5,Stim\\02_078.jpg,Al78_18,Alegría,18,Sofía escucha la música.,Afirmación,Al78,78,,,,,,,,,0,25,25,25,,,,,,,,,1,1.1245722716,3,0.55030416242,,,,,2018_jun._13_1710,60.0160156406,Experimento Piloto1,001,134,
2.5,Stim\\03_028.jpg,Tr28_25,Tristeza,25,Luis decide la comida siguiente.,Afirmación,Tr28,28,,,,,,,,,0,26,26,26,,,,,,,,,1,1.06770469827,4,0.500307910901,,,,,2018_jun._13_1710,60.0160156406,Experimento Piloto1,001,134,
0.25,Stim\\03_075.jpg,Tr75_18,Tristeza,18,Sofía escucha la música.,Afirmación,Tr75,75,,,,,,,,,0,27,27,27,,,,,,,,,1,1.42394823884,4,0.550298807448,,,,,2018_jun._13_1710,60.0160156406,Experimento Piloto1,001,134,
2.5,Stim\\02_028.jpg,Al28_27,Alegría,27,Claudia informa los avances en el reporte.,Afirmación,Al28,28,,,,,,,,,0,28,28,28,,,,,,,,,1,0.912775089383,3,0.50032352957,,,,,2018_jun._13_1710,60.0160156406,Experimento Piloto1,001,134,
2.5,Stim\\02_028.jpg,Al28_20,Alegría,20,Karen analiza la idea.,Afirmación,Al28,28,,,,,,,,,0,29,29,29,,,,,,,,,1,0.573259589416,3,0.483521411857,,,,,2018_jun._13_1710,60.0160156406,Experimento Piloto1,001,134,
0.25,Stim\\05_078.jpg,En78_29,Enojo,29,Miriam mira la película.,Afirmación,En78,78,,,,,,,,,0,30,30,30,,,,,,,,,1,1.07489196344,2,0.750193671493,,,,,2018_jun._13_1710,60.0160156406,Experimento Piloto1,001,134,
0.25,Stim\\05_019.jpg,En19_22,Enojo,22,Enrique corre todas las mañanas.,Afirmación,En19,19,,,,,,,,,0,31,31,31,,,,,,,,,1,1.9521948246,2,0.750237850014,,,,,2018_jun._13_1710,60.0160156406,Experimento Piloto1,001,134,
2.5,Stim\\03_019.jpg,Tr19_20,Tristeza,20,Karen analiza la idea.,Afirmación,Tr19,19,,,,,,,,,0,32,32,32,,,,,,,,,1,1.34214791504,2,0.900223480839,,,,,2018_jun._13_1710,60.0160156406,Experimento Piloto1,001,134,
2.5,Stim\\05_078.jpg,En78_22,Enojo,22,Enrique corre todas las mañanas.,Afirmación,En78,78,,,,,,,,,0,33,33,33,,,,,,,,,1,2.00290953488,2,0.533706426145,,,,,2018_jun._13_1710,60.0160156406,Experimento Piloto1,001,134,
2.5,Stim\\02_078.jpg,Al78_16,Alegría,16,Valeria modifica algunas imágenes.,Afirmación,Al78,78,,,,,,,,,0,34,34,34,,,,,,,,,1,0.718040187281,3,0.600209379412,,,,,2018_jun._13_1710,60.0160156406,Experimento Piloto1,001,134,
2.5,Stim\\05_028.jpg,En28_24,Enojo,24,Guadalupe comenta los resultados con los compañeros.,Afirmación,En28,28,,,,,,,,,0,35,35,35,,,,,,,,,1,0.75645631146,2,1.01643128589,,,,,2018_jun._13_1710,60.0160156406,Experimento Piloto1,001,134,
2.5,Stim\\02_075.jpg,Al75_16,Alegría,16,Valeria modifica algunas imágenes.,Afirmación,Al75,75,,,,,,,,,0,36,36,36,,,,,,,,,1,0.852064877273,3,0.550441160458,,,,,2018_jun._13_1710,60.0160156406,Experimento Piloto1,001,134,
0.25,Stim\\02_019.jpg,Al19_18,Alegría,18,Sofía escucha la música.,Afirmación,Al19,19,,,,,,,,,0,37,37,37,,,,,,,,,1,1.69054597511,3,0.550308624897,,,,,2018_jun._13_1710,60.0160156406,Experimento Piloto1,001,134,
2.5,Stim\\02_028.jpg,Al28_26,Alegría,26,Víctor trae el café a Marco.,Afirmación,Al28,28,,,,,,,,,0,38,38,38,,,,,,,,,1,2.30523832304,3,0.550270693844,,,,,2018_jun._13_1710,60.0160156406,Experimento Piloto1,001,134,
2.5,Stim\\02_078.jpg,Al78_29,Alegría,29,Miriam mira la película.,Afirmación,Al78,78,,,,,,,,,0,39,39,39,,,,,,,,,1,0.724523273602,3,0.499988843808,,,,,2018_jun._13_1710,60.0160156406,Experimento Piloto1,001,134,
0.25,Stim\\05_078.jpg,En78_24,Enojo,24,Guadalupe comenta los resultados con los compañeros.,Afirmación,En78,78,,,,,,,,,0,40,40,40,,,,,,,,,1,1.20672200733,2,0.65020964716,,,,,2018_jun._13_1710,60.0160156406,Experimento Piloto1,001,134,
0.25,Stim\\03_075.jpg,Tr75_19,Tristeza,19,Armando acompaña a Rodrígo a la tienda.,Afirmación,Tr75,75,,,,,,,,,0,41,41,41,,,,,,,,,1,1.16539768701,4,0.64985175652,,,,,2018_jun._13_1710,60.0160156406,Experimento Piloto1,001,134,
0.25,Stim\\02_028.jpg,Al28_17,Alegría,17,Brenda sube el autobús en las mañanas.,Afirmación,Al28,28,,,,,,,,,0,42,42,42,,,,,,,,,1,1.51524069707,3,0.500265071122,,,,,2018_jun._13_1710,60.0160156406,Experimento Piloto1,001,134,
2.5,Stim\\05_075.jpg,En75_21,Enojo,21,Mauro anuncia la actividad.,Afirmación,En75,75,,,,,,,,,0,43,43,43,,,,,,,,,1,1.23593561181,2,0.650314961614,,,,,2018_jun._13_1710,60.0160156406,Experimento Piloto1,001,134,
0.25,Stim\\03_019.jpg,Tr19_27,Tristeza,27,Claudia informa los avances en el reporte.,Afirmación,Tr19,19,,,,,,,,,0,44,44,44,,,,,,,,,1,1.11180557167,2,1.41659095331,,,,,2018_jun._13_1710,60.0160156406,Experimento Piloto1,001,134,
2.5,Stim\\02_075.jpg,Al75_19,Alegría,19,Armando acompaña a Rodrígo a la tienda.,Afirmación,Al75,75,,,,,,,,,0,45,45,45,,,,,,,,,1,0.398043114666,3,0.650234637031,,,,,2018_jun._13_1710,60.0160156406,Experimento Piloto1,001,134,
2.5,Stim\\03_019.jpg,Tr19_22,Tristeza,22,Enrique corre todas las mañanas.,Afirmación,Tr19,19,,,,,,,,,0,46,46,46,,,,,,,,,1,1.48611991211,4,0.750189655265,,,,,2018_jun._13_1710,60.0160156406,Experimento Piloto1,001,134,
2.5,Stim\\02_075.jpg,Al75_23,Alegría,23,Óscar consigue un nuevo departamento.,Afirmación,Al75,75,,,,,,,,,0,47,47,47,,,,,,,,,1,0.715671950834,3,0.70024829221,,,,,2018_jun._13_1710,60.0160156406,Experimento Piloto1,001,134,
2.5,Stim\\02_019.jpg,Al19_27,Alegría,27,Claudia informa los avances en el reporte.,Afirmación,Al19,19,,,,,,,,,0,48,48,48,,,,,,,,,1,1.32942985611,3,0.85013664104,,,,,2018_jun._13_1710,60.0160156406,Experimento Piloto1,001,134,
2.5,Stim\\03_028.jpg,Tr28_16,Tristeza,16,Valeria modifica algunas imágenes.,Afirmación,Tr28,28,,,,,,,,,0,49,49,49,,,,,,,,,1,1.16825367217,4,0.550429558019,,,,,2018_jun._13_1710,60.0160156406,Experimento Piloto1,001,134,
2.5,Stim\\02_078.jpg,Al78_20,Alegría,20,Karen analiza la idea.,Afirmación,Al78,78,,,,,,,,,0,50,50,50,,,,,,,,,1,0.725242624864,3,0.550187691775,,,,,2018_jun._13_1710,60.0160156406,Experimento Piloto1,001,134,
2.5,Stim\\05_075.jpg,En75_24,Enojo,24,Guadalupe comenta los resultados con los compañeros.,Afirmación,En75,75,,,,,,,,,0,51,51,51,,,,,,,,,1,1.05609065611,2,0.650468917064,,,,,2018_jun._13_1710,60.0160156406,Experimento Piloto1,001,134,
0.25,Stim\\03_028.jpg,Tr28_26,Tristeza,26,Víctor trae el café a Marco.,Afirmación,Tr28,28,,,,,,,,,0,52,52,52,,,,,,,,,1,1.88838051361,4,0.700308981895,,,,,2018_jun._13_1710,60.0160156406,Experimento Piloto1,001,134,
2.5,Stim\\03_028.jpg,Tr28_21,Tristeza,21,Mauro anuncia la actividad.,Afirmación,Tr28,28,,,,,,,,,0,53,53,53,,,,,,,,,1,1.48962161767,4,0.816785874297,,,,,2018_jun._13_1710,60.0160156406,Experimento Piloto1,001,134,
2.5,Stim\\02_075.jpg,Al75_29,Alegría,29,Miriam mira la película.,Afirmación,Al75,75,,,,,,,,,0,54,54,54,,,,,,,,,1,0.874053285544,3,0.750251237445,,,,,2018_jun._13_1710,60.0160156406,Experimento Piloto1,001,134,
0.25,Stim\\03_078.jpg,Tr78_26,Tristeza,26,Víctor trae el café a Marco.,Afirmación,Tr78,78,,,,,,,,,0,55,55,55,,,,,,,,,1,1.17147558043,4,0.383617265858,,,,,2018_jun._13_1710,60.0160156406,Experimento Piloto1,001,134,
0.25,Stim\\05_019.jpg,En19_19,Enojo,19,Armando acompaña a Rodrígo a la tienda.,Afirmación,En19,19,,,,,,,,,0,56,56,56,,,,,,,,,1,0.764760534569,2,0.850288365252,,,,,2018_jun._13_1710,60.0160156406,Experimento Piloto1,001,134,
0.25,Stim\\03_078.jpg,Tr78_19,Tristeza,19,Armando acompaña a Rodrígo a la tienda.,Afirmación,Tr78,78,,,,,,,,,0,57,57,57,,,,,,,,,1,1.64998116835,4,0.500102190719,,,,,2018_jun._13_1710,60.0160156406,Experimento Piloto1,001,134,
2.5,Stim\\03_078.jpg,Tr78_18,Tristeza,18,Sofía escucha la música.,Afirmación,Tr78,78,,,,,,,,,0,58,58,58,,,,,,,,,1,1.12368736244,4,0.500230710051,,,,,2018_jun._13_1710,60.0160156406,Experimento Piloto1,001,134,
2.5,Stim\\05_075.jpg,En75_26,Enojo,26,Víctor trae el café a Marco.,Afirmación,En75,75,,,,,,,,,0,59,59,59,,,,,,,,,1,0.870460991706,2,0.650107902689,,,,,2018_jun._13_1710,60.0160156406,Experimento Piloto1,001,134,
2.5,Stim\\02_075.jpg,Al75_30,Alegría,30,Marisol toma 2 litros de agua cada día.,Afirmación,Al75,75,,,,,,,,,0,60,60,60,,,,,,,,,1,0.914735009202,3,0.600251326694,,,,,2018_jun._13_1710,60.0160156406,Experimento Piloto1,001,134,
2.5,Stim\\03_019.jpg,Tr19_18,Tristeza,18,Sofía escucha la música.,Afirmación,Tr19,19,,,,,,,,,0,61,61,61,,,,,,,,,1,3.34002065234,4,0.583834320731,,,,,2018_jun._13_1710,60.0160156406,Experimento Piloto1,001,134,
0.25,Stim\\03_078.jpg,Tr78_23,Tristeza,23,Óscar consigue un nuevo departamento.,Afirmación,Tr78,78,,,,,,,,,0,62,62,62,,,,,,,,,1,2.81609419039,3,1.73325500199,,,,,2018_jun._13_1710,60.0160156406,Experimento Piloto1,001,134,
2.5,Stim\\03_019.jpg,Tr19_25,Tristeza,25,Luis decide la comida siguiente.,Afirmación,Tr19,19,,,,,,,,,0,63,63,63,,,,,,,,,1,1.48382084405,2,0.900127537588,,,,,2018_jun._13_1710,60.0160156406,Experimento Piloto1,001,134,
0.25,Stim\\02_028.jpg,Al28_29,Alegría,29,Miriam mira la película.,Afirmación,Al28,28,,,,,,,,,0,64,64,64,,,,,,,,,1,1.12035344601,3,0.550360389628,,,,,2018_jun._13_1710,60.0160156406,Experimento Piloto1,001,134,
2.5,Stim\\02_019.jpg,Al19_21,Alegría,21,Mauro anuncia la actividad.,Afirmación,Al19,19,,,,,,,,,0,65,65,65,,,,,,,,,1,1.12285466427,3,0.550478645263,,,,,2018_jun._13_1710,60.0160156406,Experimento Piloto1,001,134,
2.5,Stim\\02_078.jpg,Al78_25,Alegría,25,Luis decide la comida siguiente.,Afirmación,Al78,78,,,,,,,,,0,66,66,66,,,,,,,,,1,0.867998596997,3,0.550296129962,,,,,2018_jun._13_1710,60.0160156406,Experimento Piloto1,001,134,
2.5,Stim\\05_075.jpg,En75_29,Enojo,29,Miriam mira la película.,Afirmación,En75,75,,,,,,,,,0,67,67,67,,,,,,,,,1,0.765762806862,2,0.950123789106,,,,,2018_jun._13_1710,60.0160156406,Experimento Piloto1,001,134,
0.25,Stim\\03_028.jpg,Tr28_20,Tristeza,20,Karen analiza la idea.,Afirmación,Tr28,28,,,,,,,,,0,68,68,68,,,,,,,,,1,1.22544656006,4,0.700275067072,,,,,2018_jun._13_1710,60.0160156406,Experimento Piloto1,001,134,
2.5,Stim\\02_075.jpg,Al75_26,Alegría,26,Víctor trae el café a Marco.,Afirmación,Al75,75,,,,,,,,,0,69,69,69,,,,,,,,,1,0.918538378193,3,0.600484714232,,,,,2018_jun._13_1710,60.0160156406,Experimento Piloto1,001,134,
0.25,Stim\\05_019.jpg,En19_20,Enojo,20,Karen analiza la idea.,Afirmación,En19,19,,,,,,,,,0,70,70,70,,,,,,,,,1,3.3918572293,2,1.3166024665,,,,,2018_jun._13_1710,60.0160156406,Experimento Piloto1,001,134,
0.25,Stim\\05_028.jpg,En28_22,Enojo,22,Enrique corre todas las mañanas.,Afirmación,En28,28,,,,,,,,,0,71,71,71,,,,,,,,,1,2.80022919281,2,1.01668564707,,,,,2018_jun._13_1710,60.0160156406,Experimento Piloto1,001,134,
2.5,Stim\\05_028.jpg,En28_22,Enojo,22,Enrique corre todas las mañanas.,Afirmación,En28,28,,,,,,,,,0,72,72,72,,,,,,,,,1,0.117090482965,2,0.900156989935,,,,,2018_jun._13_1710,60.0160156406,Experimento Piloto1,001,134,
0.25,Stim\\05_019.jpg,En19_17,Enojo,17,Brenda sube el autobús en las mañanas.,Afirmación,En19,19,,,,,,,,,0,73,73,73,,,,,,,,,1,1.68152864821,2,0.75016555789,,,,,2018_jun._13_1710,60.0160156406,Experimento Piloto1,001,134,
2.5,Stim\\05_078.jpg,En78_26,Enojo,26,Víctor trae el café a Marco.,Afirmación,En78,78,,,,,,,,,0,74,74,74,,,,,,,,,1,1.02223652198,2,0.650342182723,,,,,2018_jun._13_1710,60.0160156406,Experimento Piloto1,001,134,
2.5,Stim\\03_078.jpg,Tr78_29,Tristeza,29,Miriam mira la película.,Afirmación,Tr78,78,,,,,,,,,0,75,75,75,,,,,,,,,1,1.70668452252,4,0.38365341192,,,,,2018_jun._13_1710,60.0160156406,Experimento Piloto1,001,134,
0.25,Stim\\02_075.jpg,Al75_22,Alegría,22,Enrique corre todas las mañanas.,Afirmación,Al75,75,,,,,,,,,0,76,76,76,,,,,,,,,1,1.06955171743,3,0.600281225288,,,,,2018_jun._13_1710,60.0160156406,Experimento Piloto1,001,134,
2.5,Stim\\02_019.jpg,Al19_23,Alegría,23,Óscar consigue un nuevo departamento.,Afirmación,Al19,19,,,,,,,,,0,77,77,77,,,,,,,,,1,1.01053947775,3,0.550313087373,,,,,2018_jun._13_1710,60.0160156406,Experimento Piloto1,001,134,
0.25,Stim\\05_075.jpg,En75_21,Enojo,21,Mauro anuncia la actividad.,Afirmación,En75,75,,,,,,,,,0,78,78,78,,,,,,,,,1,2.45558630698,2,1.68295217831,,,,,2018_jun._13_1710,60.0160156406,Experimento Piloto1,001,134,
0.25,Stim\\02_078.jpg,Al78_25,Alegría,25,Luis decide la comida siguiente.,Afirmación,Al78,78,,,,,,,,,0,79,79,79,,,,,,,,,1,1.88462667811,3,0.549891383314,,,,,2018_jun._13_1710,60.0160156406,Experimento Piloto1,001,134,
0.25,Stim\\03_078.jpg,Tr78_22,Tristeza,22,Enrique corre todas las mañanas.,Afirmación,Tr78,78,,,,,,,,,0,80,80,80,,,,,,,,,1,1.26997449248,4,0.500016957412,,,,,2018_jun._13_1710,60.0160156406,Experimento Piloto1,001,134,
0.25,Stim\\05_028.jpg,En28_26,Enojo,26,Víctor trae el café a Marco.,Afirmación,En28,28,,,,,,,,,0,81,81,81,,,,,,,,,1,1.62211835559,2,0.60031201638,,,,,2018_jun._13_1710,60.0160156406,Experimento Piloto1,001,134,
2.5,Stim\\05_019.jpg,En19_29,Enojo,29,Miriam mira la película.,Afirmación,En19,19,,,,,,,,,0,82,82,82,,,,,,,,,1,1.29046618603,2,0.600231691796,,,,,2018_jun._13_1710,60.0160156406,Experimento Piloto1,001,134,
0.25,Stim\\02_019.jpg,Al19_21,Alegría,21,Mauro anuncia la actividad.,Afirmación,Al19,19,,,,,,,,,0,83,83,83,,,,,,,,,1,1.12051766516,3,0.600173233351,,,,,2018_jun._13_1710,60.0160156406,Experimento Piloto1,001,134,
2.5,Stim\\05_078.jpg,En78_30,Enojo,30,Marisol toma 2 litros de agua cada día.,Afirmación,En78,78,,,,,,,,,0,84,84,84,,,,,,,,,1,1.58163342716,2,0.500002677486,,,,,2018_jun._13_1710,60.0160156406,Experimento Piloto1,001,134,
0.25,Stim\\02_078.jpg,Al78_30,Alegría,30,Marisol toma 2 litros de agua cada día.,Afirmación,Al78,78,,,,,,,,,0,85,85,85,,,,,,,,,1,1.68345822318,2,0.916832819554,,,,,2018_jun._13_1710,60.0160156406,Experimento Piloto1,001,134,
0.25,Stim\\03_075.jpg,Tr75_16,Tristeza,16,Valeria modifica algunas imágenes.,Afirmación,Tr75,75,,,,,,,,,0,86,86,86,,,,,,,,,1,2.39786461559,4,0.750304787166,,,,,2018_jun._13_1710,60.0160156406,Experimento Piloto1,001,134,
0.25,Stim\\02_019.jpg,Al19_24,Alegría,24,Guadalupe comenta los resultados con los compañeros.,Afirmación,Al19,19,,,,,,,,,0,87,87,87,,,,,,,,,1,2.33952308618,3,1.05002525762,,,,,2018_jun._13_1710,60.0160156406,Experimento Piloto1,001,134,
2.5,Stim\\02_028.jpg,Al28_29,Alegría,29,Miriam mira la película.,Afirmación,Al28,28,,,,,,,,,0,88,88,88,,,,,,,,,1,1.34118223506,3,0.500245882473,,,,,2018_jun._13_1710,60.0160156406,Experimento Piloto1,001,134,
0.25,Stim\\03_019.jpg,Tr19_25,Tristeza,25,Luis decide la comida siguiente.,Afirmación,Tr19,19,,,,,,,,,0,89,89,89,,,,,,,,,1,1.21765909176,2,1.0502300853,,,,,2018_jun._13_1710,60.0160156406,Experimento Piloto1,001,134,
0.25,Stim\\03_075.jpg,Tr75_25,Tristeza,25,Luis decide la comida siguiente.,Afirmación,Tr75,75,,,,,,,,,0,90,90,90,,,,,,,,,1,2.16635354954,4,0.450364762855,,,,,2018_jun._13_1710,60.0160156406,Experimento Piloto1,001,134,
2.5,Stim\\03_078.jpg,Tr78_25,Tristeza,25,Luis decide la comida siguiente.,Afirmación,Tr78,78,,,,,,,,,0,91,91,91,,,,,,,,,1,1.23342323737,4,0.600318710094,,,,,2018_jun._13_1710,60.0160156406,Experimento Piloto1,001,134,
2.5,Stim\\02_019.jpg,Al19_18,Alegría,18,Sofía escucha la música.,Afirmación,Al19,19,,,,,,,,,0,92,92,92,,,,,,,,,1,0.724845910676,3,0.450295594464,,,,,2018_jun._13_1710,60.0160156406,Experimento Piloto1,001,134,
2.5,Stim\\03_028.jpg,Tr28_19,Tristeza,19,Armando acompaña a Rodrígo a la tienda.,Afirmación,Tr28,28,,,,,,,,,0,93,93,93,,,,,,,,,1,0.547940834697,4,0.450286223263,,,,,2018_jun._13_1710,60.0160156406,Experimento Piloto1,001,134,
0.25,Stim\\03_078.jpg,Tr78_18,Tristeza,18,Sofía escucha la música.,Afirmación,Tr78,78,,,,,,,,,0,94,94,94,,,,,,,,,1,2.04082363042,4,1.68329043406,,,,,2018_jun._13_1710,60.0160156406,Experimento Piloto1,001,134,
0.25,Stim\\05_019.jpg,En19_29,Enojo,29,Miriam mira la película.,Afirmación,En19,19,,,,,,,,,0,95,95,95,,,,,,,,,1,1.574062389,2,0.550277833806,,,,,2018_jun._13_1710,60.0160156406,Experimento Piloto1,001,134,
2.5,Stim\\03_078.jpg,Tr78_24,Tristeza,24,Guadalupe comenta los resultados con los compañeros.,Afirmación,Tr78,78,,,,,,,,,0,96,96,96,,,,,,,,,1,1.38898607172,4,0.550270247596,,,,,2018_jun._13_1710,60.0160156406,Experimento Piloto1,001,134,
2.5,Stim\\05_019.jpg,En19_22,Enojo,22,Enrique corre todas las mañanas.,Afirmación,En19,19,,,,,,,,,0,97,97,97,,,,,,,,,1,0.819719506557,2,0.700218839864,,,,,2018_jun._13_1710,60.0160156406,Experimento Piloto1,001,134,
0.25,Stim\\02_028.jpg,Al28_20,Alegría,20,Karen analiza la idea.,Afirmación,Al28,28,,,,,,,,,0,98,98,98,,,,,,,,,1,1.74187025973,3,0.550478199016,,,,,2018_jun._13_1710,60.0160156406,Experimento Piloto1,001,134,
2.5,Stim\\03_078.jpg,Tr78_27,Tristeza,27,Claudia informa los avances en el reporte.,Afirmación,Tr78,78,,,,,,,,,0,99,99,99,,,,,,,,,1,1.47995009166,4,0.500288276003,,,,,2018_jun._13_1710,60.0160156406,Experimento Piloto1,001,134,
0.25,Stim\\03_075.jpg,Tr75_17,Tristeza,17,Brenda sube el autobús en las mañanas.,Afirmación,Tr75,75,,,,,,,,,0,100,100,100,,,,,,,,,1,1.61574058373,4,0.450223748588,,,,,2018_jun._13_1710,60.0160156406,Experimento Piloto1,001,134,
2.5,Stim\\05_028.jpg,En28_25,Enojo,25,Luis decide la comida siguiente.,Afirmación,En28,28,,,,,,,,,0,101,101,101,,,,,,,,,1,1.48495386691,2,1.3168532577,,,,,2018_jun._13_1710,60.0160156406,Experimento Piloto1,001,134,
2.5,Stim\\02_028.jpg,Tr28_30,Tristeza,30,Marisol toma 2 litros de agua cada día.,Afirmación,Tr28,28,,,,,,,,,0,102,102,102,,,,,,,,,1,1.48164761784,3,0.600188852019,,,,,2018_jun._13_1710,60.0160156406,Experimento Piloto1,001,134,
0.25,Stim\\02_078.jpg,Al78_18,Alegría,18,Sofía escucha la música.,Afirmación,Al78,78,,,,,,,,,0,103,103,103,,,,,,,,,1,2.50744921255,3,0.450022490883,,,,,2018_jun._13_1710,60.0160156406,Experimento Piloto1,001,134,
0.25,Stim\\02_078.jpg,Al78_24,Alegría,24,Guadalupe comenta los resultados con los compañeros.,Afirmación,Al78,78,,,,,,,,,0,104,104,104,,,,,,,,,1,1.40690336239,3,0.550268016357,,,,,2018_jun._13_1710,60.0160156406,Experimento Piloto1,001,134,
0.25,Stim\\05_075.jpg,En75_26,Enojo,26,Víctor trae el café a Marco.,Afirmación,En75,75,,,,,,,,,0,105,105,105,,,,,,,,,1,1.2222621366,2,0.649804454266,,,,,2018_jun._13_1710,60.0160156406,Experimento Piloto1,001,134,
0.25,Stim\\05_019.jpg,En19_16,Enojo,16,Valeria modifica algunas imágenes.,Afirmación,En19,19,,,,,,,,,0,106,106,106,,,,,,,,,1,2.08507578178,2,0.550377793287,,,,,2018_jun._13_1710,60.0160156406,Experimento Piloto1,001,134,
2.5,Stim\\05_019.jpg,En19_21,Enojo,21,Mauro anuncia la actividad.,Afirmación,En19,19,,,,,,,,,0,107,107,107,,,,,,,,,1,2.05545207568,2,0.50038689674,,,,,2018_jun._13_1710,60.0160156406,Experimento Piloto1,001,134,
0.25,Stim\\03_028.jpg,Tr28_22,Tristeza,22,Enrique corre todas las mañanas.,Afirmación,Tr28,28,,,,,,,,,0,108,108,108,,,,,,,,,1,1.41959241522,4,0.550106474697,,,,,2018_jun._13_1710,60.0160156406,Experimento Piloto1,001,134,
2.5,Stim\\05_075.jpg,En75_28,Enojo,28,Antonio responde la pregunta.,Afirmación,En75,75,,,,,,,,,0,109,109,109,,,,,,,,,1,2.15457662697,2,0.600298628949,,,,,2018_jun._13_1710,60.0160156406,Experimento Piloto1,001,134,
2.5,Stim\\05_078.jpg,En78_28,Enojo,28,Antonio responde la pregunta.,Afirmación,En78,78,,,,,,,,,0,110,110,110,,,,,,,,,1,1.64993386609,2,0.650161452411,,,,,2018_jun._13_1710,60.0160156406,Experimento Piloto1,001,134,
2.5,Stim\\03_028.jpg,Tr28_26,Tristeza,26,Víctor trae el café a Marco.,Afirmación,Tr28,28,,,,,,,,,0,111,111,111,,,,,,,,,1,0.81791711217,4,0.500323083321,,,,,2018_jun._13_1710,60.0160156406,Experimento Piloto1,001,134,
2.5,Stim\\05_028.jpg,En28_20,Enojo,20,Karen analiza la idea.,Afirmación,En28,28,,,,,,,,,0,112,112,112,,,,,,,,,1,1.27544905904,2,0.550297914952,,,,,2018_jun._13_1710,60.0160156406,Experimento Piloto1,001,134,
2.5,Stim\\02_019.jpg,Al19_30,Alegría,30,Marisol toma 2 litros de agua cada día.,Afirmación,Al19,19,,,,,,,,,0,113,113,113,,,,,,,,,1,0.865535309795,3,0.55031754985,,,,,2018_jun._13_1710,60.0160156406,Experimento Piloto1,001,134,
2.5,Stim\\05_078.jpg,En78_23,Enojo,23,Óscar consigue un nuevo departamento.,Afirmación,En78,78,,,,,,,,,0,114,114,114,,,,,,,,,1,0.965854466136,2,0.650261411892,,,,,2018_jun._13_1710,60.0160156406,Experimento Piloto1,001,134,
0.25,Stim\\05_078.jpg,En78_23,Enojo,23,Óscar consigue un nuevo departamento.,Afirmación,En78,78,,,,,,,,,0,115,115,115,,,,,,,,,1,1.65000303448,2,0.700160827665,,,,,2018_jun._13_1710,60.0160156406,Experimento Piloto1,001,134,
2.5,Stim\\05_019.jpg,En19_19,Enojo,19,Armando acompaña a Rodrígo a la tienda.,Afirmación,En19,19,,,,,,,,,0,116,116,116,,,,,,,,,1,1.33135987734,2,0.650292202982,,,,,2018_jun._13_1710,60.0160156406,Experimento Piloto1,001,134,
2.5,Stim\\03_078.jpg,Tr78_17,Tristeza,17,Brenda sube el autobús en las mañanas.,Afirmación,Tr78,78,,,,,,,,,0,117,117,117,,,,,,,,,1,1.01615327358,4,0.550480876502,,,,,2018_jun._13_1710,60.0160156406,Experimento Piloto1,001,134,
0.25,Stim\\05_075.jpg,En75_20,Enojo,20,Karen analiza la idea.,Afirmación,En75,75,,,,,,,,,0,118,118,118,,,,,,,,,1,1.32566754191,4,0.700276405814,,,,,2018_jun._13_1710,60.0160156406,Experimento Piloto1,001,134,
0.25,Stim\\05_078.jpg,En78_28,Enojo,28,Antonio responde la pregunta.,Afirmación,En78,78,,,,,,,,,0,119,119,119,,,,,,,,,1,1.63388679946,2,1.21675008523,,,,,2018_jun._13_1710,60.0160156406,Experimento Piloto1,001,134,
2.5,Stim\\03_019.jpg,Tr19_16,Tristeza,16,Valeria modifica algunas imágenes.,Afirmación,Tr19,19,,,,,,,,,,,,,0,0,0,0,,,,,,,,,1,4.23268246621,2,2.38305767127,2018_jun._13_1710,60.0160156406,Experimento Piloto1,001,134,
2.5,Stim\\05_078.jpg,En78_19,Enojo,19,Armando acompaña a Rodrígo a la tienda.,Afirmación,En78,78,,,,,,,,,,,,,0,1,1,1,,,,,,,,,1,2.81401958492,2,0.550357265894,2018_jun._13_1710,60.0160156406,Experimento Piloto1,001,134,
2.5,Stim\\02_075.jpg,Al75_21,Alegría,21,Mauro anuncia la actividad.,Afirmación,Al75,75,,,,,,,,,,,,,0,2,2,2,,,,,,,,,1,1.48875946714,3,0.750302555929,2018_jun._13_1710,60.0160156406,Experimento Piloto1,001,134,
0.25,Stim\\02_075.jpg,Al75_16,Alegría,16,Valeria modifica algunas imágenes.,Afirmación,Al75,75,,,,,,,,,,,,,0,3,3,3,,,,,,,,,1,1.68492102309,3,0.450366547846,2018_jun._13_1710,60.0160156406,Experimento Piloto1,001,134,
0.25,Stim\\05_078.jpg,En78_30,Enojo,30,Marisol toma 2 litros de agua cada día.,Afirmación,En78,78,,,,,,,,,,,,,0,4,4,4,,,,,,,,,1,1.51513672136,2,0.550294344971,2018_jun._13_1710,60.0160156406,Experimento Piloto1,001,134,
0.25,Stim\\02_019.jpg,Al19_22,Alegría,22,Enrique corre todas las mañanas.,Afirmación,Al19,19,,,,,,,,,,,,,0,5,5,5,,,,,,,,,1,1.16945809467,3,0.450336203004,2018_jun._13_1710,60.0160156406,Experimento Piloto1,001,134,
2.5,Stim\\05_028.jpg,En28_23,Enojo,23,Óscar consigue un nuevo departamento.,Afirmación,En28,28,,,,,,,,,,,,,0,6,6,6,,,,,,,,,1,0.916026449992,2,0.550364852104,2018_jun._13_1710,60.0160156406,Experimento Piloto1,001,134,
0.25,Stim\\03_019.jpg,Tr19_16,Tristeza,16,Valeria modifica algunas imágenes.,Afirmación,Tr19,19,,,,,,,,,,,,,0,7,7,7,,,,,,,,,1,1.41781813444,2,0.550375562049,2018_jun._13_1710,60.0160156406,Experimento Piloto1,001,134,
0.25,Stim\\02_078.jpg,Al78_17,Alegría,17,Brenda sube el autobús en las mañanas.,Afirmación,Al78,78,,,,,,,,,,,,,0,8,8,8,,,,,,,,,1,1.16507772742,3,0.600171002111,2018_jun._13_1710,60.0160156406,Experimento Piloto1,001,134,
0.25,Stim\\02_078.jpg,Al78_16,Alegría,16,Valeria modifica algunas imágenes.,Afirmación,Al78,78,,,,,,,,,,,,,0,9,9,9,,,,,,,,,1,1.48412339998,3,1.10018438954,2018_jun._13_1710,60.0160156406,Experimento Piloto1,001,134,
0.25,Stim\\05_075.jpg,En75_22,Enojo,22,Enrique corre todas las mañanas.,Afirmación,En75,75,,,,,,,,,,,,,0,10,10,10,,,,,,,,,1,1.48641220434,2,0.550211342903,2018_jun._13_1710,60.0160156406,Experimento Piloto1,001,134,
0.25,Stim\\02_028.jpg,Al28_26,Alegría,26,Víctor trae el café a Marco.,Afirmación,Al28,28,,,,,,,,,,,,,0,11,11,11,,,,,,,,,1,1.26743757441,3,0.600348162441,2018_jun._13_1710,60.0160156406,Experimento Piloto1,001,134,
2.5,Stim\\03_075.jpg,Tr75_28,Tristeza,28,Antonio responde la pregunta.,Afirmación,Tr75,75,,,,,,,,,,,,,0,12,12,12,,,,,,,,,1,0.870321316181,4,0.500357444393,2018_jun._13_1710,60.0160156406,Experimento Piloto1,001,134,
0.25,Stim\\05_075.jpg,En75_23,Enojo,23,Óscar consigue un nuevo departamento.,Afirmación,En75,75,,,,,,,,,,,,,0,13,13,13,,,,,,,,,1,1.73230404818,2,1.31663281134,2018_jun._13_1710,60.0160156406,Experimento Piloto1,001,134,
2.5,Stim\\02_078.jpg,Al78_28,Alegría,28,Antonio responde la pregunta.,Afirmación,Al78,78,,,,,,,,,,,,,0,14,14,14,,,,,,,,,1,0.971825260118,3,0.600092462519,2018_jun._13_1710,60.0160156406,Experimento Piloto1,001,134,
2.5,Stim\\02_028.jpg,Al28_18,Alegría,18,Sofía escucha la música.,Afirmación,Al28,28,,,,,,,,,,,,,0,15,15,15,,,,,,,,,1,1.074543444,3,0.400376543794,2018_jun._13_1710,60.0160156406,Experimento Piloto1,001,134,
2.5,Stim\\02_019.jpg,Al19_22,Alegría,22,Enrique corre todas las mañanas.,Afirmación,Al19,19,,,,,,,,,,,,,0,16,16,16,,,,,,,,,1,0.918930183658,3,0.484515205442,2018_jun._13_1710,60.0160156406,Experimento Piloto1,001,134,
2.5,Stim\\05_028.jpg,En28_28,Enojo,28,Antonio responde la pregunta.,Afirmación,En28,28,,,,,,,,,,,,,0,17,17,17,,,,,,,,,1,1.08768454573,2,0.550334061014,2018_jun._13_1710,60.0160156406,Experimento Piloto1,001,134,
0.25,Stim\\03_078.jpg,Tr78_30,Tristeza,30,Marisol toma 2 litros de agua cada día.,Afirmación,Tr78,78,,,,,,,,,,,,,0,18,18,18,,,,,,,,,1,1.01286085819,4,0.43382459253,2018_jun._13_1710,60.0160156406,Experimento Piloto1,001,134,
0.25,Stim\\03_019.jpg,Tr19_20,Tristeza,20,Karen analiza la idea.,Afirmación,Tr19,19,,,,,,,,,,,,,0,19,19,19,,,,,,,,,1,1.94161518456,2,0.50040073042,2018_jun._13_1710,60.0160156406,Experimento Piloto1,001,134,
0.25,Stim\\05_028.jpg,En28_19,Enojo,19,Armando acompaña a Rodrígo a la tienda.,Afirmación,En28,28,,,,,,,,,,,,,0,20,20,20,,,,,,,,,1,0.914455211905,2,0.9003560164,2018_jun._13_1710,60.0160156406,Experimento Piloto1,001,134,
0.25,Stim\\05_019.jpg,En19_26,Enojo,26,Víctor trae el café a Marco.,Afirmación,En19,19,,,,,,,,,,,,,0,21,21,21,,,,,,,,,1,1.93893323599,2,0.550478199017,2018_jun._13_1710,60.0160156406,Experimento Piloto1,001,134,
0.25,Stim\\02_028.jpg,Al28_16,Alegría,16,Valeria modifica algunas imágenes.,Afirmación,Al28,28,,,,,,,,,,,,,0,22,22,22,,,,,,,,,1,1.38561065425,3,0.650265428121,2018_jun._13_1710,60.0160156406,Experimento Piloto1,001,134,
2.5,Stim\\02_075.jpg,Al75_17,Alegría,17,Brenda sube el autobús en las mañanas.,Afirmación,Al75,75,,,,,,,,,,,,,0,23,23,23,,,,,,,,,1,0.69926877855,3,0.500362353119,2018_jun._13_1710,60.0160156406,Experimento Piloto1,001,134,
2.5,Stim\\05_075.jpg,En75_30,Enojo,30,Marisol toma 2 litros de agua cada día.,Afirmación,En75,75,,,,,,,,,,,,,0,24,24,24,,,,,,,,,1,2.14799268868,2,0.550247935211,2018_jun._13_1710,60.0160156406,Experimento Piloto1,001,134,
2.5,Stim\\03_075.jpg,Tr75_27,Tristeza,27,Claudia informa los avances en el reporte.,Afirmación,Tr75,75,,,,,,,,,,,,,0,25,25,25,,,,,,,,,1,1.99596368972,4,0.483604860172,2018_jun._13_1710,60.0160156406,Experimento Piloto1,001,134,
2.5,Stim\\03_028.jpg,Tr28_24,Tristeza,24,Guadalupe comenta los resultados con los compañeros.,Afirmación,Tr28,28,,,,,,,,,,,,,0,26,26,26,,,,,,,,,1,1.88963848583,4,0.550215805379,2018_jun._13_1710,60.0160156406,Experimento Piloto1,001,134,
0.25,Stim\\05_028.jpg,En28_24,Enojo,24,Guadalupe comenta los resultados con los compañeros.,Afirmación,En28,28,,,,,,,,,,,,,0,27,27,27,,,,,,,,,1,1.33325509124,2,0.650522020538,2018_jun._13_1710,60.0160156406,Experimento Piloto1,001,134,
0.25,Stim\\03_028.jpg,Tr28_17,Tristeza,17,Brenda sube el autobús en las mañanas.,Afirmación,Tr28,28,,,,,,,,,,,,,0,28,28,28,,,,,,,,,1,2.19883681079,4,0.550232316542,2018_jun._13_1710,60.0160156406,Experimento Piloto1,001,134,
0.25,Stim\\02_028.jpg,Al28_28,Alegría,28,Antonio responde la pregunta.,Afirmación,Al28,28,,,,,,,,,,,,,0,29,29,29,,,,,,,,,1,1.27092410755,3,0.550381809517,2018_jun._13_1710,60.0160156406,Experimento Piloto1,001,134,
2.5,Stim\\02_028.jpg,Al28_24,Alegría,24,Guadalupe comenta los resultados con los compañeros.,Afirmación,Al28,28,,,,,,,,,,,,,0,30,30,30,,,,,,,,,1,1.0566605144,3,0.600385200998,2018_jun._13_1710,60.0160156406,Experimento Piloto1,001,134,
0.25,Stim\\02_078.jpg,Al78_29,Alegría,29,Miriam mira la película.,Afirmación,Al78,78,,,,,,,,,,,,,0,31,31,31,,,,,,,,,1,1.12408496913,3,0.650248916958,2018_jun._13_1710,60.0160156406,Experimento Piloto1,001,134,
0.25,Stim\\05_078.jpg,En78_19,Enojo,19,Armando acompaña a Rodrígo a la tienda.,Afirmación,En78,78,,,,,,,,,,,,,0,32,32,32,,,,,,,,,1,1.01430536193,2,0.550201971701,2018_jun._13_1710,60.0160156406,Experimento Piloto1,001,134,
0.25,Stim\\03_019.jpg,Tr19_21,Tristeza,21,Mauro anuncia la actividad.,Afirmación,Tr19,19,,,,,,,,,,,,,0,33,33,33,,,,,,,,,1,1.52336463612,2,0.700145208997,2018_jun._13_1710,60.0160156406,Experimento Piloto1,001,134,
0.25,Stim\\02_028.jpg,Al28_25,Alegría,25,Luis decide la comida siguiente.,Afirmación,Al28,28,,,,,,,,,,,,,0,34,34,34,,,,,,,,,1,1.11789640628,3,0.600340576231,2018_jun._13_1710,60.0160156406,Experimento Piloto1,001,134,
2.5,Stim\\03_078.jpg,Tr78_26,Tristeza,26,Víctor trae el café a Marco.,Afirmación,Tr78,78,,,,,,,,,,,,,0,35,35,35,,,,,,,,,1,0.821202833851,4,0.550320673585,2018_jun._13_1710,60.0160156406,Experimento Piloto1,001,134,
2.5,Stim\\05_078.jpg,En78_20,Enojo,20,Karen analiza la idea.,Afirmación,En78,78,,,,,,,,,,,,,0,36,36,36,,,,,,,,,1,0.875593286291,2,0.550474629033,2018_jun._13_1710,60.0160156406,Experimento Piloto1,001,134,
2.5,Stim\\02_078.jpg,Al78_23,Alegría,23,Óscar consigue un nuevo departamento.,Afirmación,Al78,78,,,,,,,,,,,,,0,37,37,37,,,,,,,,,1,1.16635176455,3,0.600451245657,2018_jun._13_1710,60.0160156406,Experimento Piloto1,001,134,
0.25,Stim\\03_078.jpg,Tr78_21,Tristeza,21,Mauro anuncia la actividad.,Afirmación,Tr78,78,,,,,,,,,,,,,0,38,38,38,,,,,,,,,1,1.17200527643,4,0.450318353096,2018_jun._13_1710,60.0160156406,Experimento Piloto1,001,134,
2.5,Stim\\03_075.jpg,Tr75_18,Tristeza,18,Sofía escucha la música.,Afirmación,Tr75,75,,,,,,,,,,,,,0,39,39,39,,,,,,,,,1,0.875152393584,4,0.600401712163,2018_jun._13_1710,60.0160156406,Experimento Piloto1,001,134,
2.5,Stim\\03_019.jpg,Tr19_19,Tristeza,19,Armando acompaña a Rodrígo a la tienda.,Afirmación,Tr19,19,,,,,,,,,,,,,0,40,40,40,,,,,,,,,1,1.63108971899,2,0.650254718175,2018_jun._13_1710,60.0160156406,Experimento Piloto1,001,134,
0.25,Stim\\03_019.jpg,Tr19_17,Tristeza,17,Brenda sube el autobús en las mañanas.,Afirmación,Tr19,19,,,,,,,,,,,,,0,41,41,41,,,,,,,,,1,1.63163414116,2,0.600219643109,2018_jun._13_1710,60.0160156406,Experimento Piloto1,001,134,
2.5,Stim\\05_078.jpg,En78_18,Enojo,18,Sofía escucha la música.,Afirmación,En78,78,,,,,,,,,,,,,0,42,42,42,,,,,,,,,1,1.17072945431,2,0.700159042673,2018_jun._13_1710,60.0160156406,Experimento Piloto1,001,134,
0.25,Stim\\05_019.jpg,En19_24,Enojo,24,Guadalupe comenta los resultados con los compañeros.,Afirmación,En19,19,,,,,,,,,,,,,0,43,43,43,,,,,,,,,1,2.28966427894,2,0.500306572158,2018_jun._13_1710,60.0160156406,Experimento Piloto1,001,134,
0.25,Stim\\02_075.jpg,Al75_20,Alegría,20,Karen analiza la idea.,Afirmación,Al75,75,,,,,,,,,,,,,0,44,44,44,,,,,,,,,1,1.22523280742,3,0.500307910899,2018_jun._13_1710,60.0160156406,Experimento Piloto1,001,134,
0.25,Stim\\03_075.jpg,Tr75_23,Tristeza,23,Óscar consigue un nuevo departamento.,Afirmación,Tr75,75,,,,,,,,,,,,,0,45,45,45,,,,,,,,,1,1.46504586534,4,0.500334239514,2018_jun._13_1710,60.0160156406,Experimento Piloto1,001,134,
0.25,Stim\\05_078.jpg,En78_16,Enojo,16,Valeria modifica algunas imágenes.,Afirmación,En78,78,,,,,,,,,,,,,0,46,46,46,,,,,,,,,1,1.41705549715,2,0.600341022478,2018_jun._13_1710,60.0160156406,Experimento Piloto1,001,134,
2.5,Stim\\02_019.jpg,Al19_20,Alegría,20,Karen analiza la idea.,Afirmación,Al19,19,,,,,,,,,,,,,0,47,47,47,,,,,,,,,1,1.09246965962,3,0.533863951578,2018_jun._13_1710,60.0160156406,Experimento Piloto1,001,134,
0.25,Stim\\03_075.jpg,Tr75_28,Tristeza,28,Antonio responde la pregunta.,Afirmación,Tr75,75,,,,,,,,,,,,,0,48,48,48,,,,,,,,,1,1.2856020863,4,0.483823967785,2018_jun._13_1710,60.0160156406,Experimento Piloto1,001,134,
0.25,Stim\\05_078.jpg,En78_25,Enojo,25,Luis decide la comida siguiente.,Afirmación,En78,78,,,,,,,,,,,,,0,49,49,49,,,,,,,,,1,1.58490040644,2,0.966811667413,2018_jun._13_1710,60.0160156406,Experimento Piloto1,001,134,
2.5,Stim\\03_019.jpg,Tr19_23,Tristeza,23,Óscar consigue un nuevo departamento.,Afirmación,Tr19,19,,,,,,,,,,,,,0,50,50,50,,,,,,,,,1,1.21623779289,2,0.966884405785,2018_jun._13_1710,60.0160156406,Experimento Piloto1,001,134,
2.5,Stim\\03_075.jpg,Tr75_24,Tristeza,24,Guadalupe comenta los resultados con los compañeros.,Afirmación,Tr75,75,,,,,,,,,,,,,0,51,51,51,,,,,,,,,1,1.52300362175,4,0.483697233443,2018_jun._13_1710,60.0160156406,Experimento Piloto1,001,134,
0.25,Stim\\02_078.jpg,Al78_20,Alegría,20,Karen analiza la idea.,Afirmación,Al78,78,,,,,,,,,,,,,0,52,52,52,,,,,,,,,1,1.12544200833,3,0.450296486961,2018_jun._13_1710,60.0160156406,Experimento Piloto1,001,134,
2.5,Stim\\02_078.jpg,Al78_30,Alegría,30,Marisol toma 2 litros de agua cada día.,Afirmación,Al78,78,,,,,,,,,,,,,0,53,53,53,,,,,,,,,1,0.965700956935,3,0.600425809538,2018_jun._13_1710,60.0160156406,Experimento Piloto1,001,134,
2.5,Stim\\03_028.jpg,Tr28_27,Tristeza,27,Claudia informa los avances en el reporte.,Afirmación,Tr28,28,,,,,,,,,,,,,0,54,54,54,,,,,,,,,1,1.01293895153,4,0.600486499223,2018_jun._13_1710,60.0160156406,Experimento Piloto1,001,134,
2.5,Stim\\02_075.jpg,Al75_28,Alegría,28,Antonio responde la pregunta.,Afirmación,Al75,75,,,,,,,,,,,,,0,55,55,55,,,,,,,,,1,0.870797908705,3,0.500303002176,2018_jun._13_1710,60.0160156406,Experimento Piloto1,001,134,
2.5,Stim\\03_078.jpg,Tr78_28,Tristeza,28,Antonio responde la pregunta.,Afirmación,Tr78,78,,,,,,,,,,,,,0,56,56,56,,,,,,,,,1,0.784012105807,4,0.450087196798,2018_jun._13_1710,60.0160156406,Experimento Piloto1,001,134,
0.25,Stim\\03_028.jpg,Tr28_19,Tristeza,19,Armando acompaña a Rodrígo a la tienda.,Afirmación,Tr28,28,,,,,,,,,,,,,0,57,57,57,,,,,,,,,1,1.66266977493,4,1.11675490471,2018_jun._13_1710,60.0160156406,Experimento Piloto1,001,134,
2.5,Stim\\05_078.jpg,En78_21,Enojo,21,Mauro anuncia la actividad.,Afirmación,En78,78,,,,,,,,,,,,,0,58,58,58,,,,,,,,,1,0.719855969099,2,0.950416527587,2018_jun._13_1710,60.0160156406,Experimento Piloto1,001,134,
0.25,Stim\\05_028.jpg,En28_17,Enojo,17,Brenda sube el autobús en las mañanas.,Afirmación,En28,28,,,,,,,,,,,,,0,59,59,59,,,,,,,,,1,1.63102947555,2,0.550207772922,2018_jun._13_1710,60.0160156406,Experimento Piloto1,001,134,
0.25,Stim\\03_075.jpg,Tr75_20,Tristeza,20,Karen analiza la idea.,Afirmación,Tr75,75,,,,,,,,,,,,,0,60,60,60,,,,,,,,,1,1.07527082772,4,0.500293184727,2018_jun._13_1710,60.0160156406,Experimento Piloto1,001,134,
2.5,Stim\\03_078.jpg,Tr78_21,Tristeza,21,Mauro anuncia la actividad.,Afirmación,Tr78,78,,,,,,,,,,,,,0,61,61,61,,,,,,,,,1,1.22209033124,4,0.650463115844,2018_jun._13_1710,60.0160156406,Experimento Piloto1,001,134,
0.25,Stim\\05_075.jpg,En75_17,Enojo,17,Brenda sube el autobús en las mañanas.,Afirmación,En75,75,,,,,,,,,,,,,0,62,62,62,,,,,,,,,1,2.04840403979,2,0.583587545763,2018_jun._13_1710,60.0160156406,Experimento Piloto1,001,134,
0.25,Stim\\03_019.jpg,Tr19_26,Tristeza,26,Víctor trae el café a Marco.,Afirmación,Tr19,19,,,,,,,,,,,,,0,63,63,63,,,,,,,,,1,2.6209523104,2,0.483773541797,2018_jun._13_1710,60.0160156406,Experimento Piloto1,001,134,
0.25,Stim\\05_019.jpg,En19_30,Enojo,30,Marisol toma 2 litros de agua cada día.,Afirmación,En19,19,,,,,,,,,,,,,0,64,64,64,,,,,,,,,1,2.0473343841,2,0.50018296155,2018_jun._13_1710,60.0160156406,Experimento Piloto1,001,134,
0.25,Stim\\02_019.jpg,Al19_27,Alegría,27,Claudia informa los avances en el reporte.,Afirmación,Al19,19,,,,,,,,,,,,,0,65,65,65,,,,,,,,,1,1.56188250477,3,0.550319334841,2018_jun._13_1710,60.0160156406,Experimento Piloto1,001,134,
0.25,Stim\\05_028.jpg,En28_23,Enojo,23,Óscar consigue un nuevo departamento.,Afirmación,En28,28,,,,,,,,,,,,,0,66,66,66,,,,,,,,,1,1.53247969127,2,0.550222945341,2018_jun._13_1710,60.0160156406,Experimento Piloto1,001,134,
0.25,Stim\\05_019.jpg,En19_18,Enojo,18,Sofía escucha la música.,Afirmación,En19,19,,,,,,,,,,,,,0,67,67,67,,,,,,,,,1,2.04013417775,2,0.95030987439,2018_jun._13_1710,60.0160156406,Experimento Piloto1,001,134,
0.25,Stim\\05_075.jpg,En75_25,Enojo,25,Luis decide la comida siguiente.,Afirmación,En75,75,,,,,,,,,,,,,0,68,68,68,,,,,,,,,1,1.3840041626,2,0.650161006164,2018_jun._13_1710,60.0160156406,Experimento Piloto1,001,134,
0.25,Stim\\03_078.jpg,Tr78_16,Tristeza,16,Valeria modifica algunas imágenes.,Afirmación,Tr78,78,,,,,,,,,,,,,0,69,69,69,,,,,,,,,1,1.21762383819,4,0.65010745644,2018_jun._13_1710,60.0160156406,Experimento Piloto1,001,134,
0.25,Stim\\05_019.jpg,En19_27,Enojo,27,Claudia informa los avances en el reporte.,Afirmación,En19,19,,,,,,,,,,,,,0,70,70,70,,,,,,,,,1,1.52991019712,2,0.649822304174,2018_jun._13_1710,60.0160156406,Experimento Piloto1,001,134,
0.25,Stim\\05_075.jpg,En75_30,Enojo,30,Marisol toma 2 litros de agua cada día.,Afirmación,En75,75,,,,,,,,,,,,,0,71,71,71,,,,,,,,,1,1.46528907032,2,0.700349144186,2018_jun._13_1710,60.0160156406,Experimento Piloto1,001,134,
2.5,Stim\\02_028.jpg,Al28_16,Alegría,16,Valeria modifica algunas imágenes.,Afirmación,Al28,28,,,,,,,,,,,,,0,72,72,72,,,,,,,,,1,1.18448236161,3,0.650255610672,2018_jun._13_1710,60.0160156406,Experimento Piloto1,001,134,
0.25,Stim\\05_075.jpg,En75_29,Enojo,29,Miriam mira la película.,Afirmación,En75,75,,,,,,,,,,,,,0,73,73,73,,,,,,,,,1,0.907149691107,2,0.50031371212,2018_jun._13_1710,60.0160156406,Experimento Piloto1,001,134,
2.5,Stim\\02_028.jpg,Al28_28,Alegría,28,Antonio responde la pregunta.,Afirmación,Al28,28,,,,,,,,,,,,,0,74,74,74,,,,,,,,,1,0.970942582204,3,0.60036779734,2018_jun._13_1710,60.0160156406,Experimento Piloto1,001,134,
2.5,Stim\\03_019.jpg,Tr19_28,Tristeza,28,Antonio responde la pregunta.,Afirmación,Tr19,19,,,,,,,,,,,,,0,75,75,75,,,,,,,,,1,2.11641531022,4,0.850218304366,2018_jun._13_1710,60.0160156406,Experimento Piloto1,001,134,
0.25,Stim\\02_028.jpg,Tr28_30,Tristeza,30,Marisol toma 2 litros de agua cada día.,Afirmación,Tr28,28,,,,,,,,,,,,,0,76,76,76,,,,,,,,,1,1.11335449737,3,0.550376008296,2018_jun._13_1710,60.0160156406,Experimento Piloto1,001,134,
2.5,Stim\\02_075.jpg,Al75_27,Alegría,27,Claudia informa los avances en el reporte.,Afirmación,Al75,75,,,,,,,,,,,,,0,77,77,77,,,,,,,,,1,0.962801239497,3,0.500352535668,2018_jun._13_1710,60.0160156406,Experimento Piloto1,001,134,
2.5,Stim\\02_075.jpg,Al75_20,Alegría,20,Karen analiza la idea.,Afirmación,Al75,75,,,,,,,,,,,,,0,78,78,78,,,,,,,,,1,0.875167566004,3,0.600222766843,2018_jun._13_1710,60.0160156406,Experimento Piloto1,001,134,
2.5,Stim\\05_019.jpg,En19_28,Enojo,28,Antonio responde la pregunta.,Afirmación,En19,19,,,,,,,,,,,,,0,79,79,79,,,,,,,,,1,0.970954184644,2,0.550206434178,2018_jun._13_1710,60.0160156406,Experimento Piloto1,001,134,
2.5,Stim\\02_078.jpg,Al78_21,Alegría,21,Mauro anuncia la actividad.,Afirmación,Al78,78,,,,,,,,,,,,,0,80,80,80,,,,,,,,,1,1.23951407197,3,0.533644397718,2018_jun._13_1710,60.0160156406,Experimento Piloto1,001,134,
2.5,Stim\\03_078.jpg,Tr78_19,Tristeza,19,Armando acompaña a Rodrígo a la tienda.,Afirmación,Tr78,78,,,,,,,,,,,,,0,81,81,81,,,,,,,,,1,1.18061562545,4,0.600225890576,2018_jun._13_1710,60.0160156406,Experimento Piloto1,001,134,
2.5,Stim\\05_075.jpg,En75_22,Enojo,22,Enrique corre todas las mañanas.,Afirmación,En75,75,,,,,,,,,,,,,0,82,82,82,,,,,,,,,1,1.38598773354,2,0.533806831874,2018_jun._13_1710,60.0160156406,Experimento Piloto1,001,134,
0.25,Stim\\03_019.jpg,Tr19_19,Tristeza,19,Armando acompaña a Rodrígo a la tienda.,Afirmación,Tr19,19,,,,,,,,,,,,,0,83,83,83,,,,,,,,,1,1.63138513495,4,0.700027845854,2018_jun._13_1710,60.0160156406,Experimento Piloto1,001,134,
2.5,Stim\\03_019.jpg,Tr19_27,Tristeza,27,Claudia informa los avances en el reporte.,Afirmación,Tr19,19,,,,,,,,,,,,,0,84,84,84,,,,,,,,,1,1.28027433522,4,0.600335221257,2018_jun._13_1710,60.0160156406,Experimento Piloto1,001,134,
0.25,Stim\\05_078.jpg,En78_18,Enojo,18,Sofía escucha la música.,Afirmación,En78,78,,,,,,,,,,,,,0,85,85,85,,,,,,,,,1,1.27476674634,2,0.700295148217,2018_jun._13_1710,60.0160156406,Experimento Piloto1,001,134,
2.5,Stim\\05_019.jpg,En19_25,Enojo,25,Luis decide la comida siguiente.,Afirmación,En19,19,,,,,,,,,,,,,0,86,86,86,,,,,,,,,1,2.51871518152,2,1.15023776076,2018_jun._13_1710,60.0160156406,Experimento Piloto1,001,134,
0.25,Stim\\05_028.jpg,En28_16,Enojo,16,Valeria modifica algunas imágenes.,Afirmación,En28,28,,,,,,,,,,,,,0,87,87,87,,,,,,,,,1,1.21808302706,2,0.500460081359,2018_jun._13_1710,60.0160156406,Experimento Piloto1,001,134,
2.5,Stim\\02_028.jpg,Al28_22,Alegría,22,Enrique corre todas las mañanas.,Afirmación,Al28,28,,,,,,,,,,,,,0,88,88,88,,,,,,,,,1,0.570495977523,3,0.850179480818,2018_jun._13_1710,60.0160156406,Experimento Piloto1,001,134,
0.25,Stim\\03_078.jpg,Tr78_17,Tristeza,17,Brenda sube el autobús en las mañanas.,Afirmación,Tr78,78,,,,,,,,,,,,,0,89,89,89,,,,,,,,,1,1.43144386115,4,0.383523553844,2018_jun._13_1710,60.0160156406,Experimento Piloto1,001,134,
2.5,Stim\\02_028.jpg,Al28_25,Alegría,25,Luis decide la comida siguiente.,Afirmación,Al28,28,,,,,,,,,,,,,0,90,90,90,,,,,,,,,1,0.767503172819,3,0.90019447474,2018_jun._13_1710,60.0160156406,Experimento Piloto1,001,134,
0.25,Stim\\03_028.jpg,Tr28_18,Tristeza,18,Sofía escucha la música.,Afirmación,Tr28,28,,,,,,,,,,,,,0,91,91,91,,,,,,,,,1,4.45607093196,4,0.550442499201,2018_jun._13_1710,60.0160156406,Experimento Piloto1,001,134,
2.5,Stim\\03_075.jpg,Tr75_26,Tristeza,26,Víctor trae el café a Marco.,Afirmación,Tr75,75,,,,,,,,,,,,,0,92,92,92,,,,,,,,,1,0.972481244211,4,0.600416884585,2018_jun._13_1710,60.0160156406,Experimento Piloto1,001,134,
0.25,Stim\\02_019.jpg,Al19_19,Alegría,19,Armando acompaña a Rodrígo a la tienda.,Afirmación,Al19,19,,,,,,,,,,,,,0,93,93,93,,,,,,,,,1,1.01412686286,3,0.7004906047,2018_jun._13_1710,60.0160156406,Experimento Piloto1,001,134,
0.25,Stim\\02_028.jpg,Al28_24,Alegría,24,Guadalupe comenta los resultados con los compañeros.,Afirmación,Al28,28,,,,,,,,,,,,,0,94,94,94,,,,,,,,,1,2.23662372574,3,0.383640916985,2018_jun._13_1710,60.0160156406,Experimento Piloto1,001,134,
0.25,Stim\\05_078.jpg,En78_20,Enojo,20,Karen analiza la idea.,Afirmación,En78,78,,,,,,,,,,,,,0,95,95,95,,,,,,,,,1,1.02534686832,2,0.600303091425,2018_jun._13_1710,60.0160156406,Experimento Piloto1,001,134,
2.5,Stim\\02_019.jpg,Al19_17,Alegría,17,Brenda sube el autobús en las mañanas.,Afirmación,Al19,19,,,,,,,,,,,,,0,96,96,96,,,,,,,,,1,0.765190717333,3,0.50030434092,2018_jun._13_1710,60.0160156406,Experimento Piloto1,001,134,
0.25,Stim\\03_019.jpg,Tr19_18,Tristeza,18,Sofía escucha la música.,Afirmación,Tr19,19,,,,,,,,,,,,,0,97,97,97,,,,,,,,,1,1.47389629561,4,0.600349054937,2018_jun._13_1710,60.0160156406,Experimento Piloto1,001,134,
0.25,Stim\\02_075.jpg,Al75_26,Alegría,26,Víctor trae el café a Marco.,Afirmación,Al75,75,,,,,,,,,,,,,0,98,98,98,,,,,,,,,1,0.971505746777,3,0.500229817557,2018_jun._13_1710,60.0160156406,Experimento Piloto1,001,134,
2.5,Stim\\02_075.jpg,Al75_18,Alegría,18,Sofía escucha la música.,Afirmación,Al75,75,,,,,,,,,,,,,0,99,99,99,,,,,,,,,1,0.607595224794,3,0.550388503232,2018_jun._13_1710,60.0160156406,Experimento Piloto1,001,134,
2.5,Stim\\05_019.jpg,En19_24,Enojo,24,Guadalupe comenta los resultados con los compañeros.,Afirmación,En19,19,,,,,,,,,,,,,0,100,100,100,,,,,,,,,1,0.856313155202,2,0.600494085435,2018_jun._13_1710,60.0160156406,Experimento Piloto1,001,134,
2.5,Stim\\03_019.jpg,Tr19_30,Tristeza,30,Marisol toma 2 litros de agua cada día.,Afirmación,Tr19,19,,,,,,,,,,,,,0,101,101,101,,,,,,,,,1,1.0820109527,4,0.483589241505,2018_jun._13_1710,60.0160156406,Experimento Piloto1,001,134,
2.5,Stim\\05_075.jpg,En75_17,Enojo,17,Brenda sube el autobús en las mañanas.,Afirmación,En75,75,,,,,,,,,,,,,0,102,102,102,,,,,,,,,1,2.04901986159,2,0.750395821695,2018_jun._13_1710,60.0160156406,Experimento Piloto1,001,134,
0.25,Stim\\02_019.jpg,Al19_29,Alegría,29,Miriam mira la película.,Afirmación,Al19,19,,,,,,,,,,,,,0,103,103,103,,,,,,,,,1,0.923933958915,3,0.450257217162,2018_jun._13_1710,60.0160156406,Experimento Piloto1,001,134,
0.25,Stim\\05_078.jpg,En78_22,Enojo,22,Enrique corre todas las mañanas.,Afirmación,En78,78,,,,,,,,,,,,,0,104,104,104,,,,,,,,,1,1.36885093007,2,1.36661522918,2018_jun._13_1710,60.0160156406,Experimento Piloto1,001,134,
0.25,Stim\\03_028.jpg,Tr28_21,Tristeza,21,Mauro anuncia la actividad.,Afirmación,Tr28,28,,,,,,,,,,,,,0,105,105,105,,,,,,,,,1,1.1721172846,4,0.40033281152,2018_jun._13_1710,60.0160156406,Experimento Piloto1,001,134,
2.5,Stim\\05_028.jpg,En28_19,Enojo,19,Armando acompaña a Rodrígo a la tienda.,Afirmación,En28,28,,,,,,,,,,,,,0,106,106,106,,,,,,,,,1,1.31432124835,2,0.600387878485,2018_jun._13_1710,60.0160156406,Experimento Piloto1,001,134,
2.5,Stim\\03_019.jpg,Tr19_29,Tristeza,29,Miriam mira la película.,Afirmación,Tr19,19,,,,,,,,,,,,,0,107,107,107,,,,,,,,,1,1.19132423107,4,0.750197241476,2018_jun._13_1710,60.0160156406,Experimento Piloto1,001,134,
2.5,Stim\\05_078.jpg,En78_17,Enojo,17,Brenda sube el autobús en las mañanas.,Afirmación,En78,78,,,,,,,,,,,,,0,108,108,108,,,,,,,,,1,0.864919934242,2,1.11670135499,2018_jun._13_1710,60.0160156406,Experimento Piloto1,001,134,
2.5,Stim\\02_028.jpg,Al28_21,Alegría,21,Mauro anuncia la actividad.,Afirmación,Al28,28,,,,,,,,,,,,,0,109,109,109,,,,,,,,,1,1.48872153609,3,0.800186799279,2018_jun._13_1710,60.0160156406,Experimento Piloto1,001,134,
0.25,Stim\\02_075.jpg,Al75_27,Alegría,27,Claudia informa los avances en el reporte.,Afirmación,Al75,75,,,,,,,,,,,,,0,110,110,110,,,,,,,,,1,1.21274278105,3,0.650374758803,2018_jun._13_1710,60.0160156406,Experimento Piloto1,001,134,
0.25,Stim\\02_019.jpg,Al19_28,Alegría,28,Antonio responde la pregunta.,Afirmación,Al19,19,,,,,,,,,,,,,0,111,111,111,,,,,,,,,1,1.07118944642,3,0.800355480904,2018_jun._13_1710,60.0160156406,Experimento Piloto1,001,134,
2.5,Stim\\05_019.jpg,En19_20,Enojo,20,Karen analiza la idea.,Afirmación,En19,19,,,,,,,,,,,,,0,112,112,112,,,,,,,,,1,1.02544593531,2,0.650196705978,2018_jun._13_1710,60.0160156406,Experimento Piloto1,001,134,
2.5,Stim\\03_078.jpg,Tr78_22,Tristeza,22,Enrique corre todas las mañanas.,Afirmación,Tr78,78,,,,,,,,,,,,,0,113,113,113,,,,,,,,,1,0.861027761961,4,0.450310766886,2018_jun._13_1710,60.0160156406,Experimento Piloto1,001,134,
2.5,Stim\\05_028.jpg,En28_18,Enojo,18,Sofía escucha la música.,Afirmación,En28,28,,,,,,,,,,,,,0,114,114,114,,,,,,,,,1,1.59120677868,2,0.500243651235,2018_jun._13_1710,60.0160156406,Experimento Piloto1,001,134,
0.25,Stim\\03_075.jpg,Tr75_29,Tristeza,29,Miriam mira la película.,Afirmación,Tr75,75,,,,,,,,,,,,,0,115,115,115,,,,,,,,,1,1.4243690504,4,0.500256592417,2018_jun._13_1710,60.0160156406,Experimento Piloto1,001,134,
0.25,Stim\\03_078.jpg,Tr78_24,Tristeza,24,Guadalupe comenta los resultados con los compañeros.,Afirmación,Tr78,78,,,,,,,,,,,,,0,116,116,116,,,,,,,,,1,1.72279674132,4,0.950066669404,2018_jun._13_1710,60.0160156406,Experimento Piloto1,001,134,
2.5,Stim\\05_075.jpg,En75_23,Enojo,23,Óscar consigue un nuevo departamento.,Afirmación,En75,75,,,,,,,,,,,,,0,117,117,117,,,,,,,,,1,0.982068875652,2,0.583719188828,2018_jun._13_1710,60.0160156406,Experimento Piloto1,001,134,
2.5,Stim\\03_019.jpg,Tr19_21,Tristeza,21,Mauro anuncia la actividad.,Afirmación,Tr19,19,,,,,,,,,,,,,0,118,118,118,,,,,,,,,1,0.93864674498,4,0.483758369375,2018_jun._13_1710,60.0160156406,Experimento Piloto1,001,134,
0.25,Stim\\03_078.jpg,Tr78_29,Tristeza,29,Miriam mira la película.,Afirmación,Tr78,78,,,,,,,,,,,,,0,119,119,119,,,,,,,,,1,1.29111993888,4,0.383769436317,2018_jun._13_1710,60.0160156406,Experimento Piloto1,001,134,
