Tiempo,ImagenesE,ClaveEn,Emocion,NumEn,Enunciado,ActoHabla,Clave,Cara,trials.thisRepN,trials.thisTrialN,trials.thisN,trials.thisIndex,Bloque3.thisRepN,Bloque3.thisTrialN,Bloque3.thisN,Bloque3.thisIndex,Bloque2.thisRepN,Bloque2.thisTrialN,Bloque2.thisN,Bloque2.thisIndex,Bloque1.thisRepN,Bloque1.thisTrialN,Bloque1.thisN,Bloque1.thisIndex,Sig_B3.keys,Sig_B3.rt,Resp_Bloque3.keys,Resp_Bloque3.rt,Sig_B2.keys,Sig_B2.rt,Resp_Bloque2.keys,Resp_Bloque2.rt,Sig_B1.keys,Sig_B1.rt,Resp_Bloque1.keys,Resp_Bloque1.rt,date,frameRate,expName,session,participant,
2.5,Stim\\03_019.jpg,Tr19_16,Tristeza,16,Valeria modifica algunas imágenes.,Afirmación,Tr19,19,,,,,0,0,0,0,,,,,,,,,1,9.50565173193,3,3.76655870438,,,,,,,,,2018_jun._15_1149,60.0132297095,Experimento Piloto1,001,136,
2.5,Stim\\05_078.jpg,En78_19,Enojo,19,Armando acompaña a Rodrígo a la tienda.,Afirmación,En78,78,,,,,0,1,1,1,,,,,,,,,1,7.32324158175,2,1.88264478742,,,,,,,,,2018_jun._15_1149,60.0132297095,Experimento Piloto1,001,136,
2.5,Stim\\02_075.jpg,Al75_21,Alegría,21,Mauro anuncia la actividad.,Afirmación,Al75,75,,,,,0,2,2,2,,,,,,,,,1,5.43568003299,3,0.584410055576,,,,,,,,,2018_jun._15_1149,60.0132297095,Experimento Piloto1,001,136,
0.25,Stim\\02_075.jpg,Al75_16,Alegría,16,Valeria modifica algunas imágenes.,Afirmación,Al75,75,,,,,0,3,3,3,,,,,,,,,1,7.32440271926,3,0.60069498676,,,,,,,,,2018_jun._15_1149,60.0132297095,Experimento Piloto1,001,136,
0.25,Stim\\05_078.jpg,En78_30,Enojo,30,Marisol toma 2 litros de agua cada día.,Afirmación,En78,78,,,,,0,4,4,4,,,,,,,,,1,4.23962763275,2,0.499891561717,,,,,,,,,2018_jun._15_1149,60.0132297095,Experimento Piloto1,001,136,
0.25,Stim\\02_019.jpg,Al19_22,Alegría,22,Enrique corre todas las mañanas.,Afirmación,Al19,19,,,,,0,5,5,5,,,,,,,,,1,3.63400829843,4,4.58222611747,,,,,,,,,2018_jun._15_1149,60.0132297095,Experimento Piloto1,001,136,
2.5,Stim\\05_028.jpg,En28_23,Enojo,23,Óscar consigue un nuevo departamento.,Afirmación,En28,28,,,,,0,6,6,6,,,,,,,,,1,7.94252458604,2,0.60054147742,,,,,,,,,2018_jun._15_1149,60.0132297095,Experimento Piloto1,001,136,
0.25,Stim\\03_019.jpg,Tr19_16,Tristeza,16,Valeria modifica algunas imágenes.,Afirmación,Tr19,19,,,,,0,7,7,7,,,,,,,,,1,3.46680226658,3,0.600788698857,,,,,,,,,2018_jun._15_1149,60.0132297095,Experimento Piloto1,001,136,
0.25,Stim\\02_078.jpg,Al78_17,Alegría,17,Brenda sube el autobús en las mañanas.,Afirmación,Al78,78,,,,,0,8,8,8,,,,,,,,,1,2.43785683112,3,0.966102549594,,,,,,,,,2018_jun._15_1149,60.0132297095,Experimento Piloto1,001,136,
0.25,Stim\\02_078.jpg,Al78_16,Alegría,16,Valeria modifica algunas imágenes.,Afirmación,Al78,78,,,,,0,9,9,9,,,,,,,,,1,2.49507699118,3,0.499912981625,,,,,,,,,2018_jun._15_1149,60.0132297095,Experimento Piloto1,001,136,
0.25,Stim\\05_075.jpg,En75_22,Enojo,22,Enrique corre todas las mañanas.,Afirmación,En75,75,,,,,0,10,10,10,,,,,,,,,1,1.72419101917,2,1.36664679375,,,,,,,,,2018_jun._15_1149,60.0132297095,Experimento Piloto1,001,136,
0.25,Stim\\02_028.jpg,Al28_26,Alegría,26,Víctor trae el café a Marco.,Afirmación,Al28,28,,,,,0,11,11,11,,,,,,,,,1,3.10799917533,2,3.98158646547,,,,,,,,,2018_jun._15_1149,60.0132297095,Experimento Piloto1,001,136,
2.5,Stim\\03_075.jpg,Tr75_28,Tristeza,28,Antonio responde la pregunta.,Afirmación,Tr75,75,,,,,0,12,12,12,,,,,,,,,1,2.86504476315,4,0.533611851635,,,,,,,,,2018_jun._15_1149,60.0132297095,Experimento Piloto1,001,136,
0.25,Stim\\05_075.jpg,En75_23,Enojo,23,Óscar consigue un nuevo departamento.,Afirmación,En75,75,,,,,0,13,13,13,,,,,,,,,1,3.17167699136,3,3.86576590004,,,,,,,,,2018_jun._15_1149,60.0132297095,Experimento Piloto1,001,136,
2.5,Stim\\02_078.jpg,Al78_28,Alegría,28,Antonio responde la pregunta.,Afirmación,Al78,78,,,,,0,14,14,14,,,,,,,,,1,1.38602333163,3,0.650542236042,,,,,,,,,2018_jun._15_1149,60.0132297095,Experimento Piloto1,001,136,
2.5,Stim\\02_028.jpg,Al28_18,Alegría,18,Sofía escucha la música.,Afirmación,Al28,28,,,,,0,15,15,15,,,,,,,,,1,2.0994896707,3,0.349446607756,,,,,,,,,2018_jun._15_1149,60.0132297095,Experimento Piloto1,001,136,
2.5,Stim\\02_019.jpg,Al19_22,Alegría,22,Enrique corre todas las mañanas.,Afirmación,Al19,19,,,,,0,16,16,16,,,,,,,,,1,2.12632836897,3,0.766300326743,,,,,,,,,2018_jun._15_1149,60.0132297095,Experimento Piloto1,001,136,
2.5,Stim\\05_028.jpg,En28_28,Enojo,28,Antonio responde la pregunta.,Afirmación,En28,28,,,,,0,17,17,17,,,,,,,,,1,1.30108402584,3,1.88312093412,,,,,,,,,2018_jun._15_1149,60.0132297095,Experimento Piloto1,001,136,
0.25,Stim\\03_078.jpg,Tr78_30,Tristeza,30,Marisol toma 2 litros de agua cada día.,Afirmación,Tr78,78,,,,,0,18,18,18,,,,,,,,,1,1.97834581192,3,0.967182469948,,,,,,,,,2018_jun._15_1149,60.0132297095,Experimento Piloto1,001,136,
0.25,Stim\\03_019.jpg,Tr19_20,Tristeza,20,Karen analiza la idea.,Afirmación,Tr19,19,,,,,0,19,19,19,,,,,,,,,1,2.12390479565,3,1.11644888273,,,,,,,,,2018_jun._15_1149,60.0132297095,Experimento Piloto1,001,136,
0.25,Stim\\05_028.jpg,En28_19,Enojo,19,Armando acompaña a Rodrígo a la tienda.,Afirmación,En28,28,,,,,0,20,20,20,,,,,,,,,1,5.26380713872,3,0.966174841783,,,,,,,,,2018_jun._15_1149,60.0132297095,Experimento Piloto1,001,136,
0.25,Stim\\05_019.jpg,En19_26,Enojo,26,Víctor trae el café a Marco.,Afirmación,En19,19,,,,,0,21,21,21,,,,,,,,,1,1.68683916237,2,2.03372876863,,,,,,,,,2018_jun._15_1149,60.0132297095,Experimento Piloto1,001,136,
0.25,Stim\\02_028.jpg,Al28_16,Alegría,16,Valeria modifica algunas imágenes.,Afirmación,Al28,28,,,,,0,22,22,22,,,,,,,,,1,1.21867583915,3,0.700663035398,,,,,,,,,2018_jun._15_1149,60.0132297095,Experimento Piloto1,001,136,
2.5,Stim\\02_075.jpg,Al75_17,Alegría,17,Brenda sube el autobús en las mañanas.,Afirmación,Al75,75,,,,,0,23,23,23,,,,,,,,,1,1.42623786986,3,0.700335043059,,,,,,,,,2018_jun._15_1149,60.0132297095,Experimento Piloto1,001,136,
2.5,Stim\\05_075.jpg,En75_30,Enojo,30,Marisol toma 2 litros de agua cada día.,Afirmación,En75,75,,,,,0,24,24,24,,,,,,,,,1,6.4951318797,2,3.9834169751,,,,,,,,,2018_jun._15_1149,60.0132297095,Experimento Piloto1,001,136,
2.5,Stim\\03_075.jpg,Tr75_27,Tristeza,27,Claudia informa los avances en el reporte.,Afirmación,Tr75,75,,,,,0,25,25,25,,,,,,,,,1,1.83105092315,4,1.71555344133,,,,,,,,,2018_jun._15_1149,60.0132297095,Experimento Piloto1,001,136,
2.5,Stim\\03_028.jpg,Tr28_24,Tristeza,24,Guadalupe comenta los resultados con los compañeros.,Afirmación,Tr28,28,,,,,0,26,26,26,,,,,,,,,1,1.93636993252,4,1.26692596655,,,,,,,,,2018_jun._15_1149,60.0132297095,Experimento Piloto1,001,136,
0.25,Stim\\05_028.jpg,En28_24,Enojo,24,Guadalupe comenta los resultados con los compañeros.,Afirmación,En28,28,,,,,0,27,27,27,,,,,,,,,1,5.43203775616,4,1.53340390003,,,,,,,,,2018_jun._15_1149,60.0132297095,Experimento Piloto1,001,136,
0.25,Stim\\03_028.jpg,Tr28_17,Tristeza,17,Brenda sube el autobús en las mañanas.,Afirmación,Tr28,28,,,,,0,28,28,28,,,,,,,,,1,4.1275890198,3,1.06670784049,,,,,,,,,2018_jun._15_1149,60.0132297095,Experimento Piloto1,001,136,
0.25,Stim\\02_028.jpg,Al28_28,Alegría,28,Antonio responde la pregunta.,Afirmación,Al28,28,,,,,0,29,29,29,,,,,,,,,1,2.25169775082,3,0.484054217357,,,,,,,,,2018_jun._15_1149,60.0132297095,Experimento Piloto1,001,136,
2.5,Stim\\02_028.jpg,Al28_24,Alegría,24,Guadalupe comenta los resultados con los compañeros.,Afirmación,Al28,28,,,,,0,30,30,30,,,,,,,,,1,5.4171888513,3,1.41592061425,,,,,,,,,2018_jun._15_1149,60.0132297095,Experimento Piloto1,001,136,
0.25,Stim\\02_078.jpg,Al78_29,Alegría,29,Miriam mira la película.,Afirmación,Al78,78,,,,,0,31,31,31,,,,,,,,,1,2.67209244832,3,0.749984158193,,,,,,,,,2018_jun._15_1149,60.0132297095,Experimento Piloto1,001,136,
0.25,Stim\\05_078.jpg,En78_19,Enojo,19,Armando acompaña a Rodrígo a la tienda.,Afirmación,En78,78,,,,,0,32,32,32,,,,,,,,,1,2.34340976373,4,4.08266701058,,,,,,,,,2018_jun._15_1149,60.0132297095,Experimento Piloto1,001,136,
0.25,Stim\\03_019.jpg,Tr19_21,Tristeza,21,Mauro anuncia la actividad.,Afirmación,Tr19,19,,,,,0,33,33,33,,,,,,,,,1,1.36703369084,2,1.88279472678,,,,,,,,,2018_jun._15_1149,60.0132297095,Experimento Piloto1,001,136,
0.25,Stim\\02_028.jpg,Al28_25,Alegría,25,Luis decide la comida siguiente.,Afirmación,Al28,28,,,,,0,34,34,34,,,,,,,,,1,2.19399742783,3,0.80071587117,,,,,,,,,2018_jun._15_1149,60.0132297095,Experimento Piloto1,001,136,
2.5,Stim\\03_078.jpg,Tr78_26,Tristeza,26,Víctor trae el café a Marco.,Afirmación,Tr78,78,,,,,0,35,35,35,,,,,,,,,1,1.73498933021,4,1.11638774674,,,,,,,,,2018_jun._15_1149,60.0132297095,Experimento Piloto1,001,136,
2.5,Stim\\05_078.jpg,En78_20,Enojo,20,Karen analiza la idea.,Afirmación,En78,78,,,,,0,36,36,36,,,,,,,,,1,1.31686603543,2,1.31756932241,,,,,,,,,2018_jun._15_1149,60.0132297095,Experimento Piloto1,001,136,
2.5,Stim\\02_078.jpg,Al78_23,Alegría,23,Óscar consigue un nuevo departamento.,Afirmación,Al78,78,,,,,0,37,37,37,,,,,,,,,1,2.2619052294,3,0.633713328448,,,,,,,,,2018_jun._15_1149,60.0132297095,Experimento Piloto1,001,136,
0.25,Stim\\03_078.jpg,Tr78_21,Tristeza,21,Mauro anuncia la actividad.,Afirmación,Tr78,78,,,,,0,38,38,38,,,,,,,,,1,5.02021146804,4,0.40012566346,,,,,,,,,2018_jun._15_1149,60.0132297095,Experimento Piloto1,001,136,
2.5,Stim\\03_075.jpg,Tr75_18,Tristeza,18,Sofía escucha la música.,Afirmación,Tr75,75,,,,,0,39,39,39,,,,,,,,,1,5.38800511936,4,0.433627291819,,,,,,,,,2018_jun._15_1149,60.0132297095,Experimento Piloto1,001,136,
2.5,Stim\\03_019.jpg,Tr19_19,Tristeza,19,Armando acompaña a Rodrígo a la tienda.,Afirmación,Tr19,19,,,,,0,40,40,40,,,,,,,,,1,1.69400947652,3,0.650471282597,,,,,,,,,2018_jun._15_1149,60.0132297095,Experimento Piloto1,001,136,
0.25,Stim\\03_019.jpg,Tr19_17,Tristeza,17,Brenda sube el autobús en las mañanas.,Afirmación,Tr19,19,,,,,0,41,41,41,,,,,,,,,1,1.93041028941,3,0.383704626611,,,,,,,,,2018_jun._15_1149,60.0132297095,Experimento Piloto1,001,136,
2.5,Stim\\05_078.jpg,En78_18,Enojo,18,Sofía escucha la música.,Afirmación,En78,78,,,,,0,42,42,42,,,,,,,,,1,2.15498686692,3,1.63258789079,,,,,,,,,2018_jun._15_1149,60.0132297095,Experimento Piloto1,001,136,
0.25,Stim\\05_019.jpg,En19_24,Enojo,24,Guadalupe comenta los resultados con los compañeros.,Afirmación,En19,19,,,,,0,43,43,43,,,,,,,,,1,4.73094498386,3,1.41663059495,,,,,,,,,2018_jun._15_1149,60.0132297095,Experimento Piloto1,001,136,
0.25,Stim\\02_075.jpg,Al75_20,Alegría,20,Karen analiza la idea.,Afirmación,Al75,75,,,,,0,44,44,44,,,,,,,,,1,2.57328866093,3,0.433727251389,,,,,,,,,2018_jun._15_1149,60.0132297095,Experimento Piloto1,001,136,
0.25,Stim\\03_075.jpg,Tr75_23,Tristeza,23,Óscar consigue un nuevo departamento.,Afirmación,Tr75,75,,,,,0,45,45,45,,,,,,,,,1,1.62766398948,4,1.31659784034,,,,,,,,,2018_jun._15_1149,60.0132297095,Experimento Piloto1,001,136,
0.25,Stim\\05_078.jpg,En78_16,Enojo,16,Valeria modifica algunas imágenes.,Afirmación,En78,78,,,,,0,46,46,46,,,,,,,,,1,2.54930461162,3,3.83267526616,,,,,,,,,2018_jun._15_1149,60.0132297095,Experimento Piloto1,001,136,
2.5,Stim\\02_019.jpg,Al19_20,Alegría,20,Karen analiza la idea.,Afirmación,Al19,19,,,,,0,47,47,47,,,,,,,,,1,1.33874156256,3,0.433426480182,,,,,,,,,2018_jun._15_1149,60.0132297095,Experimento Piloto1,001,136,
0.25,Stim\\03_075.jpg,Tr75_28,Tristeza,28,Antonio responde la pregunta.,Afirmación,Tr75,75,,,,,0,48,48,48,,,,,,,,,1,1.38485460791,4,0.949174128678,,,,,,,,,2018_jun._15_1149,60.0132297095,Experimento Piloto1,001,136,
0.25,Stim\\05_078.jpg,En78_25,Enojo,25,Luis decide la comida siguiente.,Afirmación,En78,78,,,,,0,49,49,49,,,,,,,,,1,0.861706381258,2,1.61655062729,,,,,,,,,2018_jun._15_1149,60.0132297095,Experimento Piloto1,001,136,
2.5,Stim\\03_019.jpg,Tr19_23,Tristeza,23,Óscar consigue un nuevo departamento.,Afirmación,Tr19,19,,,,,0,50,50,50,,,,,,,,,1,1.57931211751,3,0.400750410771,,,,,,,,,2018_jun._15_1149,60.0132297095,Experimento Piloto1,001,136,
2.5,Stim\\03_075.jpg,Tr75_24,Tristeza,24,Guadalupe comenta los resultados con los compañeros.,Afirmación,Tr75,75,,,,,0,51,51,51,,,,,,,,,1,2.80516496453,4,1.16685885084,,,,,,,,,2018_jun._15_1149,60.0132297095,Experimento Piloto1,001,136,
0.25,Stim\\02_078.jpg,Al78_20,Alegría,20,Karen analiza la idea.,Afirmación,Al78,78,,,,,0,52,52,52,,,,,,,,,1,2.75696213942,3,0.599523139302,,,,,,,,,2018_jun._15_1149,60.0132297095,Experimento Piloto1,001,136,
2.5,Stim\\02_078.jpg,Al78_30,Alegría,30,Marisol toma 2 litros de agua cada día.,Afirmación,Al78,78,,,,,0,53,53,53,,,,,,,,,1,1.72886234407,3,0.600369225661,,,,,,,,,2018_jun._15_1149,60.0132297095,Experimento Piloto1,001,136,
2.5,Stim\\03_028.jpg,Tr28_27,Tristeza,27,Claudia informa los avances en el reporte.,Afirmación,Tr28,28,,,,,0,54,54,54,,,,,,,,,1,3.11131167483,4,2.0482510199,,,,,,,,,2018_jun._15_1149,60.0132297095,Experimento Piloto1,001,136,
2.5,Stim\\02_075.jpg,Al75_28,Alegría,28,Antonio responde la pregunta.,Afirmación,Al75,75,,,,,0,55,55,55,,,,,,,,,1,2.14967339103,4,1.86640983602,,,,,,,,,2018_jun._15_1149,60.0132297095,Experimento Piloto1,001,136,
2.5,Stim\\03_078.jpg,Tr78_28,Tristeza,28,Antonio responde la pregunta.,Afirmación,Tr78,78,,,,,0,56,56,56,,,,,,,,,1,1.5499364989,4,1.43335641923,,,,,,,,,2018_jun._15_1149,60.0132297095,Experimento Piloto1,001,136,
0.25,Stim\\03_028.jpg,Tr28_19,Tristeza,19,Armando acompaña a Rodrígo a la tienda.,Afirmación,Tr28,28,,,,,0,57,57,57,,,,,,,,,1,2.59552431026,4,1.16623633477,,,,,,,,,2018_jun._15_1149,60.0132297095,Experimento Piloto1,001,136,
2.5,Stim\\05_078.jpg,En78_21,Enojo,21,Mauro anuncia la actividad.,Afirmación,En78,78,,,,,0,58,58,58,,,,,,,,,1,3.26316632648,2,2.24980075023,,,,,,,,,2018_jun._15_1149,60.0132297095,Experimento Piloto1,001,136,
0.25,Stim\\05_028.jpg,En28_17,Enojo,17,Brenda sube el autobús en las mañanas.,Afirmación,En28,28,,,,,0,59,59,59,,,,,,,,,1,3.56304235876,2,2.91707148805,,,,,,,,,2018_jun._15_1149,60.0132297095,Experimento Piloto1,001,136,
0.25,Stim\\03_075.jpg,Tr75_20,Tristeza,20,Karen analiza la idea.,Afirmación,Tr75,75,,,,,0,60,60,60,,,,,,,,,1,1.79097784557,4,1.15022138367,,,,,,,,,2018_jun._15_1149,60.0132297095,Experimento Piloto1,001,136,
2.5,Stim\\03_078.jpg,Tr78_21,Tristeza,21,Mauro anuncia la actividad.,Afirmación,Tr78,78,,,,,0,61,61,61,,,,,,,,,1,4.87049389845,4,1.26652345078,,,,,,,,,2018_jun._15_1149,60.0132297095,Experimento Piloto1,001,136,
0.25,Stim\\05_075.jpg,En75_17,Enojo,17,Brenda sube el autobús en las mañanas.,Afirmación,En75,75,,,,,0,62,62,62,,,,,,,,,1,1.38010072712,2,1.14975773192,,,,,,,,,2018_jun._15_1149,60.0132297095,Experimento Piloto1,001,136,
0.25,Stim\\03_019.jpg,Tr19_26,Tristeza,26,Víctor trae el café a Marco.,Afirmación,Tr19,19,,,,,0,63,63,63,,,,,,,,,1,1.33540094944,3,0.549885180369,,,,,,,,,2018_jun._15_1149,60.0132297095,Experimento Piloto1,001,136,
0.25,Stim\\05_019.jpg,En19_30,Enojo,30,Marisol toma 2 litros de agua cada día.,Afirmación,En19,19,,,,,0,64,64,64,,,,,,,,,1,1.41184993927,2,0.600400463027,,,,,,,,,2018_jun._15_1149,60.0132297095,Experimento Piloto1,001,136,
0.25,Stim\\02_019.jpg,Al19_27,Alegría,27,Claudia informa los avances en el reporte.,Afirmación,Al19,19,,,,,0,65,65,65,,,,,,,,,1,1.40701618006,3,0.817446157938,,,,,,,,,2018_jun._15_1149,60.0132297095,Experimento Piloto1,001,136,
0.25,Stim\\05_028.jpg,En28_23,Enojo,23,Óscar consigue un nuevo departamento.,Afirmación,En28,28,,,,,0,66,66,66,,,,,,,,,1,1.21448199969,2,1.16659734946,,,,,,,,,2018_jun._15_1149,60.0132297095,Experimento Piloto1,001,136,
0.25,Stim\\05_019.jpg,En19_18,Enojo,18,Sofía escucha la música.,Afirmación,En19,19,,,,,0,67,67,67,,,,,,,,,1,1.4229637477,2,0.500136998161,,,,,,,,,2018_jun._15_1149,60.0132297095,Experimento Piloto1,001,136,
0.25,Stim\\05_075.jpg,En75_25,Enojo,25,Luis decide la comida siguiente.,Afirmación,En75,75,,,,,0,68,68,68,,,,,,,,,1,1.01544018357,2,2.59931072522,,,,,,,,,2018_jun._15_1149,60.0132297095,Experimento Piloto1,001,136,
0.25,Stim\\03_078.jpg,Tr78_16,Tristeza,16,Valeria modifica algunas imágenes.,Afirmación,Tr78,78,,,,,0,69,69,69,,,,,,,,,1,3.78113495167,2,1.46674470058,,,,,,,,,2018_jun._15_1149,60.0132297095,Experimento Piloto1,001,136,
0.25,Stim\\05_019.jpg,En19_27,Enojo,27,Claudia informa los avances en el reporte.,Afirmación,En19,19,,,,,0,70,70,70,,,,,,,,,1,3.77474958789,2,0.500097282082,,,,,,,,,2018_jun._15_1149,60.0132297095,Experimento Piloto1,001,136,
0.25,Stim\\05_075.jpg,En75_30,Enojo,30,Marisol toma 2 litros de agua cada día.,Afirmación,En75,75,,,,,0,71,71,71,,,,,,,,,1,2.89587068802,2,1.06706483895,,,,,,,,,2018_jun._15_1149,60.0132297095,Experimento Piloto1,001,136,
2.5,Stim\\02_028.jpg,Al28_16,Alegría,16,Valeria modifica algunas imágenes.,Afirmación,Al28,28,,,,,0,72,72,72,,,,,,,,,1,1.58003816314,3,0.550037350964,,,,,,,,,2018_jun._15_1149,60.0132297095,Experimento Piloto1,001,136,
0.25,Stim\\05_075.jpg,En75_29,Enojo,29,Miriam mira la película.,Afirmación,En75,75,,,,,0,73,73,73,,,,,,,,,1,2.18891600094,3,0.650527509855,,,,,,,,,2018_jun._15_1149,60.0132297095,Experimento Piloto1,001,136,
2.5,Stim\\02_028.jpg,Al28_28,Alegría,28,Antonio responde la pregunta.,Afirmación,Al28,28,,,,,0,74,74,74,,,,,,,,,1,0.869458602904,3,0.69993029605,,,,,,,,,2018_jun._15_1149,60.0132297095,Experimento Piloto1,001,136,
2.5,Stim\\03_019.jpg,Tr19_28,Tristeza,28,Antonio responde la pregunta.,Afirmación,Tr19,19,,,,,0,75,75,75,,,,,,,,,1,0.017321565474,3,1.36723405623,,,,,,,,,2018_jun._15_1149,60.0132297095,Experimento Piloto1,001,136,
0.25,Stim\\02_028.jpg,Tr28_30,Tristeza,30,Marisol toma 2 litros de agua cada día.,Afirmación,Tr28,28,,,,,0,76,76,76,,,,,,,,,1,1.37700912042,3,0.650004060857,,,,,,,,,2018_jun._15_1149,60.0132297095,Experimento Piloto1,001,136,
2.5,Stim\\02_075.jpg,Al75_27,Alegría,27,Claudia informa los avances en el reporte.,Afirmación,Al75,75,,,,,0,77,77,77,,,,,,,,,1,1.11101090363,3,0.600931498242,,,,,,,,,2018_jun._15_1149,60.0132297095,Experimento Piloto1,001,136,
2.5,Stim\\02_075.jpg,Al75_20,Alegría,20,Karen analiza la idea.,Afirmación,Al75,75,,,,,0,78,78,78,,,,,,,,,1,1.83864829672,3,0.600154134087,,,,,,,,,2018_jun._15_1149,60.0132297095,Experimento Piloto1,001,136,
2.5,Stim\\05_019.jpg,En19_28,Enojo,28,Antonio responde la pregunta.,Afirmación,En19,19,,,,,0,79,79,79,,,,,,,,,1,1.48611186725,2,1.46659074499,,,,,,,,,2018_jun._15_1149,60.0132297095,Experimento Piloto1,001,136,
2.5,Stim\\02_078.jpg,Al78_21,Alegría,21,Mauro anuncia la actividad.,Afirmación,Al78,78,,,,,0,80,80,80,,,,,,,,,1,1.08751326472,2,1.10035360698,,,,,,,,,2018_jun._15_1149,60.0132297095,Experimento Piloto1,001,136,
2.5,Stim\\03_078.jpg,Tr78_19,Tristeza,19,Armando acompaña a Rodrígo a la tienda.,Afirmación,Tr78,78,,,,,0,81,81,81,,,,,,,,,1,2.31171231636,4,1.05009625571,,,,,,,,,2018_jun._15_1149,60.0132297095,Experimento Piloto1,001,136,
2.5,Stim\\05_075.jpg,En75_22,Enojo,22,Enrique corre todas las mañanas.,Afirmación,En75,75,,,,,0,82,82,82,,,,,,,,,1,1.63544432475,2,4.91594694289,,,,,,,,,2018_jun._15_1149,60.0132297095,Experimento Piloto1,001,136,
0.25,Stim\\03_019.jpg,Tr19_19,Tristeza,19,Armando acompaña a Rodrígo a la tienda.,Afirmación,Tr19,19,,,,,0,83,83,83,,,,,,,,,1,2.59530698744,2,3.51618140163,,,,,,,,,2018_jun._15_1149,60.0132297095,Experimento Piloto1,001,136,
2.5,Stim\\03_019.jpg,Tr19_27,Tristeza,27,Claudia informa los avances en el reporte.,Afirmación,Tr19,19,,,,,0,84,84,84,,,,,,,,,1,1.17653395546,3,2.99923156081,,,,,,,,,2018_jun._15_1149,60.0132297095,Experimento Piloto1,001,136,
0.25,Stim\\05_078.jpg,En78_18,Enojo,18,Sofía escucha la música.,Afirmación,En78,78,,,,,0,85,85,85,,,,,,,,,1,2.30662776573,2,0.950549911509,,,,,,,,,2018_jun._15_1149,60.0132297095,Experimento Piloto1,001,136,
2.5,Stim\\05_019.jpg,En19_25,Enojo,25,Luis decide la comida siguiente.,Afirmación,En19,19,,,,,0,86,86,86,,,,,,,,,1,0.981774335916,2,0.700747376285,,,,,,,,,2018_jun._15_1149,60.0132297095,Experimento Piloto1,001,136,
0.25,Stim\\05_028.jpg,En28_16,Enojo,16,Valeria modifica algunas imágenes.,Afirmación,En28,28,,,,,0,87,87,87,,,,,,,,,1,1.46209167185,2,1.31682810435,,,,,,,,,2018_jun._15_1149,60.0132297095,Experimento Piloto1,001,136,
2.5,Stim\\02_028.jpg,Al28_22,Alegría,22,Enrique corre todas las mañanas.,Afirmación,Al28,28,,,,,0,88,88,88,,,,,,,,,1,1.63534972016,2,1.36664411626,,,,,,,,,2018_jun._15_1149,60.0132297095,Experimento Piloto1,001,136,
0.25,Stim\\03_078.jpg,Tr78_17,Tristeza,17,Brenda sube el autobús en las mañanas.,Afirmación,Tr78,78,,,,,0,89,89,89,,,,,,,,,1,1.48005583456,4,0.750176044868,,,,,,,,,2018_jun._15_1149,60.0132297095,Experimento Piloto1,001,136,
2.5,Stim\\02_028.jpg,Al28_25,Alegría,25,Luis decide la comida siguiente.,Afirmación,Al28,28,,,,,0,90,90,90,,,,,,,,,1,0.767609172362,3,0.700329241834,,,,,,,,,2018_jun._15_1149,60.0132297095,Experimento Piloto1,001,136,
0.25,Stim\\03_028.jpg,Tr28_18,Tristeza,18,Sofía escucha la música.,Afirmación,Tr28,28,,,,,0,91,91,91,,,,,,,,,1,1.17361504677,4,1.01602253731,,,,,,,,,2018_jun._15_1149,60.0132297095,Experimento Piloto1,001,136,
2.5,Stim\\03_075.jpg,Tr75_26,Tristeza,26,Víctor trae el café a Marco.,Afirmación,Tr75,75,,,,,0,92,92,92,,,,,,,,,1,0.654264837526,4,0.966779507931,,,,,,,,,2018_jun._15_1149,60.0132297095,Experimento Piloto1,001,136,
0.25,Stim\\02_019.jpg,Al19_19,Alegría,19,Armando acompaña a Rodrígo a la tienda.,Afirmación,Al19,19,,,,,0,93,93,93,,,,,,,,,1,1.06286653702,3,0.533547145663,,,,,,,,,2018_jun._15_1149,60.0132297095,Experimento Piloto1,001,136,
0.25,Stim\\02_028.jpg,Al28_24,Alegría,24,Guadalupe comenta los resultados con los compañeros.,Afirmación,Al28,28,,,,,0,94,94,94,,,,,,,,,1,2.55274607681,3,1.00017983798,,,,,,,,,2018_jun._15_1149,60.0132297095,Experimento Piloto1,001,136,
0.25,Stim\\05_078.jpg,En78_20,Enojo,20,Karen analiza la idea.,Afirmación,En78,78,,,,,0,95,95,95,,,,,,,,,1,1.12322069734,4,0.750504037207,,,,,,,,,2018_jun._15_1149,60.0132297095,Experimento Piloto1,001,136,
2.5,Stim\\02_019.jpg,Al19_17,Alegría,17,Brenda sube el autobús en las mañanas.,Afirmación,Al19,19,,,,,0,96,96,96,,,,,,,,,1,0.978669788023,3,0.800064795221,,,,,,,,,2018_jun._15_1149,60.0132297095,Experimento Piloto1,001,136,
0.25,Stim\\03_019.jpg,Tr19_18,Tristeza,18,Sofía escucha la música.,Afirmación,Tr19,19,,,,,0,97,97,97,,,,,,,,,1,3.57146216753,3,1.06670025427,,,,,,,,,2018_jun._15_1149,60.0132297095,Experimento Piloto1,001,136,
0.25,Stim\\02_075.jpg,Al75_26,Alegría,26,Víctor trae el café a Marco.,Afirmación,Al75,75,,,,,0,98,98,98,,,,,,,,,1,0.870299334287,3,0.484110444615,,,,,,,,,2018_jun._15_1149,60.0132297095,Experimento Piloto1,001,136,
2.5,Stim\\02_075.jpg,Al75_18,Alegría,18,Sofía escucha la música.,Afirmación,Al75,75,,,,,0,99,99,99,,,,,,,,,1,0.619461503517,3,0.700278369552,,,,,,,,,2018_jun._15_1149,60.0132297095,Experimento Piloto1,001,136,
2.5,Stim\\05_019.jpg,En19_24,Enojo,24,Guadalupe comenta los resultados con los compañeros.,Afirmación,En19,19,,,,,0,100,100,100,,,,,,,,,1,1.27140451228,2,3.26607541771,,,,,,,,,2018_jun._15_1149,60.0132297095,Experimento Piloto1,001,136,
2.5,Stim\\03_019.jpg,Tr19_30,Tristeza,30,Marisol toma 2 litros de agua cada día.,Afirmación,Tr19,19,,,,,0,101,101,101,,,,,,,,,1,3.5800470881,3,0.850348028878,,,,,,,,,2018_jun._15_1149,60.0132297095,Experimento Piloto1,001,136,
2.5,Stim\\05_075.jpg,En75_17,Enojo,17,Brenda sube el autobús en las mañanas.,Afirmación,En75,75,,,,,0,102,102,102,,,,,,,,,1,2.81320189245,3,3.316037799,,,,,,,,,2018_jun._15_1149,60.0132297095,Experimento Piloto1,001,136,
0.25,Stim\\02_019.jpg,Al19_29,Alegría,29,Miriam mira la película.,Afirmación,Al19,19,,,,,0,103,103,103,,,,,,,,,1,0.920379525067,3,0.600129144194,,,,,,,,,2018_jun._15_1149,60.0132297095,Experimento Piloto1,001,136,
0.25,Stim\\05_078.jpg,En78_22,Enojo,22,Enrique corre todas las mañanas.,Afirmación,En78,78,,,,,0,104,104,104,,,,,,,,,1,3.36611575854,2,2.1330390476,,,,,,,,,2018_jun._15_1149,60.0132297095,Experimento Piloto1,001,136,
0.25,Stim\\03_028.jpg,Tr28_21,Tristeza,21,Mauro anuncia la actividad.,Afirmación,Tr28,28,,,,,0,105,105,105,,,,,,,,,1,2.77098057661,4,1.31646441216,,,,,,,,,2018_jun._15_1149,60.0132297095,Experimento Piloto1,001,136,
2.5,Stim\\05_028.jpg,En28_19,Enojo,19,Armando acompaña a Rodrígo a la tienda.,Afirmación,En28,28,,,,,0,106,106,106,,,,,,,,,1,1.67839034748,2,1.21653563336,,,,,,,,,2018_jun._15_1149,60.0132297095,Experimento Piloto1,001,136,
2.5,Stim\\03_019.jpg,Tr19_29,Tristeza,29,Miriam mira la película.,Afirmación,Tr19,19,,,,,0,107,107,107,,,,,,,,,1,1.3729000681,3,1.0669037434,,,,,,,,,2018_jun._15_1149,60.0132297095,Experimento Piloto1,001,136,
2.5,Stim\\05_078.jpg,En78_17,Enojo,17,Brenda sube el autobús en las mañanas.,Afirmación,En78,78,,,,,0,108,108,108,,,,,,,,,1,3.06266394039,3,1.16675487504,,,,,,,,,2018_jun._15_1149,60.0132297095,Experimento Piloto1,001,136,
2.5,Stim\\02_028.jpg,Al28_21,Alegría,21,Mauro anuncia la actividad.,Afirmación,Al28,28,,,,,0,109,109,109,,,,,,,,,1,1.12059452739,3,0.716686465206,,,,,,,,,2018_jun._15_1149,60.0132297095,Experimento Piloto1,001,136,
0.25,Stim\\02_075.jpg,Al75_27,Alegría,27,Claudia informa los avances en el reporte.,Afirmación,Al75,75,,,,,0,110,110,110,,,,,,,,,1,1.04308926836,3,0.450338389919,,,,,,,,,2018_jun._15_1149,60.0132297095,Experimento Piloto1,001,136,
0.25,Stim\\02_019.jpg,Al19_28,Alegría,28,Antonio responde la pregunta.,Afirmación,Al19,19,,,,,0,111,111,111,,,,,,,,,1,1.7862288735,3,0.400201971881,,,,,,,,,2018_jun._15_1149,60.0132297095,Experimento Piloto1,001,136,
2.5,Stim\\05_019.jpg,En19_20,Enojo,20,Karen analiza la idea.,Afirmación,En19,19,,,,,0,112,112,112,,,,,,,,,1,0.925025413828,2,0.750229148389,,,,,,,,,2018_jun._15_1149,60.0132297095,Experimento Piloto1,001,136,
2.5,Stim\\03_078.jpg,Tr78_22,Tristeza,22,Enrique corre todas las mañanas.,Afirmación,Tr78,78,,,,,0,113,113,113,,,,,,,,,1,1.38437935371,4,0.751153328163,,,,,,,,,2018_jun._15_1149,60.0132297095,Experimento Piloto1,001,136,
2.5,Stim\\05_028.jpg,En28_18,Enojo,18,Sofía escucha la música.,Afirmación,En28,28,,,,,0,114,114,114,,,,,,,,,1,1.11503918504,4,1.48301535183,,,,,,,,,2018_jun._15_1149,60.0132297095,Experimento Piloto1,001,136,
0.25,Stim\\03_075.jpg,Tr75_29,Tristeza,29,Miriam mira la película.,Afirmación,Tr75,75,,,,,0,115,115,115,,,,,,,,,1,1.42298739885,4,0.950152750718,,,,,,,,,2018_jun._15_1149,60.0132297095,Experimento Piloto1,001,136,
0.25,Stim\\03_078.jpg,Tr78_24,Tristeza,24,Guadalupe comenta los resultados con los compañeros.,Afirmación,Tr78,78,,,,,0,116,116,116,,,,,,,,,1,1.88766284708,4,0.433878975736,,,,,,,,,2018_jun._15_1149,60.0132297095,Experimento Piloto1,001,136,
2.5,Stim\\05_075.jpg,En75_23,Enojo,23,Óscar consigue un nuevo departamento.,Afirmación,En75,75,,,,,0,117,117,117,,,,,,,,,1,1.84755317715,3,0.283536658834,,,,,,,,,2018_jun._15_1149,60.0132297095,Experimento Piloto1,001,136,
2.5,Stim\\03_019.jpg,Tr19_21,Tristeza,21,Mauro anuncia la actividad.,Afirmación,Tr19,19,,,,,0,118,118,118,,,,,,,,,1,3.28714859079,4,1.31690619776,,,,,,,,,2018_jun._15_1149,60.0132297095,Experimento Piloto1,001,136,
0.25,Stim\\03_078.jpg,Tr78_29,Tristeza,29,Miriam mira la película.,Afirmación,Tr78,78,,,,,0,119,119,119,,,,,,,,,1,1.22270501306,4,0.600338880792,,,,,,,,,2018_jun._15_1149,60.0132297095,Experimento Piloto1,001,136,
2.5,Stim\\02_078.jpg,Al78_17,Alegría,17,Brenda sube el autobús en las mañanas.,Afirmación,Al78,78,,,,,,,,,0,0,0,0,,,,,,,,,1,2.02940462474,3,0.850240929338,,,,,2018_jun._15_1149,60.0132297095,Experimento Piloto1,001,136,
2.5,Stim\\05_019.jpg,En19_23,Enojo,23,Óscar consigue un nuevo departamento.,Afirmación,En19,19,,,,,,,,,0,1,1,1,,,,,,,,,1,1.58003905563,2,0.650831851046,,,,,2018_jun._15_1149,60.0132297095,Experimento Piloto1,001,136,
0.25,Stim\\02_075.jpg,Al75_17,Alegría,17,Brenda sube el autobús en las mañanas.,Afirmación,Al75,75,,,,,,,,,0,2,2,2,,,,,,,,,1,2.14665273778,3,0.483949349058,,,,,2018_jun._15_1149,60.0132297095,Experimento Piloto1,001,136,
2.5,Stim\\02_075.jpg,Al75_24,Alegría,24,Guadalupe comenta los resultados con los compañeros.,Afirmación,Al75,75,,,,,,,,,0,3,3,3,,,,,,,,,1,2.65424743385,3,0.600467400239,,,,,2018_jun._15_1149,60.0132297095,Experimento Piloto1,001,136,
0.25,Stim\\05_075.jpg,En75_19,Enojo,19,Armando acompaña a Rodrígo a la tienda.,Afirmación,En75,75,,,,,,,,,0,4,4,4,,,,,,,,,1,1.68061578665,2,0.549172968433,,,,,2018_jun._15_1149,60.0132297095,Experimento Piloto1,001,136,
2.5,Stim\\02_019.jpg,Al19_29,Alegría,29,Miriam mira la película.,Afirmación,Al19,19,,,,,,,,,0,5,5,5,,,,,,,,,1,1.22010070927,3,0.750622292948,,,,,2018_jun._15_1149,60.0132297095,Experimento Piloto1,001,136,
2.5,Stim\\02_078.jpg,Al78_24,Alegría,24,Guadalupe comenta los resultados con los compañeros.,Afirmación,Al78,78,,,,,,,,,0,6,6,6,,,,,,,,,1,3.47027987787,3,0.50097862204,,,,,2018_jun._15_1149,60.0132297095,Experimento Piloto1,001,136,
0.25,Stim\\05_028.jpg,En28_20,Enojo,20,Karen analiza la idea.,Afirmación,En28,28,,,,,,,,,0,7,7,7,,,,,,,,,1,1.49067564637,3,2.43294810224,,,,,2018_jun._15_1149,60.0132297095,Experimento Piloto1,001,136,
0.25,Stim\\03_078.jpg,Tr78_27,Tristeza,27,Claudia informa los avances en el reporte.,Afirmación,Tr78,78,,,,,,,,,0,8,8,8,,,,,,,,,1,1.05832953279,4,0.966806729064,,,,,2018_jun._15_1149,60.0132297095,Experimento Piloto1,001,136,
0.25,Stim\\02_019.jpg,Al19_30,Alegría,30,Marisol toma 2 litros de agua cada día.,Afirmación,Al19,19,,,,,,,,,0,9,9,9,,,,,,,,,1,1.21265952253,4,2.33348833017,,,,,2018_jun._15_1149,60.0132297095,Experimento Piloto1,001,136,
2.5,Stim\\02_019.jpg,Al19_19,Alegría,19,Armando acompaña a Rodrígo a la tienda.,Afirmación,Al19,19,,,,,,,,,0,10,10,10,,,,,,,,,1,0.509939729734,3,0.699950377214,,,,,2018_jun._15_1149,60.0132297095,Experimento Piloto1,001,136,
0.25,Stim\\02_028.jpg,Al28_30,Alegría,30,Marisol toma 2 litros de agua cada día.,Afirmación,Al28,28,,,,,,,,,0,11,11,11,,,,,,,,,1,2.24090033228,3,0.700238207225,,,,,2018_jun._15_1149,60.0132297095,Experimento Piloto1,001,136,
2.5,Stim\\02_019.jpg,Al19_16,Alegría,16,Valeria modifica algunas imágenes.,Afirmación,Al19,19,,,,,,,,,0,12,12,12,,,,,,,,,1,0.498957564485,3,0.600463384006,,,,,2018_jun._15_1149,60.0132297095,Experimento Piloto1,001,136,
2.5,Stim\\03_075.jpg,Tr75_30,Tristeza,30,Marisol toma 2 litros de agua cada día.,Afirmación,Tr75,75,,,,,,,,,0,13,13,13,,,,,,,,,1,0.913098541394,4,1.31674420971,,,,,2018_jun._15_1149,60.0132297095,Experimento Piloto1,001,136,
2.5,Stim\\02_078.jpg,Al78_19,Alegría,19,Armando acompaña a Rodrígo a la tienda.,Afirmación,Al78,78,,,,,,,,,0,14,14,14,,,,,,,,,1,0.611419220619,4,1.93321808233,,,,,2018_jun._15_1149,60.0132297095,Experimento Piloto1,001,136,
2.5,Stim\\05_075.jpg,En75_25,Enojo,25,Luis decide la comida siguiente.,Afirmación,En75,75,,,,,,,,,0,15,15,15,,,,,,,,,1,1.83234995131,4,1.11699732162,,,,,2018_jun._15_1149,60.0132297095,Experimento Piloto1,001,136,
0.25,Stim\\03_075.jpg,Tr75_24,Tristeza,24,Guadalupe comenta los resultados con los compañeros.,Afirmación,Tr75,75,,,,,,,,,0,16,16,16,,,,,,,,,1,4.33277834947,3,0.800225890778,,,,,2018_jun._15_1149,60.0132297095,Experimento Piloto1,001,136,
2.5,Stim\\05_078.jpg,En78_25,Enojo,25,Luis decide la comida siguiente.,Afirmación,En78,78,,,,,,,,,0,17,17,17,,,,,,,,,1,1.73288928674,2,0.800281671788,,,,,2018_jun._15_1149,60.0132297095,Experimento Piloto1,001,136,
2.5,Stim\\05_028.jpg,En28_17,Enojo,17,Brenda sube el autobús en las mañanas.,Afirmación,En28,28,,,,,,,,,0,18,18,18,,,,,,,,,1,1.1801400862,2,2.64967071354,,,,,2018_jun._15_1149,60.0132297095,Experimento Piloto1,001,136,
0.25,Stim\\02_078.jpg,Al78_26,Alegría,26,Víctor trae el café a Marco.,Afirmación,Al78,78,,,,,,,,,0,19,19,19,,,,,,,,,1,1.22045726148,3,0.450566868936,,,,,2018_jun._15_1149,60.0132297095,Experimento Piloto1,001,136,
2.5,Stim\\03_075.jpg,Tr75_20,Tristeza,20,Karen analiza la idea.,Afirmación,Tr75,75,,,,,,,,,0,20,20,20,,,,,,,,,1,0.821577968911,4,0.800435627376,,,,,2018_jun._15_1149,60.0132297095,Experimento Piloto1,001,136,
2.5,Stim\\05_028.jpg,En28_21,Enojo,21,Mauro anuncia la actividad.,Afirmación,En28,28,,,,,,,,,0,21,21,21,,,,,,,,,1,0.920700377436,2,0.550426925538,,,,,2018_jun._15_1149,60.0132297095,Experimento Piloto1,001,136,
0.25,Stim\\05_019.jpg,En19_21,Enojo,21,Mauro anuncia la actividad.,Afirmación,En19,19,,,,,,,,,0,22,22,22,,,,,,,,,1,1.23329715749,2,0.450022446279,,,,,2018_jun._15_1149,60.0132297095,Experimento Piloto1,001,136,
0.25,Stim\\03_028.jpg,Tr28_16,Tristeza,16,Valeria modifica algunas imágenes.,Afirmación,Tr28,28,,,,,,,,,0,23,23,23,,,,,,,,,1,0.793867301886,3,0.600075594425,,,,,2018_jun._15_1149,60.0132297095,Experimento Piloto1,001,136,
0.25,Stim\\05_075.jpg,En75_27,Enojo,27,Claudia informa los avances en el reporte.,Afirmación,En75,75,,,,,,,,,0,24,24,24,,,,,,,,,1,2.80848951272,3,0.8001509211,,,,,2018_jun._15_1149,60.0132297095,Experimento Piloto1,001,136,
2.5,Stim\\02_078.jpg,Al78_18,Alegría,18,Sofía escucha la música.,Afirmación,Al78,78,,,,,,,,,0,25,25,25,,,,,,,,,1,1.43923975392,3,0.433347048024,,,,,2018_jun._15_1149,60.0132297095,Experimento Piloto1,001,136,
2.5,Stim\\03_028.jpg,Tr28_25,Tristeza,25,Luis decide la comida siguiente.,Afirmación,Tr28,28,,,,,,,,,0,26,26,26,,,,,,,,,1,1.48415908566,4,0.55063800088,,,,,2018_jun._15_1149,60.0132297095,Experimento Piloto1,001,136,
0.25,Stim\\03_075.jpg,Tr75_18,Tristeza,18,Sofía escucha la música.,Afirmación,Tr75,75,,,,,,,,,0,27,27,27,,,,,,,,,1,1.07290399508,4,0.60022776502,,,,,2018_jun._15_1149,60.0132297095,Experimento Piloto1,001,136,
2.5,Stim\\02_028.jpg,Al28_27,Alegría,27,Claudia informa los avances en el reporte.,Afirmación,Al28,28,,,,,,,,,0,28,28,28,,,,,,,,,1,1.20985172961,3,1.11668316297,,,,,2018_jun._15_1149,60.0132297095,Experimento Piloto1,001,136,
2.5,Stim\\02_028.jpg,Al28_20,Alegría,20,Karen analiza la idea.,Afirmación,Al28,28,,,,,,,,,0,29,29,29,,,,,,,,,1,1.49043601115,3,0.650242803581,,,,,2018_jun._15_1149,60.0132297095,Experimento Piloto1,001,136,
0.25,Stim\\05_078.jpg,En78_29,Enojo,29,Miriam mira la película.,Afirmación,En78,78,,,,,,,,,0,30,30,30,,,,,,,,,1,2.5004074245,3,0.800475789703,,,,,2018_jun._15_1149,60.0132297095,Experimento Piloto1,001,136,
0.25,Stim\\05_019.jpg,En19_22,Enojo,22,Enrique corre todas las mañanas.,Afirmación,En19,19,,,,,,,,,0,31,31,31,,,,,,,,,1,1.28025584295,3,0.700365834176,,,,,2018_jun._15_1149,60.0132297095,Experimento Piloto1,001,136,
2.5,Stim\\03_019.jpg,Tr19_20,Tristeza,20,Karen analiza la idea.,Afirmación,Tr19,19,,,,,,,,,0,32,32,32,,,,,,,,,1,2.20713229381,3,0.433474674975,,,,,2018_jun._15_1149,60.0132297095,Experimento Piloto1,001,136,
2.5,Stim\\05_078.jpg,En78_22,Enojo,22,Enrique corre todas las mañanas.,Afirmación,En78,78,,,,,,,,,0,33,33,33,,,,,,,,,1,1.90198294797,2,1.36620143817,,,,,2018_jun._15_1149,60.0132297095,Experimento Piloto1,001,136,
2.5,Stim\\02_078.jpg,Al78_16,Alegría,16,Valeria modifica algunas imágenes.,Afirmación,Al78,78,,,,,,,,,0,34,34,34,,,,,,,,,1,2.54901990534,3,0.50008835712,,,,,2018_jun._15_1149,60.0132297095,Experimento Piloto1,001,136,
2.5,Stim\\05_028.jpg,En28_24,Enojo,24,Guadalupe comenta los resultados con los compañeros.,Afirmación,En28,28,,,,,,,,,0,35,35,35,,,,,,,,,1,2.40195215685,2,0.750337140425,,,,,2018_jun._15_1149,60.0132297095,Experimento Piloto1,001,136,
2.5,Stim\\02_075.jpg,Al75_16,Alegría,16,Valeria modifica algunas imágenes.,Afirmación,Al75,75,,,,,,,,,0,36,36,36,,,,,,,,,1,0.867091703088,3,1.00025793139,,,,,2018_jun._15_1149,60.0132297095,Experimento Piloto1,001,136,
0.25,Stim\\02_019.jpg,Al19_18,Alegría,18,Sofía escucha la música.,Afirmación,Al19,19,,,,,,,,,0,37,37,37,,,,,,,,,1,1.38731254234,3,0.433910659349,,,,,2018_jun._15_1149,60.0132297095,Experimento Piloto1,001,136,
2.5,Stim\\02_028.jpg,Al28_26,Alegría,26,Víctor trae el café a Marco.,Afirmación,Al28,28,,,,,,,,,0,38,38,38,,,,,,,,,1,0.982251821361,3,0.383525681131,,,,,2018_jun._15_1149,60.0132297095,Experimento Piloto1,001,136,
2.5,Stim\\02_078.jpg,Al78_29,Alegría,29,Miriam mira la película.,Afirmación,Al78,78,,,,,,,,,0,39,39,39,,,,,,,,,1,2.35544105821,3,0.866813690534,,,,,2018_jun._15_1149,60.0132297095,Experimento Piloto1,001,136,
0.25,Stim\\05_078.jpg,En78_24,Enojo,24,Guadalupe comenta los resultados con los compañeros.,Afirmación,En78,78,,,,,,,,,0,40,40,40,,,,,,,,,1,2.43390798186,2,2.33337364441,,,,,2018_jun._15_1149,60.0132297095,Experimento Piloto1,001,136,
0.25,Stim\\03_075.jpg,Tr75_19,Tristeza,19,Armando acompaña a Rodrígo a la tienda.,Afirmación,Tr75,75,,,,,,,,,0,41,41,41,,,,,,,,,1,1.97943287224,4,0.666350574277,,,,,2018_jun._15_1149,60.0132297095,Experimento Piloto1,001,136,
0.25,Stim\\02_028.jpg,Al28_17,Alegría,17,Brenda sube el autobús en las mañanas.,Afirmación,Al28,28,,,,,,,,,0,42,42,42,,,,,,,,,1,1.16249588336,3,0.383875985874,,,,,2018_jun._15_1149,60.0132297095,Experimento Piloto1,001,136,
2.5,Stim\\05_075.jpg,En75_21,Enojo,21,Mauro anuncia la actividad.,Afirmación,En75,75,,,,,,,,,0,43,43,43,,,,,,,,,1,1.2373383801,2,2.74922910644,,,,,2018_jun._15_1149,60.0132297095,Experimento Piloto1,001,136,
0.25,Stim\\03_019.jpg,Tr19_27,Tristeza,27,Claudia informa los avances en el reporte.,Afirmación,Tr19,19,,,,,,,,,0,44,44,44,,,,,,,,,1,1.31003397733,3,0.450112588391,,,,,2018_jun._15_1149,60.0132297095,Experimento Piloto1,001,136,
2.5,Stim\\02_075.jpg,Al75_19,Alegría,19,Armando acompaña a Rodrígo a la tienda.,Afirmación,Al75,75,,,,,,,,,0,45,45,45,,,,,,,,,1,1.21076653818,3,0.8668449279,,,,,2018_jun._15_1149,60.0132297095,Experimento Piloto1,001,136,
2.5,Stim\\03_019.jpg,Tr19_22,Tristeza,22,Enrique corre todas las mañanas.,Afirmación,Tr19,19,,,,,,,,,0,46,46,46,,,,,,,,,1,3.26346575894,3,0.500550223883,,,,,2018_jun._15_1149,60.0132297095,Experimento Piloto1,001,136,
2.5,Stim\\02_075.jpg,Al75_23,Alegría,23,Óscar consigue un nuevo departamento.,Afirmación,Al75,75,,,,,,,,,0,47,47,47,,,,,,,,,1,2.66207507142,3,0.650110714148,,,,,2018_jun._15_1149,60.0132297095,Experimento Piloto1,001,136,
2.5,Stim\\02_019.jpg,Al19_27,Alegría,27,Claudia informa los avances en el reporte.,Afirmación,Al19,19,,,,,,,,,0,48,48,48,,,,,,,,,1,1.25939062147,3,1.11779298195,,,,,2018_jun._15_1149,60.0132297095,Experimento Piloto1,001,136,
2.5,Stim\\03_028.jpg,Tr28_16,Tristeza,16,Valeria modifica algunas imágenes.,Afirmación,Tr28,28,,,,,,,,,0,49,49,49,,,,,,,,,1,0.862581919991,4,1.26658101679,,,,,2018_jun._15_1149,60.0132297095,Experimento Piloto1,001,136,
2.5,Stim\\02_078.jpg,Al78_20,Alegría,20,Karen analiza la idea.,Afirmación,Al78,78,,,,,,,,,0,50,50,50,,,,,,,,,1,0.774495672732,3,0.700164130044,,,,,2018_jun._15_1149,60.0132297095,Experimento Piloto1,001,136,
2.5,Stim\\05_075.jpg,En75_24,Enojo,24,Guadalupe comenta los resultados con los compañeros.,Afirmación,En75,75,,,,,,,,,0,51,51,51,,,,,,,,,1,0.654325527265,4,0.750261724499,,,,,2018_jun._15_1149,60.0132297095,Experimento Piloto1,001,136,
0.25,Stim\\03_028.jpg,Tr28_26,Tristeza,26,Víctor trae el café a Marco.,Afirmación,Tr28,28,,,,,,,,,0,52,52,52,,,,,,,,,1,2.08574165985,4,2.39990387816,,,,,2018_jun._15_1149,60.0132297095,Experimento Piloto1,001,136,
2.5,Stim\\03_028.jpg,Tr28_21,Tristeza,21,Mauro anuncia la actividad.,Afirmación,Tr28,28,,,,,,,,,0,53,53,53,,,,,,,,,1,3.06584167297,4,3.26584202996,,,,,2018_jun._15_1149,60.0132297095,Experimento Piloto1,001,136,
2.5,Stim\\02_075.jpg,Al75_29,Alegría,29,Miriam mira la película.,Afirmación,Al75,75,,,,,,,,,0,54,54,54,,,,,,,,,1,0.773628612713,3,0.550766074079,,,,,2018_jun._15_1149,60.0132297095,Experimento Piloto1,001,136,
0.25,Stim\\03_078.jpg,Tr78_26,Tristeza,26,Víctor trae el café a Marco.,Afirmación,Tr78,78,,,,,,,,,0,55,55,55,,,,,,,,,1,0.753006150191,4,0.549734348518,,,,,2018_jun._15_1149,60.0132297095,Experimento Piloto1,001,136,
0.25,Stim\\05_019.jpg,En19_19,Enojo,19,Armando acompaña a Rodrígo a la tienda.,Afirmación,En19,19,,,,,,,,,0,56,56,56,,,,,,,,,1,1.26252685298,2,0.450308937546,,,,,2018_jun._15_1149,60.0132297095,Experimento Piloto1,001,136,
0.25,Stim\\03_078.jpg,Tr78_19,Tristeza,19,Armando acompaña a Rodrígo a la tienda.,Afirmación,Tr78,78,,,,,,,,,0,57,57,57,,,,,,,,,1,1.18354094281,4,0.400268909093,,,,,2018_jun._15_1149,60.0132297095,Experimento Piloto1,001,136,
2.5,Stim\\03_078.jpg,Tr78_18,Tristeza,18,Sofía escucha la música.,Afirmación,Tr78,78,,,,,,,,,0,58,58,58,,,,,,,,,1,1.11644442025,4,0.450253156536,,,,,2018_jun._15_1149,60.0132297095,Experimento Piloto1,001,136,
2.5,Stim\\05_075.jpg,En75_26,Enojo,26,Víctor trae el café a Marco.,Afirmación,En75,75,,,,,,,,,0,59,59,59,,,,,,,,,1,0.820498941053,2,0.750000223124,,,,,2018_jun._15_1149,60.0132297095,Experimento Piloto1,001,136,
2.5,Stim\\02_075.jpg,Al75_30,Alegría,30,Marisol toma 2 litros de agua cada día.,Afirmación,Al75,75,,,,,,,,,0,60,60,60,,,,,,,,,1,1.16320675655,3,0.449835468333,,,,,2018_jun._15_1149,60.0132297095,Experimento Piloto1,001,136,
2.5,Stim\\03_019.jpg,Tr19_18,Tristeza,18,Sofía escucha la música.,Afirmación,Tr19,19,,,,,,,,,0,61,61,61,,,,,,,,,1,3.93876182223,3,0.766871524285,,,,,2018_jun._15_1149,60.0132297095,Experimento Piloto1,001,136,
0.25,Stim\\03_078.jpg,Tr78_23,Tristeza,23,Óscar consigue un nuevo departamento.,Afirmación,Tr78,78,,,,,,,,,0,62,62,62,,,,,,,,,1,1.16425677829,4,0.80007684392,,,,,2018_jun._15_1149,60.0132297095,Experimento Piloto1,001,136,
2.5,Stim\\03_019.jpg,Tr19_25,Tristeza,25,Luis decide la comida siguiente.,Afirmación,Tr19,19,,,,,,,,,0,63,63,63,,,,,,,,,1,2.61563938871,3,1.19983033648,,,,,2018_jun._15_1149,60.0132297095,Experimento Piloto1,001,136,
0.25,Stim\\02_028.jpg,Al28_29,Alegría,29,Miriam mira la película.,Afirmación,Al28,28,,,,,,,,,0,64,64,64,,,,,,,,,1,0.720744198998,3,0.800214734576,,,,,2018_jun._15_1149,60.0132297095,Experimento Piloto1,001,136,
2.5,Stim\\02_019.jpg,Al19_21,Alegría,21,Mauro anuncia la actividad.,Afirmación,Al19,19,,,,,,,,,0,65,65,65,,,,,,,,,1,1.33664865907,3,0.60013717666,,,,,2018_jun._15_1149,60.0132297095,Experimento Piloto1,001,136,
2.5,Stim\\02_078.jpg,Al78_25,Alegría,25,Luis decide la comida siguiente.,Afirmación,Al78,78,,,,,,,,,0,66,66,66,,,,,,,,,1,0.917480697539,3,0.650992500355,,,,,2018_jun._15_1149,60.0132297095,Experimento Piloto1,001,136,
2.5,Stim\\05_075.jpg,En75_29,Enojo,29,Miriam mira la película.,Afirmación,En75,75,,,,,,,,,0,67,67,67,,,,,,,,,1,1.02192595316,2,2.33340934426,,,,,2018_jun._15_1149,60.0132297095,Experimento Piloto1,001,136,
0.25,Stim\\03_028.jpg,Tr28_20,Tristeza,20,Karen analiza la idea.,Afirmación,Tr28,28,,,,,,,,,0,68,68,68,,,,,,,,,1,4.00386183088,4,0.800461509764,,,,,2018_jun._15_1149,60.0132297095,Experimento Piloto1,001,136,
2.5,Stim\\02_075.jpg,Al75_26,Alegría,26,Víctor trae el café a Marco.,Afirmación,Al75,75,,,,,,,,,0,69,69,69,,,,,,,,,1,1.48099652551,3,0.551042747888,,,,,2018_jun._15_1149,60.0132297095,Experimento Piloto1,001,136,
0.25,Stim\\05_019.jpg,En19_20,Enojo,20,Karen analiza la idea.,Afirmación,En19,19,,,,,,,,,0,70,70,70,,,,,,,,,1,1.37392063746,3,1.01686728493,,,,,2018_jun._15_1149,60.0132297095,Experimento Piloto1,001,136,
0.25,Stim\\05_028.jpg,En28_22,Enojo,22,Enrique corre todas las mañanas.,Afirmación,En28,28,,,,,,,,,0,71,71,71,,,,,,,,,1,1.26841018767,2,0.49990004043,,,,,2018_jun._15_1149,60.0132297095,Experimento Piloto1,001,136,
2.5,Stim\\05_028.jpg,En28_22,Enojo,22,Enrique corre todas las mañanas.,Afirmación,En28,28,,,,,,,,,0,72,72,72,,,,,,,,,1,1.03333562407,2,0.950274576444,,,,,2018_jun._15_1149,60.0132297095,Experimento Piloto1,001,136,
0.25,Stim\\05_019.jpg,En19_17,Enojo,17,Brenda sube el autobús en las mañanas.,Afirmación,En19,19,,,,,,,,,0,73,73,73,,,,,,,,,1,1.00882321704,2,0.550289034881,,,,,2018_jun._15_1149,60.0132297095,Experimento Piloto1,001,136,
2.5,Stim\\05_078.jpg,En78_26,Enojo,26,Víctor trae el café a Marco.,Afirmación,En78,78,,,,,,,,,0,74,74,74,,,,,,,,,1,0.670733622918,2,0.600476325201,,,,,2018_jun._15_1149,60.0132297095,Experimento Piloto1,001,136,
2.5,Stim\\03_078.jpg,Tr78_29,Tristeza,29,Miriam mira la película.,Afirmación,Tr78,78,,,,,,,,,0,75,75,75,,,,,,,,,1,0.703054478858,4,0.600705696714,,,,,2018_jun._15_1149,60.0132297095,Experimento Piloto1,001,136,
0.25,Stim\\02_075.jpg,Al75_22,Alegría,22,Enrique corre todas las mañanas.,Afirmación,Al75,75,,,,,,,,,0,76,76,76,,,,,,,,,1,2.00149671606,3,0.650210673718,,,,,2018_jun._15_1149,60.0132297095,Experimento Piloto1,001,136,
2.5,Stim\\02_019.jpg,Al19_23,Alegría,23,Óscar consigue un nuevo departamento.,Afirmación,Al19,19,,,,,,,,,0,77,77,77,,,,,,,,,1,1.58031840693,3,0.433586236995,,,,,2018_jun._15_1149,60.0132297095,Experimento Piloto1,001,136,
0.25,Stim\\05_075.jpg,En75_21,Enojo,21,Mauro anuncia la actividad.,Afirmación,En75,75,,,,,,,,,0,78,78,78,,,,,,,,,1,1.63826461262,2,2.24871859864,,,,,2018_jun._15_1149,60.0132297095,Experimento Piloto1,001,136,
0.25,Stim\\02_078.jpg,Al78_25,Alegría,25,Luis decide la comida siguiente.,Afirmación,Al78,78,,,,,,,,,0,79,79,79,,,,,,,,,1,1.55552397111,3,0.350995088594,,,,,2018_jun._15_1149,60.0132297095,Experimento Piloto1,001,136,
0.25,Stim\\03_078.jpg,Tr78_22,Tristeza,22,Enrique corre todas las mañanas.,Afirmación,Tr78,78,,,,,,,,,0,80,80,80,,,,,,,,,1,1.93232558617,3,0.399849435898,,,,,2018_jun._15_1149,60.0132297095,Experimento Piloto1,001,136,
0.25,Stim\\05_028.jpg,En28_26,Enojo,26,Víctor trae el café a Marco.,Afirmación,En28,28,,,,,,,,,0,81,81,81,,,,,,,,,1,2.38499517606,4,0.816811593168,,,,,2018_jun._15_1149,60.0132297095,Experimento Piloto1,001,136,
2.5,Stim\\05_019.jpg,En19_29,Enojo,29,Miriam mira la película.,Afirmación,En19,19,,,,,,,,,0,82,82,82,,,,,,,,,1,1.17373196377,2,0.915577895726,,,,,2018_jun._15_1149,60.0132297095,Experimento Piloto1,001,136,
0.25,Stim\\02_019.jpg,Al19_21,Alegría,21,Mauro anuncia la actividad.,Afirmación,Al19,19,,,,,,,,,0,83,83,83,,,,,,,,,1,3.5206742273,2,2.34931674956,,,,,2018_jun._15_1149,60.0132297095,Experimento Piloto1,001,136,
2.5,Stim\\05_078.jpg,En78_30,Enojo,30,Marisol toma 2 litros de agua cada día.,Afirmación,En78,78,,,,,,,,,0,84,84,84,,,,,,,,,1,0.861142323685,4,2.53355607062,,,,,2018_jun._15_1149,60.0132297095,Experimento Piloto1,001,136,
0.25,Stim\\02_078.jpg,Al78_30,Alegría,30,Marisol toma 2 litros de agua cada día.,Afirmación,Al78,78,,,,,,,,,0,85,85,85,,,,,,,,,1,1.25005109541,3,0.434265426573,,,,,2018_jun._15_1149,60.0132297095,Experimento Piloto1,001,136,
0.25,Stim\\03_075.jpg,Tr75_16,Tristeza,16,Valeria modifica algunas imágenes.,Afirmación,Tr75,75,,,,,,,,,0,86,86,86,,,,,,,,,1,1.01540448372,4,0.500521664006,,,,,2018_jun._15_1149,60.0132297095,Experimento Piloto1,001,136,
0.25,Stim\\02_019.jpg,Al19_24,Alegría,24,Guadalupe comenta los resultados con los compañeros.,Afirmación,Al19,19,,,,,,,,,0,87,87,87,,,,,,,,,1,1.25445377896,3,0.499640324048,,,,,2018_jun._15_1149,60.0132297095,Experimento Piloto1,001,136,
2.5,Stim\\02_028.jpg,Al28_29,Alegría,29,Miriam mira la película.,Afirmación,Al28,28,,,,,,,,,0,88,88,88,,,,,,,,,1,0.30718869957,3,0.501183896156,,,,,2018_jun._15_1149,60.0132297095,Experimento Piloto1,001,136,
0.25,Stim\\03_019.jpg,Tr19_25,Tristeza,25,Luis decide la comida siguiente.,Afirmación,Tr19,19,,,,,,,,,0,89,89,89,,,,,,,,,1,1.51868886959,2,1.3165242094,,,,,2018_jun._15_1149,60.0132297095,Experimento Piloto1,001,136,
0.25,Stim\\03_075.jpg,Tr75_25,Tristeza,25,Luis decide la comida siguiente.,Afirmación,Tr75,75,,,,,,,,,0,90,90,90,,,,,,,,,1,3.89995564294,4,0.484624522403,,,,,2018_jun._15_1149,60.0132297095,Experimento Piloto1,001,136,
2.5,Stim\\03_078.jpg,Tr78_25,Tristeza,25,Luis decide la comida siguiente.,Afirmación,Tr78,78,,,,,,,,,0,91,91,91,,,,,,,,,1,1.50036503093,4,0.766585033018,,,,,2018_jun._15_1149,60.0132297095,Experimento Piloto1,001,136,
2.5,Stim\\02_019.jpg,Al19_18,Alegría,18,Sofía escucha la música.,Afirmación,Al19,19,,,,,,,,,0,92,92,92,,,,,,,,,1,0.505600859652,3,0.551408225066,,,,,2018_jun._15_1149,60.0132297095,Experimento Piloto1,001,136,
2.5,Stim\\03_028.jpg,Tr28_19,Tristeza,19,Armando acompaña a Rodrígo a la tienda.,Afirmación,Tr28,28,,,,,,,,,0,93,93,93,,,,,,,,,1,1.06325968158,3,0.601221113246,,,,,2018_jun._15_1149,60.0132297095,Experimento Piloto1,001,136,
0.25,Stim\\03_078.jpg,Tr78_18,Tristeza,18,Sofía escucha la música.,Afirmación,Tr78,78,,,,,,,,,0,94,94,94,,,,,,,,,1,1.37305670117,4,0.400154223336,,,,,2018_jun._15_1149,60.0132297095,Experimento Piloto1,001,136,
0.25,Stim\\05_019.jpg,En19_29,Enojo,29,Miriam mira la película.,Afirmación,En19,19,,,,,,,,,0,95,95,95,,,,,,,,,1,0.973037244758,2,0.433972241585,,,,,2018_jun._15_1149,60.0132297095,Experimento Piloto1,001,136,
2.5,Stim\\03_078.jpg,Tr78_24,Tristeza,24,Guadalupe comenta los resultados con los compañeros.,Afirmación,Tr78,78,,,,,,,,,0,96,96,96,,,,,,,,,1,0.404755041041,4,0.450174170626,,,,,2018_jun._15_1149,60.0132297095,Experimento Piloto1,001,136,
2.5,Stim\\05_019.jpg,En19_22,Enojo,22,Enrique corre todas las mañanas.,Afirmación,En19,19,,,,,,,,,0,97,97,97,,,,,,,,,1,0.968255250332,2,0.334418757413,,,,,2018_jun._15_1149,60.0132297095,Experimento Piloto1,001,136,
0.25,Stim\\02_028.jpg,Al28_20,Alegría,20,Karen analiza la idea.,Afirmación,Al28,28,,,,,,,,,0,98,98,98,,,,,,,,,1,1.69111823521,4,2.18322142919,,,,,2018_jun._15_1149,60.0132297095,Experimento Piloto1,001,136,
2.5,Stim\\03_078.jpg,Tr78_27,Tristeza,27,Claudia informa los avances en el reporte.,Afirmación,Tr78,78,,,,,,,,,0,99,99,99,,,,,,,,,1,2.2800929624,4,0.600118880488,,,,,2018_jun._15_1149,60.0132297095,Experimento Piloto1,001,136,
0.25,Stim\\03_075.jpg,Tr75_17,Tristeza,17,Brenda sube el autobús en las mañanas.,Afirmación,Tr75,75,,,,,,,,,0,100,100,100,,,,,,,,,1,1.52907395491,4,1.01641389688,,,,,2018_jun._15_1149,60.0132297095,Experimento Piloto1,001,136,
2.5,Stim\\05_028.jpg,En28_25,Enojo,25,Luis decide la comida siguiente.,Afirmación,En28,28,,,,,,,,,0,101,101,101,,,,,,,,,1,0.0343213860824,4,2.6995010054,,,,,2018_jun._15_1149,60.0132297095,Experimento Piloto1,001,136,
2.5,Stim\\02_028.jpg,Tr28_30,Tristeza,30,Marisol toma 2 litros de agua cada día.,Afirmación,Tr28,28,,,,,,,,,0,102,102,102,,,,,,,,,1,0.97399890937,3,0.384039312671,,,,,2018_jun._15_1149,60.0132297095,Experimento Piloto1,001,136,
0.25,Stim\\02_078.jpg,Al78_18,Alegría,18,Sofía escucha la música.,Afirmación,Al78,78,,,,,,,,,0,103,103,103,,,,,,,,,1,2.02480916201,3,0.449823865883,,,,,2018_jun._15_1149,60.0132297095,Experimento Piloto1,001,136,
0.25,Stim\\02_078.jpg,Al78_24,Alegría,24,Guadalupe comenta los resultados con los compañeros.,Afirmación,Al78,78,,,,,,,,,0,104,104,104,,,,,,,,,1,2.0359216317,3,0.433889239441,,,,,2018_jun._15_1149,60.0132297095,Experimento Piloto1,001,136,
0.25,Stim\\05_075.jpg,En75_26,Enojo,26,Víctor trae el café a Marco.,Afirmación,En75,75,,,,,,,,,0,105,105,105,,,,,,,,,1,2.6715752468,2,1.56593181508,,,,,2018_jun._15_1149,60.0132297095,Experimento Piloto1,001,136,
0.25,Stim\\05_019.jpg,En19_16,Enojo,16,Valeria modifica algunas imágenes.,Afirmación,En19,19,,,,,,,,,0,106,106,106,,,,,,,,,1,1.26655691939,2,0.800138426154,,,,,2018_jun._15_1149,60.0132297095,Experimento Piloto1,001,136,
2.5,Stim\\05_019.jpg,En19_21,Enojo,21,Mauro anuncia la actividad.,Afirmación,En19,19,,,,,,,,,0,107,107,107,,,,,,,,,1,1.33777097299,2,0.600238474974,,,,,2018_jun._15_1149,60.0132297095,Experimento Piloto1,001,136,
0.25,Stim\\03_028.jpg,Tr28_22,Tristeza,22,Enrique corre todas las mañanas.,Afirmación,Tr28,28,,,,,,,,,0,108,108,108,,,,,,,,,1,2.96729313947,2,2.33392743828,,,,,2018_jun._15_1149,60.0132297095,Experimento Piloto1,001,136,
2.5,Stim\\05_075.jpg,En75_28,Enojo,28,Antonio responde la pregunta.,Afirmación,En75,75,,,,,,,,,0,109,109,109,,,,,,,,,1,1.18290146932,2,0.4994885997,,,,,2018_jun._15_1149,60.0132297095,Experimento Piloto1,001,136,
2.5,Stim\\05_078.jpg,En78_28,Enojo,28,Antonio responde la pregunta.,Afirmación,En78,78,,,,,,,,,0,110,110,110,,,,,,,,,1,0.717109954635,2,1.11664567813,,,,,2018_jun._15_1149,60.0132297095,Experimento Piloto1,001,136,
2.5,Stim\\03_028.jpg,Tr28_26,Tristeza,26,Víctor trae el café a Marco.,Afirmación,Tr28,28,,,,,,,,,0,111,111,111,,,,,,,,,1,1.38707424586,4,0.600516487528,,,,,2018_jun._15_1149,60.0132297095,Experimento Piloto1,001,136,
2.5,Stim\\05_028.jpg,En28_20,Enojo,20,Karen analiza la idea.,Afirmación,En28,28,,,,,,,,,0,112,112,112,,,,,,,,,1,1.07384334729,2,0.450682447188,,,,,2018_jun._15_1149,60.0132297095,Experimento Piloto1,001,136,
2.5,Stim\\02_019.jpg,Al19_30,Alegría,30,Marisol toma 2 litros de agua cada día.,Afirmación,Al19,19,,,,,,,,,0,113,113,113,,,,,,,,,1,1.41113861983,2,1.01620237529,,,,,2018_jun._15_1149,60.0132297095,Experimento Piloto1,001,136,
2.5,Stim\\05_078.jpg,En78_23,Enojo,23,Óscar consigue un nuevo departamento.,Afirmación,En78,78,,,,,,,,,0,114,114,114,,,,,,,,,1,3.578908263,2,1.56741782118,,,,,2018_jun._15_1149,60.0132297095,Experimento Piloto1,001,136,
0.25,Stim\\05_078.jpg,En78_23,Enojo,23,Óscar consigue un nuevo departamento.,Afirmación,En78,78,,,,,,,,,0,115,115,115,,,,,,,,,1,1.03374126358,2,0.400533980453,,,,,2018_jun._15_1149,60.0132297095,Experimento Piloto1,001,136,
2.5,Stim\\05_019.jpg,En19_19,Enojo,19,Armando acompaña a Rodrígo a la tienda.,Afirmación,En19,19,,,,,,,,,0,116,116,116,,,,,,,,,1,2.13141381209,2,0.600146994117,,,,,2018_jun._15_1149,60.0132297095,Experimento Piloto1,001,136,
2.5,Stim\\03_078.jpg,Tr78_17,Tristeza,17,Brenda sube el autobús en las mañanas.,Afirmación,Tr78,78,,,,,,,,,0,117,117,117,,,,,,,,,1,0.958572559492,4,0.449387881508,,,,,2018_jun._15_1149,60.0132297095,Experimento Piloto1,001,136,
0.25,Stim\\05_075.jpg,En75_20,Enojo,20,Karen analiza la idea.,Afirmación,En75,75,,,,,,,,,0,118,118,118,,,,,,,,,1,1.07458947408,4,1.86661868012,,,,,2018_jun._15_1149,60.0132297095,Experimento Piloto1,001,136,
0.25,Stim\\05_078.jpg,En78_28,Enojo,28,Antonio responde la pregunta.,Afirmación,En78,78,,,,,,,,,0,119,119,119,,,,,,,,,1,3.01917171001,2,1.26664259902,,,,,2018_jun._15_1149,60.0132297095,Experimento Piloto1,001,136,
2.5,Stim\\05_028.jpg,En28_16,Enojo,16,Valeria modifica algunas imágenes.,Afirmación,En28,28,,,,,,,,,,,,,0,0,0,0,,,,,,,,,1,2.89688545615,2,0.650257529767,2018_jun._15_1149,60.0132297095,Experimento Piloto1,001,136,
2.5,Stim\\05_028.jpg,En28_29,Enojo,29,Miriam mira la película.,Afirmación,En28,28,,,,,,,,,,,,,0,1,1,1,,,,,,,,,1,1.53872139215,2,0.650605157021,2018_jun._15_1149,60.0132297095,Experimento Piloto1,001,136,
0.25,Stim\\03_028.jpg,Tr28_29,Tristeza,29,Miriam mira la película.,Afirmación,Tr28,28,,,,,,,,,,,,,0,2,2,2,,,,,,,,,1,0.982902004814,4,6.1325499597,2018_jun._15_1149,60.0132297095,Experimento Piloto1,001,136,
2.5,Stim\\02_075.jpg,Al75_22,Alegría,22,Enrique corre todas las mañanas.,Afirmación,Al75,75,,,,,,,,,,,,,0,3,3,3,,,,,,,,,1,1.84873216458,4,1.11706425883,2018_jun._15_1149,60.0132297095,Experimento Piloto1,001,136,
2.5,Stim\\05_019.jpg,En19_17,Enojo,17,Brenda sube el autobús en las mañanas.,Afirmación,En19,19,,,,,,,,,,,,,0,4,4,4,,,,,,,,,1,3.62991486479,2,0.900339416289,2018_jun._15_1149,60.0132297095,Experimento Piloto1,001,136,
2.5,Stim\\02_028.jpg,Al28_17,Alegría,17,Brenda sube el autobús en las mañanas.,Afirmación,Al28,28,,,,,,,,,,,,,0,5,5,5,,,,,,,,,1,0.983585210625,3,0.35050555445,2018_jun._15_1149,60.0132297095,Experimento Piloto1,001,136,
0.25,Stim\\05_075.jpg,En75_24,Enojo,24,Guadalupe comenta los resultados con los compañeros.,Afirmación,En75,75,,,,,,,,,,,,,0,6,6,6,,,,,,,,,1,2.25983240707,2,0.766527020767,2018_jun._15_1149,60.0132297095,Experimento Piloto1,001,136,
2.5,Stim\\03_078.jpg,Tr78_23,Tristeza,23,Óscar consigue un nuevo departamento.,Afirmación,Tr78,78,,,,,,,,,,,,,0,7,7,7,,,,,,,,,1,0.813761041293,4,0.850262795495,2018_jun._15_1149,60.0132297095,Experimento Piloto1,001,136,
0.25,Stim\\05_075.jpg,En75_16,Enojo,16,Valeria modifica algunas imágenes.,Afirmación,En75,75,,,,,,,,,,,,,0,8,8,8,,,,,,,,,1,2.59993324129,4,1.51667941449,2018_jun._15_1149,60.0132297095,Experimento Piloto1,001,136,
0.25,Stim\\02_078.jpg,Al78_23,Alegría,23,Óscar consigue un nuevo departamento.,Afirmación,Al78,78,,,,,,,,,,,,,0,9,9,9,,,,,,,,,1,1.48102463914,3,0.399914588117,2018_jun._15_1149,60.0132297095,Experimento Piloto1,001,136,
2.5,Stim\\05_078.jpg,En78_24,Enojo,24,Guadalupe comenta los resultados con los compañeros.,Afirmación,En78,78,,,,,,,,,,,,,0,10,10,10,,,,,,,,,1,2.23743833967,2,0.433429157671,2018_jun._15_1149,60.0132297095,Experimento Piloto1,001,136,
2.5,Stim\\03_028.jpg,Tr28_28,Tristeza,28,Antonio responde la pregunta.,Afirmación,Tr28,28,,,,,,,,,,,,,0,11,11,11,,,,,,,,,1,1.63477941511,4,0.500351197239,2018_jun._15_1149,60.0132297095,Experimento Piloto1,001,136,
0.25,Stim\\02_019.jpg,Al19_20,Alegría,20,Karen analiza la idea.,Afirmación,Al19,19,,,,,,,,,,,,,0,12,12,12,,,,,,,,,1,1.5916218708,3,0.649390469747,2018_jun._15_1149,60.0132297095,Experimento Piloto1,001,136,
2.5,Stim\\05_078.jpg,En78_27,Enojo,27,Claudia informa los avances en el reporte.,Afirmación,En78,78,,,,,,,,,,,,,0,13,13,13,,,,,,,,,1,2.7989415888,2,0.951264354685,2018_jun._15_1149,60.0132297095,Experimento Piloto1,001,136,
0.25,Stim\\05_028.jpg,En28_28,Enojo,28,Antonio responde la pregunta.,Afirmación,En28,28,,,,,,,,,,,,,0,14,14,14,,,,,,,,,1,1.21788330256,4,0.449642242914,2018_jun._15_1149,60.0132297095,Experimento Piloto1,001,136,
2.5,Stim\\03_078.jpg,Tr78_30,Tristeza,30,Marisol toma 2 litros de agua cada día.,Afirmación,Tr78,78,,,,,,,,,,,,,0,15,15,15,,,,,,,,,1,1.67791732451,4,1.21659409185,2018_jun._15_1149,60.0132297095,Experimento Piloto1,001,136,
0.25,Stim\\03_028.jpg,Tr28_27,Tristeza,27,Claudia informa los avances en el reporte.,Afirmación,Tr28,28,,,,,,,,,,,,,0,16,16,16,,,,,,,,,1,3.52680344468,4,1.11577192439,2018_jun._15_1149,60.0132297095,Experimento Piloto1,001,136,
0.25,Stim\\02_075.jpg,Al75_24,Alegría,24,Guadalupe comenta los resultados con los compañeros.,Afirmación,Al75,75,,,,,,,,,,,,,0,17,17,17,,,,,,,,,1,1.29333269669,3,0.384601139004,2018_jun._15_1149,60.0132297095,Experimento Piloto1,001,136,
0.25,Stim\\02_019.jpg,Al19_16,Alegría,16,Valeria modifica algunas imágenes.,Afirmación,Al19,19,,,,,,,,,,,,,0,18,18,18,,,,,,,,,1,1.84952336243,3,0.583501494485,2018_jun._15_1149,60.0132297095,Experimento Piloto1,001,136,
2.5,Stim\\02_028.jpg,Al28_30,Alegría,30,Marisol toma 2 litros de agua cada día.,Afirmación,Al28,28,,,,,,,,,,,,,0,19,19,19,,,,,,,,,1,2.60710177044,3,0.451180013798,2018_jun._15_1149,60.0132297095,Experimento Piloto1,001,136,
2.5,Stim\\05_078.jpg,En78_16,Enojo,16,Valeria modifica algunas imágenes.,Afirmación,En78,78,,,,,,,,,,,,,0,20,20,20,,,,,,,,,1,0.701970542272,2,0.715803786505,2018_jun._15_1149,60.0132297095,Experimento Piloto1,001,136,
0.25,Stim\\02_075.jpg,Al75_28,Alegría,28,Antonio responde la pregunta.,Afirmación,Al75,75,,,,,,,,,,,,,0,21,21,21,,,,,,,,,1,3.16840153045,2,1.31775585411,2018_jun._15_1149,60.0132297095,Experimento Piloto1,001,136,
2.5,Stim\\03_075.jpg,Tr75_17,Tristeza,17,Brenda sube el autobús en las mañanas.,Afirmación,Tr75,75,,,,,,,,,,,,,0,22,22,22,,,,,,,,,1,1.08759894436,4,1.51494127821,2018_jun._15_1149,60.0132297095,Experimento Piloto1,001,136,
0.25,Stim\\05_075.jpg,En75_18,Enojo,18,Sofía escucha la música.,Afirmación,En75,75,,,,,,,,,,,,,0,23,23,23,,,,,,,,,1,1.26233407381,2,0.49871703677,2018_jun._15_1149,60.0132297095,Experimento Piloto1,001,136,
2.5,Stim\\02_075.jpg,Al75_25,Alegría,25,Luis decide la comida siguiente.,Afirmación,Al75,75,,,,,,,,,,,,,0,24,24,24,,,,,,,,,1,1.79343934998,3,0.599553484171,2018_jun._15_1149,60.0132297095,Experimento Piloto1,001,136,
0.25,Stim\\02_028.jpg,Al28_18,Alegría,18,Sofía escucha la música.,Afirmación,Al28,28,,,,,,,,,,,,,0,25,25,25,,,,,,,,,1,1.12077659661,3,0.433555892126,2018_jun._15_1149,60.0132297095,Experimento Piloto1,001,136,
0.25,Stim\\02_028.jpg,Al28_23,Alegría,23,Óscar consigue un nuevo departamento.,Afirmación,Al28,28,,,,,,,,,,,,,0,26,26,26,,,,,,,,,1,2.33862643056,3,0.401744651494,2018_jun._15_1149,60.0132297095,Experimento Piloto1,001,136,
0.25,Stim\\02_075.jpg,Al75_19,Alegría,19,Armando acompaña a Rodrígo a la tienda.,Afirmación,Al75,75,,,,,,,,,,,,,0,27,27,27,,,,,,,,,1,1.92975162724,3,0.449982283952,2018_jun._15_1149,60.0132297095,Experimento Piloto1,001,136,
2.5,Stim\\05_019.jpg,En19_16,Enojo,16,Valeria modifica algunas imágenes.,Afirmación,En19,19,,,,,,,,,,,,,0,28,28,28,,,,,,,,,1,1.31402923639,2,0.350390422445,2018_jun._15_1149,60.0132297095,Experimento Piloto1,001,136,
2.5,Stim\\02_019.jpg,Al19_25,Alegría,25,Luis decide la comida siguiente.,Afirmación,Al19,19,,,,,,,,,,,,,0,29,29,29,,,,,,,,,1,2.91745838514,3,0.501001380691,2018_jun._15_1149,60.0132297095,Experimento Piloto1,001,136,
0.25,Stim\\02_078.jpg,Al78_27,Alegría,27,Claudia informa los avances en el reporte.,Afirmación,Al78,78,,,,,,,,,,,,,0,30,30,30,,,,,,,,,1,2.2185018024,3,0.349769691366,2018_jun._15_1149,60.0132297095,Experimento Piloto1,001,136,
0.25,Stim\\03_019.jpg,Tr19_22,Tristeza,22,Enrique corre todas las mañanas.,Afirmación,Tr19,19,,,,,,,,,,,,,0,31,31,31,,,,,,,,,1,4.0336774501,3,0.549737472254,2018_jun._15_1149,60.0132297095,Experimento Piloto1,001,136,
2.5,Stim\\05_019.jpg,En19_26,Enojo,26,Víctor trae el café a Marco.,Afirmación,En19,19,,,,,,,,,,,,,0,32,32,32,,,,,,,,,1,3.236723004,3,0.433770537453,2018_jun._15_1149,60.0132297095,Experimento Piloto1,001,136,
2.5,Stim\\02_078.jpg,Al78_26,Alegría,26,Víctor trae el café a Marco.,Afirmación,Al78,78,,,,,,,,,,,,,0,33,33,33,,,,,,,,,1,0.433473782478,3,0.333911819595,2018_jun._15_1149,60.0132297095,Experimento Piloto1,001,136,
0.25,Stim\\05_078.jpg,En78_17,Enojo,17,Brenda sube el autobús en las mañanas.,Afirmación,En78,78,,,,,,,,,,,,,0,34,34,34,,,,,,,,,1,0.864478920579,2,0.499893792957,2018_jun._15_1149,60.0132297095,Experimento Piloto1,001,136,
0.25,Stim\\05_078.jpg,En78_21,Enojo,21,Mauro anuncia la actividad.,Afirmación,En78,78,,,,,,,,,,,,,0,35,35,35,,,,,,,,,1,1.88771014938,2,2.69948360172,2018_jun._15_1149,60.0132297095,Experimento Piloto1,001,136,
2.5,Stim\\03_078.jpg,Tr78_20,Tristeza,20,Karen analiza la idea.,Afirmación,Tr78,78,,,,,,,,,,,,,0,36,36,36,,,,,,,,,1,0.555062104345,4,0.967161496287,2018_jun._15_1149,60.0132297095,Experimento Piloto1,001,136,
0.25,Stim\\03_078.jpg,Tr78_28,Tristeza,28,Antonio responde la pregunta.,Afirmación,Tr78,78,,,,,,,,,,,,,0,37,37,37,,,,,,,,,1,8.75127872387,2,0.650203533749,2018_jun._15_1149,60.0132297095,Experimento Piloto1,001,136,
2.5,Stim\\03_028.jpg,Tr28_17,Tristeza,17,Brenda sube el autobús en las mañanas.,Afirmación,Tr28,28,,,,,,,,,,,,,0,38,38,38,,,,,,,,,1,0.814774470683,4,0.450622649946,2018_jun._15_1149,60.0132297095,Experimento Piloto1,001,136,
0.25,Stim\\02_028.jpg,Al28_27,Alegría,27,Claudia informa los avances en el reporte.,Afirmación,Al28,28,,,,,,,,,,,,,0,39,39,39,,,,,,,,,1,2.5930735158,4,1.06679575136,2018_jun._15_1149,60.0132297095,Experimento Piloto1,001,136,
2.5,Stim\\02_019.jpg,Al19_28,Alegría,28,Antonio responde la pregunta.,Afirmación,Al19,19,,,,,,,,,,,,,0,40,40,40,,,,,,,,,1,0.153564228041,3,2.18306033363,2018_jun._15_1149,60.0132297095,Experimento Piloto1,001,136,
0.25,Stim\\02_019.jpg,Al19_17,Alegría,17,Brenda sube el autobús en las mañanas.,Afirmación,Al19,19,,,,,,,,,,,,,0,41,41,41,,,,,,,,,1,2.34508631777,3,0.333523583765,2018_jun._15_1149,60.0132297095,Experimento Piloto1,001,136,
2.5,Stim\\03_075.jpg,Tr75_21,Tristeza,21,Mauro anuncia la actividad.,Afirmación,Tr75,75,,,,,,,,,,,,,0,42,42,42,,,,,,,,,1,0.871463149279,4,0.650454771418,2018_jun._15_1149,60.0132297095,Experimento Piloto1,001,136,
0.25,Stim\\03_075.jpg,Tr75_26,Tristeza,26,Víctor trae el café a Marco.,Afirmación,Tr75,75,,,,,,,,,,,,,0,43,43,43,,,,,,,,,1,1.53747859125,4,0.400290775249,2018_jun._15_1149,60.0132297095,Experimento Piloto1,001,136,
0.25,Stim\\02_075.jpg,Al75_18,Alegría,18,Sofía escucha la música.,Afirmación,Al75,75,,,,,,,,,,,,,0,44,44,44,,,,,,,,,1,1.22296606819,3,0.333835511173,2018_jun._15_1149,60.0132297095,Experimento Piloto1,001,136,
2.5,Stim\\05_028.jpg,En28_27,Enojo,27,Claudia informa los avances en el reporte.,Afirmación,En28,28,,,,,,,,,,,,,0,45,45,45,,,,,,,,,1,1.22358412178,2,1.88318073137,2018_jun._15_1149,60.0132297095,Experimento Piloto1,001,136,
0.25,Stim\\02_019.jpg,Al19_23,Alegría,23,Óscar consigue un nuevo departamento.,Afirmación,Al19,19,,,,,,,,,,,,,0,46,46,46,,,,,,,,,1,6.44658678231,3,0.483606630532,2018_jun._15_1149,60.0132297095,Experimento Piloto1,001,136,
0.25,Stim\\03_075.jpg,Tr75_21,Tristeza,21,Mauro anuncia la actividad.,Afirmación,Tr75,75,,,,,,,,,,,,,0,47,47,47,,,,,,,,,1,1.58792024297,4,1.3168285506,2018_jun._15_1149,60.0132297095,Experimento Piloto1,001,136,
0.25,Stim\\02_078.jpg,Al78_28,Alegría,28,Antonio responde la pregunta.,Afirmación,Al78,78,,,,,,,,,,,,,0,48,48,48,,,,,,,,,1,5.01909317035,3,0.550304653564,2018_jun._15_1149,60.0132297095,Experimento Piloto1,001,136,
2.5,Stim\\03_075.jpg,Tr75_23,Tristeza,23,Óscar consigue un nuevo departamento.,Afirmación,Tr75,75,,,,,,,,,,,,,0,49,49,49,,,,,,,,,1,1.31494939993,4,0.550256012524,2018_jun._15_1149,60.0132297095,Experimento Piloto1,001,136,
0.25,Stim\\02_078.jpg,Al78_22,Alegría,22,Enrique corre todas las mañanas.,Afirmación,Al78,78,,,,,,,,,,,,,0,50,50,50,,,,,,,,,1,1.21890521066,3,0.299799723862,2018_jun._15_1149,60.0132297095,Experimento Piloto1,001,136,
2.5,Stim\\03_028.jpg,Tr28_23,Tristeza,23,Óscar consigue un nuevo departamento.,Afirmación,Tr28,28,,,,,,,,,,,,,0,51,51,51,,,,,,,,,1,1.4317847335,4,1.46675317929,2018_jun._15_1149,60.0132297095,Experimento Piloto1,001,136,
0.25,Stim\\02_028.jpg,Al28_19,Alegría,19,Armando acompaña a Rodrígo a la tienda.,Afirmación,Al28,28,,,,,,,,,,,,,0,52,52,52,,,,,,,,,1,1.3127141433,3,0.400242134208,2018_jun._15_1149,60.0132297095,Experimento Piloto1,001,136,
0.25,Stim\\03_028.jpg,Tr28_28,Tristeza,28,Antonio responde la pregunta.,Afirmación,Tr28,28,,,,,,,,,,,,,0,53,53,53,,,,,,,,,1,0.749479897862,4,1.48346695488,2018_jun._15_1149,60.0132297095,Experimento Piloto1,001,136,
2.5,Stim\\05_075.jpg,En75_16,Enojo,16,Valeria modifica algunas imágenes.,Afirmación,En75,75,,,,,,,,,,,,,0,54,54,54,,,,,,,,,1,1.06633745458,2,0.333676200607,2018_jun._15_1149,60.0132297095,Experimento Piloto1,001,136,
0.25,Stim\\03_019.jpg,Tr19_28,Tristeza,28,Antonio responde la pregunta.,Afirmación,Tr19,19,,,,,,,,,,,,,0,55,55,55,,,,,,,,,1,1.6364564154,2,0.400260876628,2018_jun._15_1149,60.0132297095,Experimento Piloto1,001,136,
2.5,Stim\\03_019.jpg,Tr19_24,Tristeza,24,Guadalupe comenta los resultados con los compañeros.,Afirmación,Tr19,19,,,,,,,,,,,,,0,56,56,56,,,,,,,,,1,0.805336770039,3,0.334089872578,2018_jun._15_1149,60.0132297095,Experimento Piloto1,001,136,
0.25,Stim\\03_019.jpg,Tr19_30,Tristeza,30,Marisol toma 2 litros de agua cada día.,Afirmación,Tr19,19,,,,,,,,,,,,,0,57,57,57,,,,,,,,,1,2.14711505079,3,0.900294791481,2018_jun._15_1149,60.0132297095,Experimento Piloto1,001,136,
0.25,Stim\\02_075.jpg,Al75_23,Alegría,23,Óscar consigue un nuevo departamento.,Afirmación,Al75,75,,,,,,,,,,,,,0,58,58,58,,,,,,,,,1,1.83121201871,3,0.250347850378,2018_jun._15_1149,60.0132297095,Experimento Piloto1,001,136,
2.5,Stim\\02_078.jpg,Al78_22,Alegría,22,Enrique corre todas las mañanas.,Afirmación,Al78,78,,,,,,,,,,,,,0,59,59,59,,,,,,,,,1,0.917574855885,3,0.283888748569,2018_jun._15_1149,60.0132297095,Experimento Piloto1,001,136,
2.5,Stim\\05_075.jpg,En75_20,Enojo,20,Karen analiza la idea.,Afirmación,En75,75,,,,,,,,,,,,,0,60,60,60,,,,,,,,,1,1.1918076885,3,0.033895219166,2018_jun._15_1149,60.0132297095,Experimento Piloto1,001,136,
2.5,Stim\\03_028.jpg,Tr28_18,Tristeza,18,Sofía escucha la música.,Afirmación,Tr28,28,,,,,,,,,,,,,0,61,61,61,,,,,,,,,1,1.88999315455,4,0.700360032951,2018_jun._15_1149,60.0132297095,Experimento Piloto1,001,136,
0.25,Stim\\02_028.jpg,Al28_22,Alegría,22,Enrique corre todas las mañanas.,Afirmación,Al28,28,,,,,,,,,,,,,0,62,62,62,,,,,,,,,1,2.71627770196,3,0.384212903175,2018_jun._15_1149,60.0132297095,Experimento Piloto1,001,136,
2.5,Stim\\03_075.jpg,Tr75_29,Tristeza,29,Miriam mira la película.,Afirmación,Tr75,75,,,,,,,,,,,,,0,63,63,63,,,,,,,,,1,0.912435862994,4,0.866441965883,2018_jun._15_1149,60.0132297095,Experimento Piloto1,001,136,
2.5,Stim\\05_075.jpg,En75_19,Enojo,19,Armando acompaña a Rodrígo a la tienda.,Afirmación,En75,75,,,,,,,,,,,,,0,64,64,64,,,,,,,,,1,2.44120413797,2,0.600419205446,2018_jun._15_1149,60.0132297095,Experimento Piloto1,001,136,
0.25,Stim\\05_078.jpg,En78_27,Enojo,27,Claudia informa los avances en el reporte.,Afirmación,En78,78,,,,,,,,,,,,,0,65,65,65,,,,,,,,,1,1.51812525827,2,0.482972512011,2018_jun._15_1149,60.0132297095,Experimento Piloto1,001,136,
0.25,Stim\\02_075.jpg,Al75_29,Alegría,29,Miriam mira la película.,Afirmación,Al75,75,,,,,,,,,,,,,0,66,66,66,,,,,,,,,1,0.917404835366,3,0.350359631328,2018_jun._15_1149,60.0132297095,Experimento Piloto1,001,136,
2.5,Stim\\03_075.jpg,Tr75_19,Tristeza,19,Armando acompaña a Rodrígo a la tienda.,Afirmación,Tr75,75,,,,,,,,,,,,,0,67,67,67,,,,,,,,,1,0.863106707733,3,0.800205363366,2018_jun._15_1149,60.0132297095,Experimento Piloto1,001,136,
2.5,Stim\\03_028.jpg,Tr28_22,Tristeza,22,Enrique corre todas las mañanas.,Afirmación,Tr28,28,,,,,,,,,,,,,0,68,68,68,,,,,,,,,1,1.21872403394,4,0.700644739226,2018_jun._15_1149,60.0132297095,Experimento Piloto1,001,136,
0.25,Stim\\03_078.jpg,Tr78_25,Tristeza,25,Luis decide la comida siguiente.,Afirmación,Tr78,78,,,,,,,,,,,,,0,69,69,69,,,,,,,,,1,4.19894810403,4,1.51726489197,2018_jun._15_1149,60.0132297095,Experimento Piloto1,001,136,
2.5,Stim\\02_028.jpg,Al28_19,Alegría,19,Armando acompaña a Rodrígo a la tienda.,Afirmación,Al28,28,,,,,,,,,,,,,0,70,70,70,,,,,,,,,1,0.605518036008,3,3.06595501998,2018_jun._15_1149,60.0132297095,Experimento Piloto1,001,136,
0.25,Stim\\02_075.jpg,Al75_25,Alegría,25,Luis decide la comida siguiente.,Afirmación,Al75,75,,,,,,,,,,,,,0,71,71,71,,,,,,,,,1,6.79863189264,2,0.600364763181,2018_jun._15_1149,60.0132297095,Experimento Piloto1,001,136,
2.5,Stim\\02_019.jpg,Al19_24,Alegría,24,Guadalupe comenta los resultados con los compañeros.,Afirmación,Al19,19,,,,,,,,,,,,,0,72,72,72,,,,,,,,,1,0.748432999867,3,0.801198265345,2018_jun._15_1149,60.0132297095,Experimento Piloto1,001,136,
0.25,Stim\\03_028.jpg,Tr28_23,Tristeza,23,Óscar consigue un nuevo departamento.,Afirmación,Tr28,28,,,,,,,,,,,,,0,73,73,73,,,,,,,,,1,1.78120679761,3,0.601203263323,2018_jun._15_1149,60.0132297095,Experimento Piloto1,001,136,
0.25,Stim\\03_028.jpg,Tr28_25,Tristeza,25,Luis decide la comida siguiente.,Afirmación,Tr28,28,,,,,,,,,,,,,0,74,74,74,,,,,,,,,1,1.36758793095,4,0.550366235799,2018_jun._15_1149,60.0132297095,Experimento Piloto1,001,136,
0.25,Stim\\05_019.jpg,En19_23,Enojo,23,Óscar consigue un nuevo departamento.,Afirmación,En19,19,,,,,,,,,,,,,0,75,75,75,,,,,,,,,1,1.47813741406,2,0.55028234116,2018_jun._15_1149,60.0132297095,Experimento Piloto1,001,136,
2.5,Stim\\03_019.jpg,Tr19_26,Tristeza,26,Víctor trae el café a Marco.,Afirmación,Tr19,19,,,,,,,,,,,,,0,76,76,76,,,,,,,,,1,1.02021503802,3,0.384260205471,2018_jun._15_1149,60.0132297095,Experimento Piloto1,001,136,
0.25,Stim\\05_028.jpg,En28_30,Enojo,30,Marisol toma 2 litros de agua cada día.,Afirmación,En28,28,,,,,,,,,,,,,0,77,77,77,,,,,,,,,1,1.06229176949,2,0.600362978188,2018_jun._15_1149,60.0132297095,Experimento Piloto1,001,136,
2.5,Stim\\02_019.jpg,Al19_26,Alegría,26,Víctor trae el café a Marco.,Afirmación,Al19,19,,,,,,,,,,,,,0,78,78,78,,,,,,,,,1,0.770851610911,3,0.450337497423,2018_jun._15_1149,60.0132297095,Experimento Piloto1,001,136,
0.25,Stim\\03_075.jpg,Tr75_27,Tristeza,27,Claudia informa los avances en el reporte.,Afirmación,Tr75,75,,,,,,,,,,,,,0,79,79,79,,,,,,,,,1,1.36027347867,4,0.650374446764,2018_jun._15_1149,60.0132297095,Experimento Piloto1,001,136,
2.5,Stim\\02_078.jpg,Al78_27,Alegría,27,Claudia informa los avances en el reporte.,Afirmación,Al78,78,,,,,,,,,,,,,0,80,80,80,,,,,,,,,1,2.73303342487,3,0.600304073441,2018_jun._15_1149,60.0132297095,Experimento Piloto1,001,136,
0.25,Stim\\02_019.jpg,Al19_26,Alegría,26,Víctor trae el café a Marco.,Afirmación,Al19,19,,,,,,,,,,,,,0,81,81,81,,,,,,,,,1,2.75331138388,3,0.400388949827,2018_jun._15_1149,60.0132297095,Experimento Piloto1,001,136,
0.25,Stim\\03_019.jpg,Tr19_29,Tristeza,29,Miriam mira la película.,Afirmación,Tr19,19,,,,,,,,,,,,,0,82,82,82,,,,,,,,,1,5.17180417206,3,0.900563879074,2018_jun._15_1149,60.0132297095,Experimento Piloto1,001,136,
2.5,Stim\\05_075.jpg,En75_27,Enojo,27,Claudia informa los avances en el reporte.,Afirmación,En75,75,,,,,,,,,,,,,0,83,83,83,,,,,,,,,1,0.860564432422,2,0.650224061161,2018_jun._15_1149,60.0132297095,Experimento Piloto1,001,136,
0.25,Stim\\05_019.jpg,En19_25,Enojo,25,Luis decide la comida siguiente.,Afirmación,En19,19,,,,,,,,,,,,,0,84,84,84,,,,,,,,,1,2.29980909507,2,1.83373332036,2018_jun._15_1149,60.0132297095,Experimento Piloto1,001,136,
2.5,Stim\\03_028.jpg,Tr28_20,Tristeza,20,Karen analiza la idea.,Afirmación,Tr28,28,,,,,,,,,,,,,0,85,85,85,,,,,,,,,1,2.55848705836,4,0.349879022145,2018_jun._15_1149,60.0132297095,Experimento Piloto1,001,136,
2.5,Stim\\05_028.jpg,En28_26,Enojo,26,Víctor trae el café a Marco.,Afirmación,En28,28,,,,,,,,,,,,,0,86,86,86,,,,,,,,,1,2.39993466928,2,1.11695358931,2018_jun._15_1149,60.0132297095,Experimento Piloto1,001,136,
0.25,Stim\\05_028.jpg,En28_21,Enojo,21,Mauro anuncia la actividad.,Afirmación,En28,28,,,,,,,,,,,,,0,87,87,87,,,,,,,,,1,4.08713261511,2,0.650268239721,2018_jun._15_1149,60.0132297095,Experimento Piloto1,001,136,
0.25,Stim\\03_075.jpg,Tr75_22,Tristeza,22,Enrique corre todas las mañanas.,Afirmación,Tr75,75,,,,,,,,,,,,,0,88,88,88,,,,,,,,,1,1.95305380949,4,0.549802178226,2018_jun._15_1149,60.0132297095,Experimento Piloto1,001,136,
0.25,Stim\\05_028.jpg,En28_27,Enojo,27,Claudia informa los avances en el reporte.,Afirmación,En28,28,,,,,,,,,,,,,0,89,89,89,,,,,,,,,1,1.04310087081,2,0.550525992612,2018_jun._15_1149,60.0132297095,Experimento Piloto1,001,136,
2.5,Stim\\03_075.jpg,Tr75_22,Tristeza,22,Enrique corre todas las mañanas.,Afirmación,Tr75,75,,,,,,,,,,,,,0,90,90,90,,,,,,,,,1,0.968322633792,4,0.450261635249,2018_jun._15_1149,60.0132297095,Experimento Piloto1,001,136,
0.25,Stim\\05_019.jpg,En19_28,Enojo,28,Antonio responde la pregunta.,Afirmación,En19,19,,,,,,,,,,,,,0,91,91,91,,,,,,,,,1,1.0213592181,2,0.400328706336,2018_jun._15_1149,60.0132297095,Experimento Piloto1,001,136,
2.5,Stim\\03_019.jpg,Tr19_17,Tristeza,17,Brenda sube el autobús en las mañanas.,Afirmación,Tr19,19,,,,,,,,,,,,,0,92,92,92,,,,,,,,,1,0.860644310827,3,0.383428399049,2018_jun._15_1149,60.0132297095,Experimento Piloto1,001,136,
0.25,Stim\\05_028.jpg,En28_29,Enojo,29,Miriam mira la película.,Afirmación,En28,28,,,,,,,,,,,,,0,93,93,93,,,,,,,,,1,2.25524542306,2,1.41653822159,2018_jun._15_1149,60.0132297095,Experimento Piloto1,001,136,
0.25,Stim\\05_028.jpg,En28_18,Enojo,18,Sofía escucha la música.,Afirmación,En28,28,,,,,,,,,,,,,0,94,94,94,,,,,,,,,1,1.88598986303,2,0.750957425256,2018_jun._15_1149,60.0132297095,Experimento Piloto1,001,136,
0.25,Stim\\05_028.jpg,En28_25,Enojo,25,Luis decide la comida siguiente.,Afirmación,En28,28,,,,,,,,,,,,,0,95,95,95,,,,,,,,,1,2.00081931147,2,0.48360484554,2018_jun._15_1149,60.0132297095,Experimento Piloto1,001,136,
2.5,Stim\\03_075.jpg,Tr75_16,Tristeza,16,Valeria modifica algunas imágenes.,Afirmación,Tr75,75,,,,,,,,,,,,,0,96,96,96,,,,,,,,,1,1.12841368625,4,0.600331740823,2018_jun._15_1149,60.0132297095,Experimento Piloto1,001,136,
2.5,Stim\\05_019.jpg,En19_18,Enojo,18,Sofía escucha la música.,Afirmación,En19,19,,,,,,,,,,,,,0,97,97,97,,,,,,,,,1,1.88979145042,2,0.500519879013,2018_jun._15_1149,60.0132297095,Experimento Piloto1,001,136,
0.25,Stim\\05_075.jpg,En75_28,Enojo,28,Antonio responde la pregunta.,Afirmación,En75,75,,,,,,,,,,,,,0,98,98,98,,,,,,,,,1,1.06795019514,2,0.450001472618,2018_jun._15_1149,60.0132297095,Experimento Piloto1,001,136,
0.25,Stim\\03_019.jpg,Tr19_24,Tristeza,24,Guadalupe comenta los resultados con los compañeros.,Afirmación,Tr19,19,,,,,,,,,,,,,0,99,99,99,,,,,,,,,1,1.76665554021,3,2.33305859327,2018_jun._15_1149,60.0132297095,Experimento Piloto1,001,136,
0.25,Stim\\02_075.jpg,Al75_21,Alegría,21,Mauro anuncia la actividad.,Afirmación,Al75,75,,,,,,,,,,,,,0,100,100,100,,,,,,,,,1,1.43788583725,3,0.333782853899,2018_jun._15_1149,60.0132297095,Experimento Piloto1,001,136,
0.25,Stim\\03_019.jpg,Tr19_23,Tristeza,23,Óscar consigue un nuevo departamento.,Afirmación,Tr19,19,,,,,,,,,,,,,0,101,101,101,,,,,,,,,1,1.47939761864,3,0.650523047375,2018_jun._15_1149,60.0132297095,Experimento Piloto1,001,136,
2.5,Stim\\05_028.jpg,En28_30,Enojo,30,Marisol toma 2 litros de agua cada día.,Afirmación,En28,28,,,,,,,,,,,,,0,102,102,102,,,,,,,,,1,1.87028728559,2,1.11738154122,2018_jun._15_1149,60.0132297095,Experimento Piloto1,001,136,
0.25,Stim\\02_078.jpg,Al78_19,Alegría,19,Armando acompaña a Rodrígo a la tienda.,Afirmación,Al78,78,,,,,,,,,,,,,0,103,103,103,,,,,,,,,1,1.00721092272,3,0.333521798772,2018_jun._15_1149,60.0132297095,Experimento Piloto1,001,136,
2.5,Stim\\03_075.jpg,Tr75_25,Tristeza,25,Luis decide la comida siguiente.,Afirmación,Tr75,75,,,,,,,,,,,,,0,104,104,104,,,,,,,,,1,0.866663751179,4,0.400090856108,2018_jun._15_1149,60.0132297095,Experimento Piloto1,001,136,
2.5,Stim\\03_028.jpg,Tr28_29,Tristeza,29,Miriam mira la película.,Afirmación,Tr28,28,,,,,,,,,,,,,0,105,105,105,,,,,,,,,1,2.0499931724,4,0.549764247139,2018_jun._15_1149,60.0132297095,Experimento Piloto1,001,136,
0.25,Stim\\03_028.jpg,Tr28_24,Tristeza,24,Guadalupe comenta los resultados con los compañeros.,Afirmación,Tr28,28,,,,,,,,,,,,,0,106,106,106,,,,,,,,,1,2.01667852199,4,0.65020085626,2018_jun._15_1149,60.0132297095,Experimento Piloto1,001,136,
0.25,Stim\\02_075.jpg,Al75_30,Alegría,30,Marisol toma 2 litros de agua cada día.,Afirmación,Al75,75,,,,,,,,,,,,,0,107,107,107,,,,,,,,,1,0.963311267853,3,0.900215805572,2018_jun._15_1149,60.0132297095,Experimento Piloto1,001,136,
2.5,Stim\\05_019.jpg,En19_27,Enojo,27,Claudia informa los avances en el reporte.,Afirmación,En19,19,,,,,,,,,,,,,0,108,108,108,,,,,,,,,1,1.1077037591,2,1.53326511688,2018_jun._15_1149,60.0132297095,Experimento Piloto1,001,136,
2.5,Stim\\05_075.jpg,En75_18,Enojo,18,Sofía escucha la música.,Afirmación,En75,75,,,,,,,,,,,,,0,109,109,109,,,,,,,,,1,0.8236606087,2,1.0003266536,2018_jun._15_1149,60.0132297095,Experimento Piloto1,001,136,
2.5,Stim\\02_028.jpg,Al28_23,Alegría,23,Óscar consigue un nuevo departamento.,Afirmación,Al28,28,,,,,,,,,,,,,0,110,110,110,,,,,,,,,1,1.33099737338,3,1.11654214858,2018_jun._15_1149,60.0132297095,Experimento Piloto1,001,136,
2.5,Stim\\05_078.jpg,En78_29,Enojo,29,Miriam mira la película.,Afirmación,En78,78,,,,,,,,,,,,,0,111,111,111,,,,,,,,,1,1.21880569734,4,2.23453326467,2018_jun._15_1149,60.0132297095,Experimento Piloto1,001,136,
0.25,Stim\\03_078.jpg,Tr78_20,Tristeza,20,Karen analiza la idea.,Afirmación,Tr78,78,,,,,,,,,,,,,0,112,112,112,,,,,,,,,1,3.12437960361,3,0.816930295157,2018_jun._15_1149,60.0132297095,Experimento Piloto1,001,136,
0.25,Stim\\02_019.jpg,Al19_25,Alegría,25,Luis decide la comida siguiente.,Afirmación,Al19,19,,,,,,,,,,,,,0,113,113,113,,,,,,,,,1,1.56675380404,3,0.3497616589,2018_jun._15_1149,60.0132297095,Experimento Piloto1,001,136,
2.5,Stim\\03_078.jpg,Tr78_16,Tristeza,16,Valeria modifica algunas imágenes.,Afirmación,Tr78,78,,,,,,,,,,,,,0,114,114,114,,,,,,,,,1,1.06701709041,4,3.21618845235,2018_jun._15_1149,60.0132297095,Experimento Piloto1,001,136,
0.25,Stim\\02_028.jpg,Al28_21,Alegría,21,Mauro anuncia la actividad.,Afirmación,Al28,28,,,,,,,,,,,,,0,115,115,115,,,,,,,,,1,5.63669024939,4,4.38234937119,2018_jun._15_1149,60.0132297095,Experimento Piloto1,001,136,
2.5,Stim\\05_019.jpg,En19_30,Enojo,30,Marisol toma 2 litros de agua cada día.,Afirmación,En19,19,,,,,,,,,,,,,0,116,116,116,,,,,,,,,1,4.71273538471,2,2.8501347223,2018_jun._15_1149,60.0132297095,Experimento Piloto1,001,136,
0.25,Stim\\05_078.jpg,En78_26,Enojo,26,Víctor trae el café a Marco.,Afirmación,En78,78,,,,,,,,,,,,,0,117,117,117,,,,,,,,,1,5.11366340221,3,0.599613727662,2018_jun._15_1149,60.0132297095,Experimento Piloto1,001,136,
0.25,Stim\\02_078.jpg,Al78_21,Alegría,21,Mauro anuncia la actividad.,Afirmación,Al78,78,,,,,,,,,,,,,0,118,118,118,,,,,,,,,1,1.07150634609,3,0.54969686368,2018_jun._15_1149,60.0132297095,Experimento Piloto1,001,136,
0.25,Stim\\03_075.jpg,Tr75_30,Tristeza,30,Marisol toma 2 litros de agua cada día.,Afirmación,Tr75,75,,,,,,,,,,,,,0,119,119,119,,,,,,,,,1,1.62985863753,4,1.36672845715,2018_jun._15_1149,60.0132297095,Experimento Piloto1,001,136,
