Tiempo,ImagenesE,ClaveEn,Emocion,NumEn,Enunciado,ActoHabla,Clave,Cara,trials.thisRepN,trials.thisTrialN,trials.thisN,trials.thisIndex,Bloque2.thisRepN,Bloque2.thisTrialN,Bloque2.thisN,Bloque2.thisIndex,Bloque1.thisRepN,Bloque1.thisTrialN,Bloque1.thisN,Bloque1.thisIndex,Bloque3.thisRepN,Bloque3.thisTrialN,Bloque3.thisN,Bloque3.thisIndex,Sig_B2.keys,Sig_B2.rt,Resp_Bloque2.keys,Resp_Bloque2.rt,Sig_B1.keys,Sig_B1.rt,Resp_Bloque1.keys,Resp_Bloque1.rt,Sig_B3.keys,Sig_B3.rt,Resp_Bloque3.keys,Resp_Bloque3.rt,date,frameRate,expName,session,participant,
2.5,Stim\\02_078.jpg,Al78_17,Alegría,17,Brenda sube el autobús en las mañanas.,Afirmación,Al78,78,,,,,0,0,0,0,,,,,,,,,1,6.52618092861,3,1.36669766603,,,,,,,,,2018_jun._15_1500,60.0777477804,Experimento Piloto1,001,137,
2.5,Stim\\05_019.jpg,En19_23,Enojo,23,Óscar consigue un nuevo departamento.,Afirmación,En19,19,,,,,0,1,1,1,,,,,,,,,1,4.04080670943,4,2.19978035669,,,,,,,,,2018_jun._15_1500,60.0777477804,Experimento Piloto1,001,137,
0.25,Stim\\02_075.jpg,Al75_17,Alegría,17,Brenda sube el autobús en las mañanas.,Afirmación,Al75,75,,,,,0,2,2,2,,,,,,,,,1,6.16916372217,3,0.450636037389,,,,,,,,,2018_jun._15_1500,60.0777477804,Experimento Piloto1,001,137,
2.5,Stim\\02_075.jpg,Al75_24,Alegría,24,Guadalupe comenta los resultados con los compañeros.,Afirmación,Al75,75,,,,,0,3,3,3,,,,,,,,,1,4.08435427457,3,1.0502140652,,,,,,,,,2018_jun._15_1500,60.0777477804,Experimento Piloto1,001,137,
0.25,Stim\\05_075.jpg,En75_19,Enojo,19,Armando acompaña a Rodrígo a la tienda.,Afirmación,En75,75,,,,,0,4,4,4,,,,,,,,,1,4.19640315123,2,1.98330630558,,,,,,,,,2018_jun._15_1500,60.0777477804,Experimento Piloto1,001,137,
2.5,Stim\\02_019.jpg,Al19_29,Alegría,29,Miriam mira la película.,Afirmación,Al19,19,,,,,0,5,5,5,,,,,,,,,1,3.02346774028,3,0.600396000546,,,,,,,,,2018_jun._15_1500,60.0777477804,Experimento Piloto1,001,137,
2.5,Stim\\02_078.jpg,Al78_24,Alegría,24,Guadalupe comenta los resultados con los compañeros.,Afirmación,Al78,78,,,,,0,6,6,6,,,,,,,,,1,4.08366705252,3,1.31662550772,,,,,,,,,2018_jun._15_1500,60.0777477804,Experimento Piloto1,001,137,
0.25,Stim\\05_028.jpg,En28_20,Enojo,20,Karen analiza la idea.,Afirmación,En28,28,,,,,0,7,7,7,,,,,,,,,1,3.1687277378,4,1.41717814134,,,,,,,,,2018_jun._15_1500,60.0777477804,Experimento Piloto1,001,137,
0.25,Stim\\03_078.jpg,Tr78_27,Tristeza,27,Claudia informa los avances en el reporte.,Afirmación,Tr78,78,,,,,0,8,8,8,,,,,,,,,1,3.5652062157,2,2.59961238892,,,,,,,,,2018_jun._15_1500,60.0777477804,Experimento Piloto1,001,137,
0.25,Stim\\02_019.jpg,Al19_30,Alegría,30,Marisol toma 2 litros de agua cada día.,Afirmación,Al19,19,,,,,0,9,9,9,,,,,,,,,1,3.21433339908,3,0.550260475004,,,,,,,,,2018_jun._15_1500,60.0777477804,Experimento Piloto1,001,137,
2.5,Stim\\02_019.jpg,Al19_19,Alegría,19,Armando acompaña a Rodrígo a la tienda.,Afirmación,Al19,19,,,,,0,10,10,10,,,,,,,,,1,2.96202875087,3,0.43366656165,,,,,,,,,2018_jun._15_1500,60.0777477804,Experimento Piloto1,001,137,
0.25,Stim\\02_028.jpg,Al28_30,Alegría,30,Marisol toma 2 litros de agua cada día.,Afirmación,Al28,28,,,,,0,11,11,11,,,,,,,,,1,1.99796912499,3,1.21670431513,,,,,,,,,2018_jun._15_1500,60.0777477804,Experimento Piloto1,001,137,
2.5,Stim\\02_019.jpg,Al19_16,Alegría,16,Valeria modifica algunas imágenes.,Afirmación,Al19,19,,,,,0,12,12,12,,,,,,,,,1,2.74824245194,4,2.14975683942,,,,,,,,,2018_jun._15_1500,60.0777477804,Experimento Piloto1,001,137,
2.5,Stim\\03_075.jpg,Tr75_30,Tristeza,30,Marisol toma 2 litros de agua cada día.,Afirmación,Tr75,75,,,,,0,13,13,13,,,,,,,,,1,3.830448042,3,0.700440357607,,,,,,,,,2018_jun._15_1500,60.0777477804,Experimento Piloto1,001,137,
2.5,Stim\\02_078.jpg,Al78_19,Alegría,19,Armando acompaña a Rodrígo a la tienda.,Afirmación,Al78,78,,,,,0,14,14,14,,,,,,,,,1,2.29413460448,3,0.966752733046,,,,,,,,,2018_jun._15_1500,60.0777477804,Experimento Piloto1,001,137,
2.5,Stim\\05_075.jpg,En75_25,Enojo,25,Luis decide la comida siguiente.,Afirmación,En75,75,,,,,0,15,15,15,,,,,,,,,1,2.19896327646,3,0.949789058533,,,,,,,,,2018_jun._15_1500,60.0777477804,Experimento Piloto1,001,137,
0.25,Stim\\03_075.jpg,Tr75_24,Tristeza,24,Guadalupe comenta los resultados con los compañeros.,Afirmación,Tr75,75,,,,,0,16,16,16,,,,,,,,,1,3.47346564291,3,0.850009772832,,,,,,,,,2018_jun._15_1500,60.0777477804,Experimento Piloto1,001,137,
2.5,Stim\\05_078.jpg,En78_25,Enojo,25,Luis decide la comida siguiente.,Afirmación,En78,78,,,,,0,17,17,17,,,,,,,,,1,2.66182249501,2,1.56757980924,,,,,,,,,2018_jun._15_1500,60.0777477804,Experimento Piloto1,001,137,
2.5,Stim\\05_028.jpg,En28_17,Enojo,17,Brenda sube el autobús en las mañanas.,Afirmación,En28,28,,,,,0,18,18,18,,,,,,,,,1,2.28780725296,3,1.16662858683,,,,,,,,,2018_jun._15_1500,60.0777477804,Experimento Piloto1,001,137,
0.25,Stim\\02_078.jpg,Al78_26,Alegría,26,Víctor trae el café a Marco.,Afirmación,Al78,78,,,,,0,19,19,19,,,,,,,,,1,2.4971636472,2,2.08289147336,,,,,,,,,2018_jun._15_1500,60.0777477804,Experimento Piloto1,001,137,
2.5,Stim\\03_075.jpg,Tr75_20,Tristeza,20,Karen analiza la idea.,Afirmación,Tr75,75,,,,,0,20,20,20,,,,,,,,,1,3.23913854486,4,0.600554864863,,,,,,,,,2018_jun._15_1500,60.0777477804,Experimento Piloto1,001,137,
2.5,Stim\\05_028.jpg,En28_21,Enojo,21,Mauro anuncia la actividad.,Afirmación,En28,28,,,,,0,21,21,21,,,,,,,,,1,2.65511137013,3,0.600252754912,,,,,,,,,2018_jun._15_1500,60.0777477804,Experimento Piloto1,001,137,
0.25,Stim\\05_019.jpg,En19_21,Enojo,21,Mauro anuncia la actividad.,Afirmación,En19,19,,,,,0,22,22,22,,,,,,,,,1,1.49945914733,3,1.88351140119,,,,,,,,,2018_jun._15_1500,60.0777477804,Experimento Piloto1,001,137,
0.25,Stim\\03_028.jpg,Tr28_16,Tristeza,16,Valeria modifica algunas imágenes.,Afirmación,Tr28,28,,,,,0,23,23,23,,,,,,,,,1,2.89535125525,2,1.78293779391,,,,,,,,,2018_jun._15_1500,60.0777477804,Experimento Piloto1,001,137,
0.25,Stim\\05_075.jpg,En75_27,Enojo,27,Claudia informa los avances en el reporte.,Afirmación,En75,75,,,,,0,24,24,24,,,,,,,,,1,3.82879290787,3,0.350251193046,,,,,,,,,2018_jun._15_1500,60.0777477804,Experimento Piloto1,001,137,
2.5,Stim\\02_078.jpg,Al78_18,Alegría,18,Sofía escucha la música.,Afirmación,Al78,78,,,,,0,25,25,25,,,,,,,,,1,1.69045644931,3,0.550476905322,,,,,,,,,2018_jun._15_1500,60.0777477804,Experimento Piloto1,001,137,
2.5,Stim\\03_028.jpg,Tr28_25,Tristeza,25,Luis decide la comida siguiente.,Afirmación,Tr28,28,,,,,0,26,26,26,,,,,,,,,1,2.15008393926,3,1.04961832402,,,,,,,,,2018_jun._15_1500,60.0777477804,Experimento Piloto1,001,137,
0.25,Stim\\03_075.jpg,Tr75_18,Tristeza,18,Sofía escucha la música.,Afirmación,Tr75,75,,,,,0,27,27,27,,,,,,,,,1,2.86515543267,3,0.850206568235,,,,,,,,,2018_jun._15_1500,60.0777477804,Experimento Piloto1,001,137,
2.5,Stim\\02_028.jpg,Al28_27,Alegría,27,Claudia informa los avances en el reporte.,Afirmación,Al28,28,,,,,0,28,28,28,,,,,,,,,1,1.94169367211,4,1.36633977507,,,,,,,,,2018_jun._15_1500,60.0777477804,Experimento Piloto1,001,137,
2.5,Stim\\02_028.jpg,Al28_20,Alegría,20,Karen analiza la idea.,Afirmación,Al28,28,,,,,0,29,29,29,,,,,,,,,1,1.48728326846,3,1.26652032705,,,,,,,,,2018_jun._15_1500,60.0777477804,Experimento Piloto1,001,137,
0.25,Stim\\05_078.jpg,En78_29,Enojo,29,Miriam mira la película.,Afirmación,En78,78,,,,,0,30,30,30,,,,,,,,,1,1.36953446508,3,1.11622441995,,,,,,,,,2018_jun._15_1500,60.0777477804,Experimento Piloto1,001,137,
0.25,Stim\\05_019.jpg,En19_22,Enojo,22,Enrique corre todas las mañanas.,Afirmación,En19,19,,,,,0,31,31,31,,,,,,,,,1,2.29752251991,3,1.05025199629,,,,,,,,,2018_jun._15_1500,60.0777477804,Experimento Piloto1,001,137,
2.5,Stim\\03_019.jpg,Tr19_20,Tristeza,20,Karen analiza la idea.,Afirmación,Tr19,19,,,,,0,32,32,32,,,,,,,,,1,1.28319037032,3,0.600293363486,,,,,,,,,2018_jun._15_1500,60.0777477804,Experimento Piloto1,001,137,
2.5,Stim\\05_078.jpg,En78_22,Enojo,22,Enrique corre todas las mañanas.,Afirmación,En78,78,,,,,0,33,33,33,,,,,,,,,1,1.82143606202,3,0.916715828331,,,,,,,,,2018_jun._15_1500,60.0777477804,Experimento Piloto1,001,137,
2.5,Stim\\02_078.jpg,Al78_16,Alegría,16,Valeria modifica algunas imágenes.,Afirmación,Al78,78,,,,,0,34,34,34,,,,,,,,,1,1.57450736443,3,0.700588511969,,,,,,,,,2018_jun._15_1500,60.0777477804,Experimento Piloto1,001,137,
2.5,Stim\\05_028.jpg,En28_24,Enojo,24,Guadalupe comenta los resultados con los compañeros.,Afirmación,En28,28,,,,,0,35,35,35,,,,,,,,,1,4.42974582602,3,0.45067530722,,,,,,,,,2018_jun._15_1500,60.0777477804,Experimento Piloto1,001,137,
2.5,Stim\\02_075.jpg,Al75_16,Alegría,16,Valeria modifica algunas imágenes.,Afirmación,Al75,75,,,,,0,36,36,36,,,,,,,,,1,1.73008506381,3,1.5168280151,,,,,,,,,2018_jun._15_1500,60.0777477804,Experimento Piloto1,001,137,
0.25,Stim\\02_019.jpg,Al19_18,Alegría,18,Sofía escucha la música.,Afirmación,Al19,19,,,,,0,37,37,37,,,,,,,,,1,2.25320071435,3,1.8335155513,,,,,,,,,2018_jun._15_1500,60.0777477804,Experimento Piloto1,001,137,
2.5,Stim\\02_028.jpg,Al28_26,Alegría,26,Víctor trae el café a Marco.,Afirmación,Al28,28,,,,,0,38,38,38,,,,,,,,,1,1.47963368388,2,0.50038154211,,,,,,,,,2018_jun._15_1500,60.0777477804,Experimento Piloto1,001,137,
2.5,Stim\\02_078.jpg,Al78_29,Alegría,29,Miriam mira la película.,Afirmación,Al78,78,,,,,0,39,39,39,,,,,,,,,1,3.73188522856,3,0.283419741838,,,,,,,,,2018_jun._15_1500,60.0777477804,Experimento Piloto1,001,137,
0.25,Stim\\05_078.jpg,En78_24,Enojo,24,Guadalupe comenta los resultados con los compañeros.,Afirmación,En78,78,,,,,0,40,40,40,,,,,,,,,1,2.17685659282,3,0.54986866919,,,,,,,,,2018_jun._15_1500,60.0777477804,Experimento Piloto1,001,137,
0.25,Stim\\03_075.jpg,Tr75_19,Tristeza,19,Armando acompaña a Rodrígo a la tienda.,Afirmación,Tr75,75,,,,,0,41,41,41,,,,,,,,,1,1.97626094089,2,1.63297434163,,,,,,,,,2018_jun._15_1500,60.0777477804,Experimento Piloto1,001,137,
0.25,Stim\\02_028.jpg,Al28_17,Alegría,17,Brenda sube el autobús en las mañanas.,Afirmación,Al28,28,,,,,0,42,42,42,,,,,,,,,1,3.50426122292,3,0.550563923698,,,,,,,,,2018_jun._15_1500,60.0777477804,Experimento Piloto1,001,137,
2.5,Stim\\05_075.jpg,En75_21,Enojo,21,Mauro anuncia la actividad.,Afirmación,En75,75,,,,,0,43,43,43,,,,,,,,,1,1.58160895638,2,0.700436341373,,,,,,,,,2018_jun._15_1500,60.0777477804,Experimento Piloto1,001,137,
0.25,Stim\\03_019.jpg,Tr19_27,Tristeza,27,Claudia informa los avances en el reporte.,Afirmación,Tr19,19,,,,,0,44,44,44,,,,,,,,,1,3.20710016395,2,0.30107376213,,,,,,,,,2018_jun._15_1500,60.0777477804,Experimento Piloto1,001,137,
2.5,Stim\\02_075.jpg,Al75_19,Alegría,19,Armando acompaña a Rodrígo a la tienda.,Afirmación,Al75,75,,,,,0,45,45,45,,,,,,,,,1,3.00943323817,3,0.283792358983,,,,,,,,,2018_jun._15_1500,60.0777477804,Experimento Piloto1,001,137,
2.5,Stim\\03_019.jpg,Tr19_22,Tristeza,22,Enrique corre todas las mañanas.,Afirmación,Tr19,19,,,,,0,46,46,46,,,,,,,,,1,1.68977368975,3,0.383395376692,,,,,,,,,2018_jun._15_1500,60.0777477804,Experimento Piloto1,001,137,
2.5,Stim\\02_075.jpg,Al75_23,Alegría,23,Óscar consigue un nuevo departamento.,Afirmación,Al75,75,,,,,0,47,47,47,,,,,,,,,1,2.13832619485,3,0.96690981237,,,,,,,,,2018_jun._15_1500,60.0777477804,Experimento Piloto1,001,137,
2.5,Stim\\02_019.jpg,Al19_27,Alegría,27,Claudia informa los avances en el reporte.,Afirmación,Al19,19,,,,,0,48,48,48,,,,,,,,,1,2.79618154443,2,0.750646836592,,,,,,,,,2018_jun._15_1500,60.0777477804,Experimento Piloto1,001,137,
2.5,Stim\\03_028.jpg,Tr28_16,Tristeza,16,Valeria modifica algunas imágenes.,Afirmación,Tr28,28,,,,,0,49,49,49,,,,,,,,,1,2.24671226727,4,1.06600321477,,,,,,,,,2018_jun._15_1500,60.0777477804,Experimento Piloto1,001,137,
2.5,Stim\\02_078.jpg,Al78_20,Alegría,20,Karen analiza la idea.,Afirmación,Al78,78,,,,,0,50,50,50,,,,,,,,,1,0.872063352948,3,0.533960817635,,,,,,,,,2018_jun._15_1500,60.0777477804,Experimento Piloto1,001,137,
2.5,Stim\\05_075.jpg,En75_24,Enojo,24,Guadalupe comenta los resultados con los compañeros.,Afirmación,En75,75,,,,,0,51,51,51,,,,,,,,,1,2.17825067183,3,1.11697367047,,,,,,,,,2018_jun._15_1500,60.0777477804,Experimento Piloto1,001,137,
0.25,Stim\\03_028.jpg,Tr28_26,Tristeza,26,Víctor trae el café a Marco.,Afirmación,Tr28,28,,,,,0,52,52,52,,,,,,,,,1,1.63093721914,2,0.950244231573,,,,,,,,,2018_jun._15_1500,60.0777477804,Experimento Piloto1,001,137,
2.5,Stim\\03_028.jpg,Tr28_21,Tristeza,21,Mauro anuncia la actividad.,Afirmación,Tr28,28,,,,,0,53,53,53,,,,,,,,,1,1.23374028183,4,1.10072533163,,,,,,,,,2018_jun._15_1500,60.0777477804,Experimento Piloto1,001,137,
2.5,Stim\\02_075.jpg,Al75_29,Alegría,29,Miriam mira la película.,Afirmación,Al75,75,,,,,0,54,54,54,,,,,,,,,1,1.28669654149,2,1.51721535843,,,,,,,,,2018_jun._15_1500,60.0777477804,Experimento Piloto1,001,137,
0.25,Stim\\03_078.jpg,Tr78_26,Tristeza,26,Víctor trae el café a Marco.,Afirmación,Tr78,78,,,,,0,55,55,55,,,,,,,,,1,2.34835597745,2,0.350566244189,,,,,,,,,2018_jun._15_1500,60.0777477804,Experimento Piloto1,001,137,
0.25,Stim\\05_019.jpg,En19_19,Enojo,19,Armando acompaña a Rodrígo a la tienda.,Afirmación,En19,19,,,,,0,56,56,56,,,,,,,,,1,1.62607266882,2,0.233997320727,,,,,,,,,2018_jun._15_1500,60.0777477804,Experimento Piloto1,001,137,
0.25,Stim\\03_078.jpg,Tr78_19,Tristeza,19,Armando acompaña a Rodrígo a la tienda.,Afirmación,Tr78,78,,,,,0,57,57,57,,,,,,,,,1,1.65012276285,3,0.900585298983,,,,,,,,,2018_jun._15_1500,60.0777477804,Experimento Piloto1,001,137,
2.5,Stim\\03_078.jpg,Tr78_18,Tristeza,18,Sofía escucha la música.,Afirmación,Tr78,78,,,,,0,58,58,58,,,,,,,,,1,2.04860935711,3,0.28389321105,,,,,,,,,2018_jun._15_1500,60.0777477804,Experimento Piloto1,001,137,
2.5,Stim\\05_075.jpg,En75_26,Enojo,26,Víctor trae el café a Marco.,Afirmación,En75,75,,,,,0,59,59,59,,,,,,,,,1,0.815838326105,2,0.400394304805,,,,,,,,,2018_jun._15_1500,60.0777477804,Experimento Piloto1,001,137,
2.5,Stim\\02_075.jpg,Al75_30,Alegría,30,Marisol toma 2 litros de agua cada día.,Afirmación,Al75,75,,,,,0,60,60,60,,,,,,,,,1,1.15819851435,3,0.348891028896,,,,,,,,,2018_jun._15_1500,60.0777477804,Experimento Piloto1,001,137,
2.5,Stim\\03_019.jpg,Tr19_18,Tristeza,18,Sofía escucha la música.,Afirmación,Tr19,19,,,,,0,61,61,61,,,,,,,,,1,0.816772323338,2,1.61732486771,,,,,,,,,2018_jun._15_1500,60.0777477804,Experimento Piloto1,001,137,
0.25,Stim\\03_078.jpg,Tr78_23,Tristeza,23,Óscar consigue un nuevo departamento.,Afirmación,Tr78,78,,,,,0,62,62,62,,,,,,,,,1,1.47410065393,2,0.38397906918,,,,,,,,,2018_jun._15_1500,60.0777477804,Experimento Piloto1,001,137,
2.5,Stim\\03_019.jpg,Tr19_25,Tristeza,25,Luis decide la comida siguiente.,Afirmación,Tr19,19,,,,,0,63,63,63,,,,,,,,,1,1.69521345384,4,0.284104732638,,,,,,,,,2018_jun._15_1500,60.0777477804,Experimento Piloto1,001,137,
0.25,Stim\\02_028.jpg,Al28_29,Alegría,29,Miriam mira la película.,Afirmación,Al28,28,,,,,0,64,64,64,,,,,,,,,1,0.651529783043,2,0.350290462877,,,,,,,,,2018_jun._15_1500,60.0777477804,Experimento Piloto1,001,137,
2.5,Stim\\02_019.jpg,Al19_21,Alegría,21,Mauro anuncia la actividad.,Afirmación,Al19,19,,,,,0,65,65,65,,,,,,,,,1,1.38084462267,3,0.383676959229,,,,,,,,,2018_jun._15_1500,60.0777477804,Experimento Piloto1,001,137,
2.5,Stim\\02_078.jpg,Al78_25,Alegría,25,Luis decide la comida siguiente.,Afirmación,Al78,78,,,,,0,66,66,66,,,,,,,,,1,1.22789934071,3,0.650373554268,,,,,,,,,2018_jun._15_1500,60.0777477804,Experimento Piloto1,001,137,
2.5,Stim\\05_075.jpg,En75_29,Enojo,29,Miriam mira la película.,Afirmación,En75,75,,,,,0,67,67,67,,,,,,,,,1,0.550750009148,2,2.55000298986,,,,,,,,,2018_jun._15_1500,60.0777477804,Experimento Piloto1,001,137,
0.25,Stim\\03_028.jpg,Tr28_20,Tristeza,20,Karen analiza la idea.,Afirmación,Tr28,28,,,,,0,68,68,68,,,,,,,,,1,2.10264687586,3,0.533887186699,,,,,,,,,2018_jun._15_1500,60.0777477804,Experimento Piloto1,001,137,
2.5,Stim\\02_075.jpg,Al75_26,Alegría,26,Víctor trae el café a Marco.,Afirmación,Al75,75,,,,,0,69,69,69,,,,,,,,,1,0.87952595959,4,0.583408674884,,,,,,,,,2018_jun._15_1500,60.0777477804,Experimento Piloto1,001,137,
0.25,Stim\\05_019.jpg,En19_20,Enojo,20,Karen analiza la idea.,Afirmación,En19,19,,,,,0,70,70,70,,,,,,,,,1,1.7379658049,2,0.600427237912,,,,,,,,,2018_jun._15_1500,60.0777477804,Experimento Piloto1,001,137,
0.25,Stim\\05_028.jpg,En28_22,Enojo,22,Enrique corre todas las mañanas.,Afirmación,En28,28,,,,,0,71,71,71,,,,,,,,,1,1.92852890751,2,0.500565396318,,,,,,,,,2018_jun._15_1500,60.0777477804,Experimento Piloto1,001,137,
2.5,Stim\\05_028.jpg,En28_22,Enojo,22,Enrique corre todas las mañanas.,Afirmación,En28,28,,,,,0,72,72,72,,,,,,,,,1,0.982483424115,2,0.250271541956,,,,,,,,,2018_jun._15_1500,60.0777477804,Experimento Piloto1,001,137,
0.25,Stim\\05_019.jpg,En19_17,Enojo,17,Brenda sube el autobús en las mañanas.,Afirmación,En19,19,,,,,0,73,73,73,,,,,,,,,1,2.38339002172,3,0.333868087282,,,,,,,,,2018_jun._15_1500,60.0777477804,Experimento Piloto1,001,137,
2.5,Stim\\05_078.jpg,En78_26,Enojo,26,Víctor trae el café a Marco.,Afirmación,En78,78,,,,,0,74,74,74,,,,,,,,,1,1.33674727989,2,0.650623006944,,,,,,,,,2018_jun._15_1500,60.0777477804,Experimento Piloto1,001,137,
2.5,Stim\\03_078.jpg,Tr78_29,Tristeza,29,Miriam mira la película.,Afirmación,Tr78,78,,,,,0,75,75,75,,,,,,,,,1,1.11713298103,3,0.650589984587,,,,,,,,,2018_jun._15_1500,60.0777477804,Experimento Piloto1,001,137,
0.25,Stim\\02_075.jpg,Al75_22,Alegría,22,Enrique corre todas las mañanas.,Afirmación,Al75,75,,,,,0,76,76,76,,,,,,,,,1,0.712271286704,2,0.384765804545,,,,,,,,,2018_jun._15_1500,60.0777477804,Experimento Piloto1,001,137,
2.5,Stim\\02_019.jpg,Al19_23,Alegría,23,Óscar consigue un nuevo departamento.,Afirmación,Al19,19,,,,,0,77,77,77,,,,,,,,,1,1.2255770657,3,0.75034294165,,,,,,,,,2018_jun._15_1500,60.0777477804,Experimento Piloto1,001,137,
0.25,Stim\\05_075.jpg,En75_21,Enojo,21,Mauro anuncia la actividad.,Afirmación,En75,75,,,,,0,78,78,78,,,,,,,,,1,3.01739653515,2,0.85026859672,,,,,,,,,2018_jun._15_1500,60.0777477804,Experimento Piloto1,001,137,
0.25,Stim\\02_078.jpg,Al78_25,Alegría,25,Luis decide la comida siguiente.,Afirmación,Al78,78,,,,,0,79,79,79,,,,,,,,,1,1.06059736553,2,0.500923287276,,,,,,,,,2018_jun._15_1500,60.0777477804,Experimento Piloto1,001,137,
0.25,Stim\\03_078.jpg,Tr78_22,Tristeza,22,Enrique corre todas las mañanas.,Afirmación,Tr78,78,,,,,0,80,80,80,,,,,,,,,1,1.68049083719,2,0.284164083634,,,,,,,,,2018_jun._15_1500,60.0777477804,Experimento Piloto1,001,137,
0.25,Stim\\05_028.jpg,En28_26,Enojo,26,Víctor trae el café a Marco.,Afirmación,En28,28,,,,,0,81,81,81,,,,,,,,,1,0.965777234744,3,0.79985371988,,,,,,,,,2018_jun._15_1500,60.0777477804,Experimento Piloto1,001,137,
2.5,Stim\\05_019.jpg,En19_29,Enojo,29,Miriam mira la película.,Afirmación,En19,19,,,,,0,82,82,82,,,,,,,,,1,1.38797165075,3,0.13221884363,,,,,,,,,2018_jun._15_1500,60.0777477804,Experimento Piloto1,001,137,
0.25,Stim\\02_019.jpg,Al19_21,Alegría,21,Mauro anuncia la actividad.,Afirmación,Al19,19,,,,,0,83,83,83,,,,,,,,,1,2.35163991707,3,0.233732695615,,,,,,,,,2018_jun._15_1500,60.0777477804,Experimento Piloto1,001,137,
2.5,Stim\\05_078.jpg,En78_30,Enojo,30,Marisol toma 2 litros de agua cada día.,Afirmación,En78,78,,,,,0,84,84,84,,,,,,,,,1,2.03643035451,3,0.133841847895,,,,,,,,,2018_jun._15_1500,60.0777477804,Experimento Piloto1,001,137,
0.25,Stim\\02_078.jpg,Al78_30,Alegría,30,Marisol toma 2 litros de agua cada día.,Afirmación,Al78,78,,,,,0,85,85,85,,,,,,,,,1,0.833384354362,3,0.183853762719,,,,,,,,,2018_jun._15_1500,60.0777477804,Experimento Piloto1,001,137,
0.25,Stim\\03_075.jpg,Tr75_16,Tristeza,16,Valeria modifica algunas imágenes.,Afirmación,Tr75,75,,,,,0,86,86,86,,,,,,,,,1,1.30974213108,3,0.150685035427,,,,,,,,,2018_jun._15_1500,60.0777477804,Experimento Piloto1,001,137,
0.25,Stim\\02_019.jpg,Al19_24,Alegría,24,Guadalupe comenta los resultados con los compañeros.,Afirmación,Al19,19,,,,,0,87,87,87,,,,,,,,,1,2.38188393445,4,1.15054580603,,,,,,,,,2018_jun._15_1500,60.0777477804,Experimento Piloto1,001,137,
2.5,Stim\\02_028.jpg,Al28_29,Alegría,29,Miriam mira la película.,Afirmación,Al28,28,,,,,0,88,88,88,,,,,,,,,1,1.13600659733,3,0.133244321716,,,,,,,,,2018_jun._15_1500,60.0777477804,Experimento Piloto1,001,137,
0.25,Stim\\03_019.jpg,Tr19_25,Tristeza,25,Luis decide la comida siguiente.,Afirmación,Tr19,19,,,,,0,89,89,89,,,,,,,,,1,1.46896567728,3,0.184286177109,,,,,,,,,2018_jun._15_1500,60.0777477804,Experimento Piloto1,001,137,
0.25,Stim\\03_075.jpg,Tr75_25,Tristeza,25,Luis decide la comida siguiente.,Afirmación,Tr75,75,,,,,0,90,90,90,,,,,,,,,1,1.48353032211,3,0.151116111074,,,,,,,,,2018_jun._15_1500,60.0777477804,Experimento Piloto1,001,137,
2.5,Stim\\03_078.jpg,Tr78_25,Tristeza,25,Luis decide la comida siguiente.,Afirmación,Tr78,78,,,,,0,91,91,91,,,,,,,,,1,1.33356508484,3,0.200456868784,,,,,,,,,2018_jun._15_1500,60.0777477804,Experimento Piloto1,001,137,
2.5,Stim\\02_019.jpg,Al19_18,Alegría,18,Sofía escucha la música.,Afirmación,Al19,19,,,,,0,92,92,92,,,,,,,,,1,0.918267432906,2,0.650505643698,,,,,,,,,2018_jun._15_1500,60.0777477804,Experimento Piloto1,001,137,
2.5,Stim\\03_028.jpg,Tr28_19,Tristeza,19,Armando acompaña a Rodrígo a la tienda.,Afirmación,Tr28,28,,,,,0,93,93,93,,,,,,,,,1,0.906358410393,3,0.183767190592,,,,,,,,,2018_jun._15_1500,60.0777477804,Experimento Piloto1,001,137,
0.25,Stim\\03_078.jpg,Tr78_18,Tristeza,18,Sofía escucha la música.,Afirmación,Tr78,78,,,,,0,94,94,94,,,,,,,,,1,1.3699700032,2,0.249147443043,,,,,,,,,2018_jun._15_1500,60.0777477804,Experimento Piloto1,001,137,
0.25,Stim\\05_019.jpg,En19_29,Enojo,29,Miriam mira la película.,Afirmación,En19,19,,,,,0,95,95,95,,,,,,,,,1,0.649468563161,3,0.250010040581,,,,,,,,,2018_jun._15_1500,60.0777477804,Experimento Piloto1,001,137,
2.5,Stim\\03_078.jpg,Tr78_24,Tristeza,24,Guadalupe comenta los resultados con los compañeros.,Afirmación,Tr78,78,,,,,0,96,96,96,,,,,,,,,1,1.51495957439,2,0.233786245386,,,,,,,,,2018_jun._15_1500,60.0777477804,Experimento Piloto1,001,137,
2.5,Stim\\05_019.jpg,En19_22,Enojo,22,Enrique corre todas las mañanas.,Afirmación,En19,19,,,,,0,97,97,97,,,,,,,,,1,2.19478684068,2,0.700557720849,,,,,,,,,2018_jun._15_1500,60.0777477804,Experimento Piloto1,001,137,
0.25,Stim\\02_028.jpg,Al28_20,Alegría,20,Karen analiza la idea.,Afirmación,Al28,28,,,,,0,98,98,98,,,,,,,,,1,1.06807112837,4,0.650460572642,,,,,,,,,2018_jun._15_1500,60.0777477804,Experimento Piloto1,001,137,
2.5,Stim\\03_078.jpg,Tr78_27,Tristeza,27,Claudia informa los avances en el reporte.,Afirmación,Tr78,78,,,,,0,99,99,99,,,,,,,,,1,0.905342303515,2,0.451418310273,,,,,,,,,2018_jun._15_1500,60.0777477804,Experimento Piloto1,001,137,
0.25,Stim\\03_075.jpg,Tr75_17,Tristeza,17,Brenda sube el autobús en las mañanas.,Afirmación,Tr75,75,,,,,0,100,100,100,,,,,,,,,1,1.05692519008,2,0.583759872123,,,,,,,,,2018_jun._15_1500,60.0777477804,Experimento Piloto1,001,137,
2.5,Stim\\05_028.jpg,En28_25,Enojo,25,Luis decide la comida siguiente.,Afirmación,En28,28,,,,,0,101,101,101,,,,,,,,,1,1.02611934637,3,0.133819089244,,,,,,,,,2018_jun._15_1500,60.0777477804,Experimento Piloto1,001,137,
2.5,Stim\\02_028.jpg,Tr28_30,Tristeza,30,Marisol toma 2 litros de agua cada día.,Afirmación,Tr28,28,,,,,0,102,102,102,,,,,,,,,1,1.27282268868,3,0.384025925228,,,,,,,,,2018_jun._15_1500,60.0777477804,Experimento Piloto1,001,137,
0.25,Stim\\02_078.jpg,Al78_18,Alegría,18,Sofía escucha la música.,Afirmación,Al78,78,,,,,0,103,103,103,,,,,,,,,1,1.16942790104,3,0.249498194033,,,,,,,,,2018_jun._15_1500,60.0777477804,Experimento Piloto1,001,137,
0.25,Stim\\02_078.jpg,Al78_24,Alegría,24,Guadalupe comenta los resultados con los compañeros.,Afirmación,Al78,78,,,,,0,104,104,104,,,,,,,,,1,1.96239021182,4,0.500332901067,,,,,,,,,2018_jun._15_1500,60.0777477804,Experimento Piloto1,001,137,
0.25,Stim\\05_075.jpg,En75_26,Enojo,26,Víctor trae el café a Marco.,Afirmación,En75,75,,,,,0,105,105,105,,,,,,,,,1,1.2139335608,2,0.500460974266,,,,,,,,,2018_jun._15_1500,60.0777477804,Experimento Piloto1,001,137,
0.25,Stim\\05_019.jpg,En19_16,Enojo,16,Valeria modifica algunas imágenes.,Afirmación,En19,19,,,,,0,106,106,106,,,,,,,,,1,1.92853203124,3,0.900668747372,,,,,,,,,2018_jun._15_1500,60.0777477804,Experimento Piloto1,001,137,
2.5,Stim\\05_019.jpg,En19_21,Enojo,21,Mauro anuncia la actividad.,Afirmación,En19,19,,,,,0,107,107,107,,,,,,,,,1,1.43026972126,2,0.133775356931,,,,,,,,,2018_jun._15_1500,60.0777477804,Experimento Piloto1,001,137,
0.25,Stim\\03_028.jpg,Tr28_22,Tristeza,22,Enrique corre todas las mañanas.,Afirmación,Tr28,28,,,,,0,108,108,108,,,,,,,,,1,0.759489242299,2,0.0837228335331,,,,,,,,,2018_jun._15_1500,60.0777477804,Experimento Piloto1,001,137,
2.5,Stim\\05_075.jpg,En75_28,Enojo,28,Antonio responde la pregunta.,Afirmación,En75,75,,,,,0,109,109,109,,,,,,,,,1,1.47878670502,2,0.333767681464,,,,,,,,,2018_jun._15_1500,60.0777477804,Experimento Piloto1,001,137,
2.5,Stim\\05_078.jpg,En78_28,Enojo,28,Antonio responde la pregunta.,Afirmación,En78,78,,,,,0,110,110,110,,,,,,,,,1,1.14982020665,2,0.183845730253,,,,,,,,,2018_jun._15_1500,60.0777477804,Experimento Piloto1,001,137,
2.5,Stim\\03_028.jpg,Tr28_26,Tristeza,26,Víctor trae el café a Marco.,Afirmación,Tr28,28,,,,,0,111,111,111,,,,,,,,,1,1.18120260287,3,0.133583470257,,,,,,,,,2018_jun._15_1500,60.0777477804,Experimento Piloto1,001,137,
2.5,Stim\\05_028.jpg,En28_20,Enojo,20,Karen analiza la idea.,Afirmación,En28,28,,,,,0,112,112,112,,,,,,,,,1,1.1186854781,3,0.500579676256,,,,,,,,,2018_jun._15_1500,60.0777477804,Experimento Piloto1,001,137,
2.5,Stim\\02_019.jpg,Al19_30,Alegría,30,Marisol toma 2 litros de agua cada día.,Afirmación,Al19,19,,,,,0,113,113,113,,,,,,,,,1,1.26764621095,3,0.133727162138,,,,,,,,,2018_jun._15_1500,60.0777477804,Experimento Piloto1,001,137,
2.5,Stim\\05_078.jpg,En78_23,Enojo,23,Óscar consigue un nuevo departamento.,Afirmación,En78,78,,,,,0,114,114,114,,,,,,,,,1,1.62243619322,2,0.899329556883,,,,,,,,,2018_jun._15_1500,60.0777477804,Experimento Piloto1,001,137,
0.25,Stim\\05_078.jpg,En78_23,Enojo,23,Óscar consigue un nuevo departamento.,Afirmación,En78,78,,,,,0,115,115,115,,,,,,,,,1,1.70002757813,2,0.700394394053,,,,,,,,,2018_jun._15_1500,60.0777477804,Experimento Piloto1,001,137,
2.5,Stim\\05_019.jpg,En19_19,Enojo,19,Armando acompaña a Rodrígo a la tienda.,Afirmación,En19,19,,,,,0,116,116,116,,,,,,,,,1,1.12248483426,2,0.699890579972,,,,,,,,,2018_jun._15_1500,60.0777477804,Experimento Piloto1,001,137,
2.5,Stim\\03_078.jpg,Tr78_17,Tristeza,17,Brenda sube el autobús en las mañanas.,Afirmación,Tr78,78,,,,,0,117,117,117,,,,,,,,,1,1.20352125435,4,0.450424515799,,,,,,,,,2018_jun._15_1500,60.0777477804,Experimento Piloto1,001,137,
0.25,Stim\\05_075.jpg,En75_20,Enojo,20,Karen analiza la idea.,Afirmación,En75,75,,,,,0,118,118,118,,,,,,,,,1,2.08097216037,2,1.31583475612,,,,,,,,,2018_jun._15_1500,60.0777477804,Experimento Piloto1,001,137,
0.25,Stim\\05_078.jpg,En78_28,Enojo,28,Antonio responde la pregunta.,Afirmación,En78,78,,,,,0,119,119,119,,,,,,,,,1,1.11145313547,3,0.4505405403,,,,,,,,,2018_jun._15_1500,60.0777477804,Experimento Piloto1,001,137,
2.5,Stim\\05_028.jpg,En28_16,Enojo,16,Valeria modifica algunas imágenes.,Afirmación,En28,28,,,,,,,,,0,0,0,0,,,,,,,,,1,1.85939303121,3,1.73348815167,,,,,2018_jun._15_1500,60.0777477804,Experimento Piloto1,001,137,
2.5,Stim\\05_028.jpg,En28_29,Enojo,29,Miriam mira la película.,Afirmación,En28,28,,,,,,,,,0,1,1,1,,,,,,,,,1,0.957656858431,3,0.350184255831,,,,,2018_jun._15_1500,60.0777477804,Experimento Piloto1,001,137,
0.25,Stim\\03_028.jpg,Tr28_29,Tristeza,29,Miriam mira la película.,Afirmación,Tr28,28,,,,,,,,,0,2,2,2,,,,,,,,,1,1.53305805777,3,0.300317817882,,,,,2018_jun._15_1500,60.0777477804,Experimento Piloto1,001,137,
2.5,Stim\\02_075.jpg,Al75_22,Alegría,22,Enrique corre todas las mañanas.,Afirmación,Al75,75,,,,,,,,,0,3,3,3,,,,,,,,,1,1.47765100366,2,0.700267213349,,,,,2018_jun._15_1500,60.0777477804,Experimento Piloto1,001,137,
2.5,Stim\\05_019.jpg,En19_17,Enojo,17,Brenda sube el autobús en las mañanas.,Afirmación,En19,19,,,,,,,,,0,4,4,4,,,,,,,,,1,2.09038263988,2,0.384171848349,,,,,2018_jun._15_1500,60.0777477804,Experimento Piloto1,001,137,
2.5,Stim\\02_028.jpg,Al28_17,Alegría,17,Brenda sube el autobús en las mañanas.,Afirmación,Al28,28,,,,,,,,,0,5,5,5,,,,,,,,,1,0.883959880513,3,0.300438751112,,,,,2018_jun._15_1500,60.0777477804,Experimento Piloto1,001,137,
0.25,Stim\\05_075.jpg,En75_24,Enojo,24,Guadalupe comenta los resultados con los compañeros.,Afirmación,En75,75,,,,,,,,,0,6,6,6,,,,,,,,,1,1.33908785107,2,0.183873843882,,,,,2018_jun._15_1500,60.0777477804,Experimento Piloto1,001,137,
2.5,Stim\\03_078.jpg,Tr78_23,Tristeza,23,Óscar consigue un nuevo departamento.,Afirmación,Tr78,78,,,,,,,,,0,7,7,7,,,,,,,,,1,1.42199985185,3,0.184685122893,,,,,2018_jun._15_1500,60.0777477804,Experimento Piloto1,001,137,
0.25,Stim\\05_075.jpg,En75_16,Enojo,16,Valeria modifica algunas imágenes.,Afirmación,En75,75,,,,,,,,,0,8,8,8,,,,,,,,,1,2.55969996064,2,0.283876253621,,,,,2018_jun._15_1500,60.0777477804,Experimento Piloto1,001,137,
0.25,Stim\\02_078.jpg,Al78_23,Alegría,23,Óscar consigue un nuevo departamento.,Afirmación,Al78,78,,,,,,,,,0,9,9,9,,,,,,,,,1,1.67326027955,3,0.449231248433,,,,,2018_jun._15_1500,60.0777477804,Experimento Piloto1,001,137,
2.5,Stim\\05_078.jpg,En78_24,Enojo,24,Guadalupe comenta los resultados con los compañeros.,Afirmación,En78,78,,,,,,,,,0,10,10,10,,,,,,,,,1,1.23988601039,2,0.350563120453,,,,,2018_jun._15_1500,60.0777477804,Experimento Piloto1,001,137,
2.5,Stim\\03_028.jpg,Tr28_28,Tristeza,28,Antonio responde la pregunta.,Afirmación,Tr28,28,,,,,,,,,0,11,11,11,,,,,,,,,1,2.09577019295,4,0.283966841982,,,,,2018_jun._15_1500,60.0777477804,Experimento Piloto1,001,137,
0.25,Stim\\02_019.jpg,Al19_20,Alegría,20,Karen analiza la idea.,Afirmación,Al19,19,,,,,,,,,0,12,12,12,,,,,,,,,1,2.55333021555,3,0.916762684377,,,,,2018_jun._15_1500,60.0777477804,Experimento Piloto1,001,137,
2.5,Stim\\05_078.jpg,En78_27,Enojo,27,Claudia informa los avances en el reporte.,Afirmación,En78,78,,,,,,,,,0,13,13,13,,,,,,,,,1,2.73338596086,2,0.967128920178,,,,,2018_jun._15_1500,60.0777477804,Experimento Piloto1,001,137,
0.25,Stim\\05_028.jpg,En28_28,Enojo,28,Antonio responde la pregunta.,Afirmación,En28,28,,,,,,,,,0,14,14,14,,,,,,,,,1,1.41427440508,3,1.16660761317,,,,,2018_jun._15_1500,60.0777477804,Experimento Piloto1,001,137,
2.5,Stim\\03_078.jpg,Tr78_30,Tristeza,30,Marisol toma 2 litros de agua cada día.,Afirmación,Tr78,78,,,,,,,,,0,15,15,15,,,,,,,,,1,1.12192657791,4,0.700488106149,,,,,2018_jun._15_1500,60.0777477804,Experimento Piloto1,001,137,
0.25,Stim\\03_028.jpg,Tr28_27,Tristeza,27,Claudia informa los avances en el reporte.,Afirmación,Tr28,28,,,,,,,,,0,16,16,16,,,,,,,,,1,2.53604256493,3,0.950327679966,,,,,2018_jun._15_1500,60.0777477804,Experimento Piloto1,001,137,
0.25,Stim\\02_075.jpg,Al75_24,Alegría,24,Guadalupe comenta los resultados con los compañeros.,Afirmación,Al75,75,,,,,,,,,0,17,17,17,,,,,,,,,1,2.03022304372,2,0.183881430101,,,,,2018_jun._15_1500,60.0777477804,Experimento Piloto1,001,137,
0.25,Stim\\02_019.jpg,Al19_16,Alegría,16,Valeria modifica algunas imágenes.,Afirmación,Al19,19,,,,,,,,,0,18,18,18,,,,,,,,,1,1.62322917606,3,0.233630504805,,,,,2018_jun._15_1500,60.0777477804,Experimento Piloto1,001,137,
2.5,Stim\\02_028.jpg,Al28_30,Alegría,30,Marisol toma 2 litros de agua cada día.,Afirmación,Al28,28,,,,,,,,,0,19,19,19,,,,,,,,,1,0.954309551584,2,0.200368957912,,,,,2018_jun._15_1500,60.0777477804,Experimento Piloto1,001,137,
2.5,Stim\\05_078.jpg,En78_16,Enojo,16,Valeria modifica algunas imágenes.,Afirmación,En78,78,,,,,,,,,0,20,20,20,,,,,,,,,1,1.57507856197,3,0.33414520734,,,,,2018_jun._15_1500,60.0777477804,Experimento Piloto1,001,137,
0.25,Stim\\02_075.jpg,Al75_28,Alegría,28,Antonio responde la pregunta.,Afirmación,Al75,75,,,,,,,,,0,21,21,21,,,,,,,,,1,1.77430780229,3,1.11701517154,,,,,2018_jun._15_1500,60.0777477804,Experimento Piloto1,001,137,
2.5,Stim\\03_075.jpg,Tr75_17,Tristeza,17,Brenda sube el autobús en las mañanas.,Afirmación,Tr75,75,,,,,,,,,0,22,22,22,,,,,,,,,1,2.1388259927,2,0.433638894268,,,,,2018_jun._15_1500,60.0777477804,Experimento Piloto1,001,137,
0.25,Stim\\05_075.jpg,En75_18,Enojo,18,Sofía escucha la música.,Afirmación,En75,75,,,,,,,,,0,23,23,23,,,,,,,,,1,1.21687076566,3,0.800875627981,,,,,2018_jun._15_1500,60.0777477804,Experimento Piloto1,001,137,
2.5,Stim\\02_075.jpg,Al75_25,Alegría,25,Luis decide la comida siguiente.,Afirmación,Al75,75,,,,,,,,,0,24,24,24,,,,,,,,,1,1.11081276948,3,0.349669285548,,,,,2018_jun._15_1500,60.0777477804,Experimento Piloto1,001,137,
0.25,Stim\\02_028.jpg,Al28_18,Alegría,18,Sofía escucha la música.,Afirmación,Al28,28,,,,,,,,,0,25,25,25,,,,,,,,,1,0.74984091256,3,1.98345490619,,,,,2018_jun._15_1500,60.0777477804,Experimento Piloto1,001,137,
0.25,Stim\\02_028.jpg,Al28_23,Alegría,23,Óscar consigue un nuevo departamento.,Afirmación,Al28,28,,,,,,,,,0,26,26,26,,,,,,,,,1,1.20730142183,3,0.350275290441,,,,,2018_jun._15_1500,60.0777477804,Experimento Piloto1,001,137,
0.25,Stim\\02_075.jpg,Al75_19,Alegría,19,Armando acompaña a Rodrígo a la tienda.,Afirmación,Al75,75,,,,,,,,,0,27,27,27,,,,,,,,,1,1.72264164583,2,0.600886427186,,,,,2018_jun._15_1500,60.0777477804,Experimento Piloto1,001,137,
2.5,Stim\\05_019.jpg,En19_16,Enojo,16,Valeria modifica algunas imágenes.,Afirmación,En19,19,,,,,,,,,0,28,28,28,,,,,,,,,1,2.73984093934,3,0.700484089917,,,,,2018_jun._15_1500,60.0777477804,Experimento Piloto1,001,137,
2.5,Stim\\02_019.jpg,Al19_25,Alegría,25,Luis decide la comida siguiente.,Afirmación,Al19,19,,,,,,,,,0,29,29,29,,,,,,,,,1,1.726786398,2,0.650443168968,,,,,2018_jun._15_1500,60.0777477804,Experimento Piloto1,001,137,
0.25,Stim\\02_078.jpg,Al78_27,Alegría,27,Claudia informa los avances en el reporte.,Afirmación,Al78,78,,,,,,,,,0,30,30,30,,,,,,,,,1,1.15315010982,3,0.500566735062,,,,,2018_jun._15_1500,60.0777477804,Experimento Piloto1,001,137,
0.25,Stim\\03_019.jpg,Tr19_22,Tristeza,22,Enrique corre todas las mañanas.,Afirmación,Tr19,19,,,,,,,,,0,31,31,31,,,,,,,,,1,1.21029753144,3,0.650351241864,,,,,2018_jun._15_1500,60.0777477804,Experimento Piloto1,001,137,
2.5,Stim\\05_019.jpg,En19_26,Enojo,26,Víctor trae el café a Marco.,Afirmación,En19,19,,,,,,,,,0,32,32,32,,,,,,,,,1,0.914557772614,2,0.233839795153,,,,,2018_jun._15_1500,60.0777477804,Experimento Piloto1,001,137,
2.5,Stim\\02_078.jpg,Al78_26,Alegría,26,Víctor trae el café a Marco.,Afirmación,Al78,78,,,,,,,,,0,33,33,33,,,,,,,,,1,0.733649247224,2,0.350529205598,,,,,2018_jun._15_1500,60.0777477804,Experimento Piloto1,001,137,
0.25,Stim\\05_078.jpg,En78_17,Enojo,17,Brenda sube el autobús en las mañanas.,Afirmación,En78,78,,,,,,,,,0,34,34,34,,,,,,,,,1,2.33896914909,2,0.334046140266,,,,,2018_jun._15_1500,60.0777477804,Experimento Piloto1,001,137,
0.25,Stim\\05_078.jpg,En78_21,Enojo,21,Mauro anuncia la actividad.,Afirmación,En78,78,,,,,,,,,0,35,35,35,,,,,,,,,1,1.10711649663,2,0.183968448477,,,,,2018_jun._15_1500,60.0777477804,Experimento Piloto1,001,137,
2.5,Stim\\03_078.jpg,Tr78_20,Tristeza,20,Karen analiza la idea.,Afirmación,Tr78,78,,,,,,,,,0,36,36,36,,,,,,,,,1,1.08565017899,4,0.233655940945,,,,,2018_jun._15_1500,60.0777477804,Experimento Piloto1,001,137,
0.25,Stim\\03_078.jpg,Tr78_28,Tristeza,28,Antonio responde la pregunta.,Afirmación,Tr78,78,,,,,,,,,0,37,37,37,,,,,,,,,1,0.645143080523,4,0.200540763424,,,,,2018_jun._15_1500,60.0777477804,Experimento Piloto1,001,137,
2.5,Stim\\03_028.jpg,Tr28_17,Tristeza,17,Brenda sube el autobús en las mañanas.,Afirmación,Tr28,28,,,,,,,,,0,38,38,38,,,,,,,,,1,1.87082590702,3,0.450332588694,,,,,2018_jun._15_1500,60.0777477804,Experimento Piloto1,001,137,
0.25,Stim\\02_028.jpg,Al28_27,Alegría,27,Claudia informa los avances en el reporte.,Afirmación,Al28,28,,,,,,,,,0,39,39,39,,,,,,,,,1,2.39224313737,3,0.500413671971,,,,,2018_jun._15_1500,60.0777477804,Experimento Piloto1,001,137,
2.5,Stim\\02_019.jpg,Al19_28,Alegría,28,Antonio responde la pregunta.,Afirmación,Al19,19,,,,,,,,,0,40,40,40,,,,,,,,,1,1.01242042281,3,0.134915967024,,,,,2018_jun._15_1500,60.0777477804,Experimento Piloto1,001,137,
0.25,Stim\\02_019.jpg,Al19_17,Alegría,17,Brenda sube el autobús en las mañanas.,Afirmación,Al19,19,,,,,,,,,0,41,41,41,,,,,,,,,1,2.43898316128,3,0.300466418494,,,,,2018_jun._15_1500,60.0777477804,Experimento Piloto1,001,137,
2.5,Stim\\03_075.jpg,Tr75_21,Tristeza,21,Mauro anuncia la actividad.,Afirmación,Tr75,75,,,,,,,,,0,42,42,42,,,,,,,,,1,0.962909644582,3,0.499570709348,,,,,2018_jun._15_1500,60.0777477804,Experimento Piloto1,001,137,
0.25,Stim\\03_075.jpg,Tr75_26,Tristeza,26,Víctor trae el café a Marco.,Afirmación,Tr75,75,,,,,,,,,0,43,43,43,,,,,,,,,1,1.11441265274,3,0.6497501457,,,,,2018_jun._15_1500,60.0777477804,Experimento Piloto1,001,137,
0.25,Stim\\02_075.jpg,Al75_18,Alegría,18,Sofía escucha la música.,Afirmación,Al75,75,,,,,,,,,0,44,44,44,,,,,,,,,1,1.51365429875,3,0.0844881489902,,,,,2018_jun._15_1500,60.0777477804,Experimento Piloto1,001,137,
2.5,Stim\\05_028.jpg,En28_27,Enojo,27,Claudia informa los avances en el reporte.,Afirmación,En28,28,,,,,,,,,0,45,45,45,,,,,,,,,1,2.40453593323,3,0.133007363986,,,,,2018_jun._15_1500,60.0777477804,Experimento Piloto1,001,137,
0.25,Stim\\02_019.jpg,Al19_23,Alegría,23,Óscar consigue un nuevo departamento.,Afirmación,Al19,19,,,,,,,,,0,46,46,46,,,,,,,,,1,2.34017268016,3,0.134347893219,,,,,2018_jun._15_1500,60.0777477804,Experimento Piloto1,001,137,
0.25,Stim\\03_075.jpg,Tr75_21,Tristeza,21,Mauro anuncia la actividad.,Afirmación,Tr75,75,,,,,,,,,0,47,47,47,,,,,,,,,1,1.27294897689,3,0.0340665784279,,,,,2018_jun._15_1500,60.0777477804,Experimento Piloto1,001,137,
0.25,Stim\\02_078.jpg,Al78_28,Alegría,28,Antonio responde la pregunta.,Afirmación,Al78,78,,,,,,,,,0,48,48,48,,,,,,,,,1,1.63276772877,3,0.0339135153372,,,,,2018_jun._15_1500,60.0777477804,Experimento Piloto1,001,137,
2.5,Stim\\03_075.jpg,Tr75_23,Tristeza,23,Óscar consigue un nuevo departamento.,Afirmación,Tr75,75,,,,,,,,,0,49,49,49,,,,,,,,,1,1.42386338383,4,0.284650494041,,,,,2018_jun._15_1500,60.0777477804,Experimento Piloto1,001,137,
0.25,Stim\\02_078.jpg,Al78_22,Alegría,22,Enrique corre todas las mañanas.,Afirmación,Al78,78,,,,,,,,,0,50,50,50,,,,,,,,,1,1.38021184289,3,0.133734302108,,,,,2018_jun._15_1500,60.0777477804,Experimento Piloto1,001,137,
2.5,Stim\\03_028.jpg,Tr28_23,Tristeza,23,Óscar consigue un nuevo departamento.,Afirmación,Tr28,28,,,,,,,,,0,51,51,51,,,,,,,,,1,0.811834588332,3,0.133873531509,,,,,2018_jun._15_1500,60.0777477804,Experimento Piloto1,001,137,
0.25,Stim\\02_028.jpg,Al28_19,Alegría,19,Armando acompaña a Rodrígo a la tienda.,Afirmación,Al28,28,,,,,,,,,0,52,52,52,,,,,,,,,1,1.01027664704,3,0.134048460755,,,,,2018_jun._15_1500,60.0777477804,Experimento Piloto1,001,137,
0.25,Stim\\03_028.jpg,Tr28_28,Tristeza,28,Antonio responde la pregunta.,Afirmación,Tr28,28,,,,,,,,,0,53,53,53,,,,,,,,,1,1.42601251458,4,0.233595697455,,,,,2018_jun._15_1500,60.0777477804,Experimento Piloto1,001,137,
2.5,Stim\\05_075.jpg,En75_16,Enojo,16,Valeria modifica algunas imágenes.,Afirmación,En75,75,,,,,,,,,0,54,54,54,,,,,,,,,1,1.37173312937,2,0.333809182537,,,,,2018_jun._15_1500,60.0777477804,Experimento Piloto1,001,137,
0.25,Stim\\03_019.jpg,Tr19_28,Tristeza,28,Antonio responde la pregunta.,Afirmación,Tr19,19,,,,,,,,,0,55,55,55,,,,,,,,,1,0.913703207541,3,0.0840405621657,,,,,2018_jun._15_1500,60.0777477804,Experimento Piloto1,001,137,
2.5,Stim\\03_019.jpg,Tr19_24,Tristeza,24,Guadalupe comenta los resultados con los compañeros.,Afirmación,Tr19,19,,,,,,,,,0,56,56,56,,,,,,,,,1,1.37419151004,3,0.450297335095,,,,,2018_jun._15_1500,60.0777477804,Experimento Piloto1,001,137,
0.25,Stim\\03_019.jpg,Tr19_30,Tristeza,30,Marisol toma 2 litros de agua cada día.,Afirmación,Tr19,19,,,,,,,,,0,57,57,57,,,,,,,,,1,1.15811506596,3,0.333912712091,,,,,2018_jun._15_1500,60.0777477804,Experimento Piloto1,001,137,
0.25,Stim\\02_075.jpg,Al75_23,Alegría,23,Óscar consigue un nuevo departamento.,Afirmación,Al75,75,,,,,,,,,0,58,58,58,,,,,,,,,1,1.27292086326,4,0.433961531631,,,,,2018_jun._15_1500,60.0777477804,Experimento Piloto1,001,137,
2.5,Stim\\02_078.jpg,Al78_22,Alegría,22,Enrique corre todas las mañanas.,Afirmación,Al78,78,,,,,,,,,0,59,59,59,,,,,,,,,1,1.01094869664,3,0.199800437858,,,,,2018_jun._15_1500,60.0777477804,Experimento Piloto1,001,137,
2.5,Stim\\05_075.jpg,En75_20,Enojo,20,Karen analiza la idea.,Afirmación,En75,75,,,,,,,,,0,60,60,60,,,,,,,,,1,0.821247299084,2,0.182756438689,,,,,2018_jun._15_1500,60.0777477804,Experimento Piloto1,001,137,
2.5,Stim\\03_028.jpg,Tr28_18,Tristeza,18,Sofía escucha la música.,Afirmación,Tr28,28,,,,,,,,,0,61,61,61,,,,,,,,,1,0.502622153717,3,0.199969565881,,,,,2018_jun._15_1500,60.0777477804,Experimento Piloto1,001,137,
0.25,Stim\\02_028.jpg,Al28_22,Alegría,22,Enrique corre todas las mañanas.,Afirmación,Al28,28,,,,,,,,,0,62,62,62,,,,,,,,,1,1.46326485805,3,0.200700966483,,,,,2018_jun._15_1500,60.0777477804,Experimento Piloto1,001,137,
2.5,Stim\\03_075.jpg,Tr75_29,Tristeza,29,Miriam mira la película.,Afirmación,Tr75,75,,,,,,,,,0,63,63,63,,,,,,,,,1,1.21772756198,3,0.234244095915,,,,,2018_jun._15_1500,60.0777477804,Experimento Piloto1,001,137,
2.5,Stim\\05_075.jpg,En75_19,Enojo,19,Armando acompaña a Rodrígo a la tienda.,Afirmación,En75,75,,,,,,,,,0,64,64,64,,,,,,,,,1,0.808652393272,2,0.250373732768,,,,,2018_jun._15_1500,60.0777477804,Experimento Piloto1,001,137,
0.25,Stim\\05_078.jpg,En78_27,Enojo,27,Claudia informa los avances en el reporte.,Afirmación,En78,78,,,,,,,,,0,65,65,65,,,,,,,,,1,1.19962193863,2,0.183780578032,,,,,2018_jun._15_1500,60.0777477804,Experimento Piloto1,001,137,
0.25,Stim\\02_075.jpg,Al75_29,Alegría,29,Miriam mira la película.,Afirmación,Al75,75,,,,,,,,,0,66,66,66,,,,,,,,,1,0.862099972064,3,0.183749340669,,,,,2018_jun._15_1500,60.0777477804,Experimento Piloto1,001,137,
2.5,Stim\\03_075.jpg,Tr75_19,Tristeza,19,Armando acompaña a Rodrígo a la tienda.,Afirmación,Tr75,75,,,,,,,,,0,67,67,67,,,,,,,,,1,1.34442408562,4,0.700120397732,,,,,2018_jun._15_1500,60.0777477804,Experimento Piloto1,001,137,
2.5,Stim\\03_028.jpg,Tr28_22,Tristeza,22,Enrique corre todas las mañanas.,Afirmación,Tr28,28,,,,,,,,,0,68,68,68,,,,,,,,,1,1.26573136044,3,1.00066714088,,,,,2018_jun._15_1500,60.0777477804,Experimento Piloto1,001,137,
0.25,Stim\\03_078.jpg,Tr78_25,Tristeza,25,Luis decide la comida siguiente.,Afirmación,Tr78,78,,,,,,,,,0,69,69,69,,,,,,,,,1,1.00428844405,2,0.601085007582,,,,,2018_jun._15_1500,60.0777477804,Experimento Piloto1,001,137,
2.5,Stim\\02_028.jpg,Al28_19,Alegría,19,Armando acompaña a Rodrígo a la tienda.,Afirmación,Al28,28,,,,,,,,,0,70,70,70,,,,,,,,,1,0.653698548713,3,0.233962067128,,,,,2018_jun._15_1500,60.0777477804,Experimento Piloto1,001,137,
0.25,Stim\\02_075.jpg,Al75_25,Alegría,25,Luis decide la comida siguiente.,Afirmación,Al75,75,,,,,,,,,0,71,71,71,,,,,,,,,1,0.595198549159,2,0.250849879469,,,,,2018_jun._15_1500,60.0777477804,Experimento Piloto1,001,137,
2.5,Stim\\02_019.jpg,Al19_24,Alegría,24,Guadalupe comenta los resultados con los compañeros.,Afirmación,Al19,19,,,,,,,,,0,72,72,72,,,,,,,,,1,0.430117104421,3,0.250070730321,,,,,2018_jun._15_1500,60.0777477804,Experimento Piloto1,001,137,
0.25,Stim\\03_028.jpg,Tr28_23,Tristeza,23,Óscar consigue un nuevo departamento.,Afirmación,Tr28,28,,,,,,,,,0,73,73,73,,,,,,,,,1,1.34493191593,3,0.399578563312,,,,,2018_jun._15_1500,60.0777477804,Experimento Piloto1,001,137,
0.25,Stim\\03_028.jpg,Tr28_25,Tristeza,25,Luis decide la comida siguiente.,Afirmación,Tr28,28,,,,,,,,,0,74,74,74,,,,,,,,,1,1.0949678389,3,0.300664998887,,,,,2018_jun._15_1500,60.0777477804,Experimento Piloto1,001,137,
0.25,Stim\\05_019.jpg,En19_23,Enojo,23,Óscar consigue un nuevo departamento.,Afirmación,En19,19,,,,,,,,,0,75,75,75,,,,,,,,,1,1.77084937967,3,0.133736979597,,,,,2018_jun._15_1500,60.0777477804,Experimento Piloto1,001,137,
2.5,Stim\\03_019.jpg,Tr19_26,Tristeza,26,Víctor trae el café a Marco.,Afirmación,Tr19,19,,,,,,,,,0,76,76,76,,,,,,,,,1,1.06257424452,3,0.450762325596,,,,,2018_jun._15_1500,60.0777477804,Experimento Piloto1,001,137,
0.25,Stim\\05_028.jpg,En28_30,Enojo,30,Marisol toma 2 litros de agua cada día.,Afirmación,En28,28,,,,,,,,,0,77,77,77,,,,,,,,,1,1.09666893658,3,0.300655627678,,,,,2018_jun._15_1500,60.0777477804,Experimento Piloto1,001,137,
2.5,Stim\\02_019.jpg,Al19_26,Alegría,26,Víctor trae el café a Marco.,Afirmación,Al19,19,,,,,,,,,0,78,78,78,,,,,,,,,1,0.911915091487,2,0.383882679595,,,,,2018_jun._15_1500,60.0777477804,Experimento Piloto1,001,137,
0.25,Stim\\03_075.jpg,Tr75_27,Tristeza,27,Claudia informa los avances en el reporte.,Afirmación,Tr75,75,,,,,,,,,0,79,79,79,,,,,,,,,1,2.13667909319,2,0.650386495461,,,,,2018_jun._15_1500,60.0777477804,Experimento Piloto1,001,137,
2.5,Stim\\02_078.jpg,Al78_27,Alegría,27,Claudia informa los avances en el reporte.,Afirmación,Al78,78,,,,,,,,,0,80,80,80,,,,,,,,,1,0.933043153083,3,0.134425540384,,,,,2018_jun._15_1500,60.0777477804,Experimento Piloto1,001,137,
0.25,Stim\\02_019.jpg,Al19_26,Alegría,26,Víctor trae el café a Marco.,Afirmación,Al19,19,,,,,,,,,0,81,81,81,,,,,,,,,1,1.11577147814,2,0.300467757237,,,,,2018_jun._15_1500,60.0777477804,Experimento Piloto1,001,137,
0.25,Stim\\03_019.jpg,Tr19_29,Tristeza,29,Miriam mira la película.,Afirmación,Tr19,19,,,,,,,,,0,82,82,82,,,,,,,,,1,1.21764500608,2,0.383856350958,,,,,2018_jun._15_1500,60.0777477804,Experimento Piloto1,001,137,
2.5,Stim\\05_075.jpg,En75_27,Enojo,27,Claudia informa los avances en el reporte.,Afirmación,En75,75,,,,,,,,,0,83,83,83,,,,,,,,,1,1.06741826743,2,0.600209022599,,,,,2018_jun._15_1500,60.0777477804,Experimento Piloto1,001,137,
0.25,Stim\\05_019.jpg,En19_25,Enojo,25,Luis decide la comida siguiente.,Afirmación,En19,19,,,,,,,,,0,84,84,84,,,,,,,,,1,1.45766846088,2,0.249925699694,,,,,2018_jun._15_1500,60.0777477804,Experimento Piloto1,001,137,
2.5,Stim\\03_028.jpg,Tr28_20,Tristeza,20,Karen analiza la idea.,Afirmación,Tr28,28,,,,,,,,,0,85,85,85,,,,,,,,,1,0.86945503292,4,0.283889194816,,,,,2018_jun._15_1500,60.0777477804,Experimento Piloto1,001,137,
2.5,Stim\\05_028.jpg,En28_26,Enojo,26,Víctor trae el café a Marco.,Afirmación,En28,28,,,,,,,,,0,86,86,86,,,,,,,,,1,0.666735686369,2,0.183778793042,,,,,2018_jun._15_1500,60.0777477804,Experimento Piloto1,001,137,
0.25,Stim\\05_028.jpg,En28_21,Enojo,21,Mauro anuncia la actividad.,Afirmación,En28,28,,,,,,,,,0,87,87,87,,,,,,,,,1,0.747844844898,2,0.250820427096,,,,,2018_jun._15_1500,60.0777477804,Experimento Piloto1,001,137,
0.25,Stim\\03_075.jpg,Tr75_22,Tristeza,22,Enrique corre todas las mañanas.,Afirmación,Tr75,75,,,,,,,,,0,88,88,88,,,,,,,,,1,1.15954082858,3,0.183357534854,,,,,2018_jun._15_1500,60.0777477804,Experimento Piloto1,001,137,
0.25,Stim\\05_028.jpg,En28_27,Enojo,27,Claudia informa los avances en el reporte.,Afirmación,En28,28,,,,,,,,,0,89,89,89,,,,,,,,,1,1.10485580386,2,0.133520995527,,,,,2018_jun._15_1500,60.0777477804,Experimento Piloto1,001,137,
2.5,Stim\\03_075.jpg,Tr75_22,Tristeza,22,Enrique corre todas las mañanas.,Afirmación,Tr75,75,,,,,,,,,0,90,90,90,,,,,,,,,1,0.714228977029,3,0.184824352293,,,,,2018_jun._15_1500,60.0777477804,Experimento Piloto1,001,137,
0.25,Stim\\05_019.jpg,En19_28,Enojo,28,Antonio responde la pregunta.,Afirmación,En19,19,,,,,,,,,0,91,91,91,,,,,,,,,1,0.769693597142,4,1.93290660117,,,,,2018_jun._15_1500,60.0777477804,Experimento Piloto1,001,137,
2.5,Stim\\03_019.jpg,Tr19_17,Tristeza,17,Brenda sube el autobús en las mañanas.,Afirmación,Tr19,19,,,,,,,,,0,92,92,92,,,,,,,,,1,1.00333615065,3,0.300182158466,,,,,2018_jun._15_1500,60.0777477804,Experimento Piloto1,001,137,
0.25,Stim\\05_028.jpg,En28_29,Enojo,29,Miriam mira la película.,Afirmación,En28,28,,,,,,,,,0,93,93,93,,,,,,,,,1,0.80743993724,3,0.45011303464,,,,,2018_jun._15_1500,60.0777477804,Experimento Piloto1,001,137,
0.25,Stim\\05_028.jpg,En28_18,Enojo,18,Sofía escucha la música.,Afirmación,En28,28,,,,,,,,,0,94,94,94,,,,,,,,,1,0.903608629726,2,2.7493558409,,,,,2018_jun._15_1500,60.0777477804,Experimento Piloto1,001,137,
0.25,Stim\\05_028.jpg,En28_25,Enojo,25,Luis decide la comida siguiente.,Afirmación,En28,28,,,,,,,,,0,95,95,95,,,,,,,,,1,1.87456501968,2,0.0836666062751,,,,,2018_jun._15_1500,60.0777477804,Experimento Piloto1,001,137,
2.5,Stim\\03_075.jpg,Tr75_16,Tristeza,16,Valeria modifica algunas imágenes.,Afirmación,Tr75,75,,,,,,,,,0,96,96,96,,,,,,,,,1,0.862991575728,4,0.550252888788,,,,,2018_jun._15_1500,60.0777477804,Experimento Piloto1,001,137,
2.5,Stim\\05_019.jpg,En19_18,Enojo,18,Sofía escucha la música.,Afirmación,En19,19,,,,,,,,,0,97,97,97,,,,,,,,,1,1.48447592179,3,0.850037440214,,,,,2018_jun._15_1500,60.0777477804,Experimento Piloto1,001,137,
0.25,Stim\\05_075.jpg,En75_28,Enojo,28,Antonio responde la pregunta.,Afirmación,En75,75,,,,,,,,,0,98,98,98,,,,,,,,,1,2.28147990143,3,0.900320673871,,,,,2018_jun._15_1500,60.0777477804,Experimento Piloto1,001,137,
0.25,Stim\\03_019.jpg,Tr19_24,Tristeza,24,Guadalupe comenta los resultados con los compañeros.,Afirmación,Tr19,19,,,,,,,,,0,99,99,99,,,,,,,,,1,2.13919280862,2,1.05036846704,,,,,2018_jun._15_1500,60.0777477804,Experimento Piloto1,001,137,
0.25,Stim\\02_075.jpg,Al75_21,Alegría,21,Mauro anuncia la actividad.,Afirmación,Al75,75,,,,,,,,,0,100,100,100,,,,,,,,,1,0.967571598272,2,0.701336869999,,,,,2018_jun._15_1500,60.0777477804,Experimento Piloto1,001,137,
0.25,Stim\\03_019.jpg,Tr19_23,Tristeza,23,Óscar consigue un nuevo departamento.,Afirmación,Tr19,19,,,,,,,,,0,101,101,101,,,,,,,,,1,2.04032253026,3,0.750593733072,,,,,2018_jun._15_1500,60.0777477804,Experimento Piloto1,001,137,
2.5,Stim\\05_028.jpg,En28_30,Enojo,30,Marisol toma 2 litros de agua cada día.,Afirmación,En28,28,,,,,,,,,0,102,102,102,,,,,,,,,1,0.907598087559,3,0.800627514049,,,,,2018_jun._15_1500,60.0777477804,Experimento Piloto1,001,137,
0.25,Stim\\02_078.jpg,Al78_19,Alegría,19,Armando acompaña a Rodrígo a la tienda.,Afirmación,Al78,78,,,,,,,,,0,103,103,103,,,,,,,,,1,1.40440250506,3,0.550804451414,,,,,2018_jun._15_1500,60.0777477804,Experimento Piloto1,001,137,
2.5,Stim\\03_075.jpg,Tr75_25,Tristeza,25,Luis decide la comida siguiente.,Afirmación,Tr75,75,,,,,,,,,0,104,104,104,,,,,,,,,1,0.858604957102,4,1.48268780574,,,,,2018_jun._15_1500,60.0777477804,Experimento Piloto1,001,137,
2.5,Stim\\03_028.jpg,Tr28_29,Tristeza,29,Miriam mira la película.,Afirmación,Tr28,28,,,,,,,,,0,105,105,105,,,,,,,,,1,0.791997968678,3,0.716418270111,,,,,2018_jun._15_1500,60.0777477804,Experimento Piloto1,001,137,
0.25,Stim\\03_028.jpg,Tr28_24,Tristeza,24,Guadalupe comenta los resultados con los compañeros.,Afirmación,Tr28,28,,,,,,,,,0,106,106,106,,,,,,,,,1,2.16036237129,4,1.11652162117,,,,,2018_jun._15_1500,60.0777477804,Experimento Piloto1,001,137,
0.25,Stim\\02_075.jpg,Al75_30,Alegría,30,Marisol toma 2 litros de agua cada día.,Afirmación,Al75,75,,,,,,,,,0,107,107,107,,,,,,,,,1,1.15198718733,3,0.399545540955,,,,,2018_jun._15_1500,60.0777477804,Experimento Piloto1,001,137,
2.5,Stim\\05_019.jpg,En19_27,Enojo,27,Claudia informa los avances en el reporte.,Afirmación,En19,19,,,,,,,,,0,108,108,108,,,,,,,,,1,0.692423957096,3,0.650310633289,,,,,2018_jun._15_1500,60.0777477804,Experimento Piloto1,001,137,
2.5,Stim\\05_075.jpg,En75_18,Enojo,18,Sofía escucha la música.,Afirmación,En75,75,,,,,,,,,0,109,109,109,,,,,,,,,1,0.867738762805,3,0.200215448573,,,,,2018_jun._15_1500,60.0777477804,Experimento Piloto1,001,137,
2.5,Stim\\02_028.jpg,Al28_23,Alegría,23,Óscar consigue un nuevo departamento.,Afirmación,Al28,28,,,,,,,,,0,110,110,110,,,,,,,,,1,0.685243825488,3,0.55079374146,,,,,2018_jun._15_1500,60.0777477804,Experimento Piloto1,001,137,
2.5,Stim\\05_078.jpg,En78_29,Enojo,29,Miriam mira la película.,Afirmación,En78,78,,,,,,,,,0,111,111,111,,,,,,,,,1,1.17164575399,3,0.433783924895,,,,,2018_jun._15_1500,60.0777477804,Experimento Piloto1,001,137,
0.25,Stim\\03_078.jpg,Tr78_20,Tristeza,20,Karen analiza la idea.,Afirmación,Tr78,78,,,,,,,,,0,112,112,112,,,,,,,,,1,1.06292008679,3,0.967314559379,,,,,2018_jun._15_1500,60.0777477804,Experimento Piloto1,001,137,
0.25,Stim\\02_019.jpg,Al19_25,Alegría,25,Luis decide la comida siguiente.,Afirmación,Al19,19,,,,,,,,,0,113,113,113,,,,,,,,,1,0.544410608923,3,0.384077243758,,,,,2018_jun._15_1500,60.0777477804,Experimento Piloto1,001,137,
2.5,Stim\\03_078.jpg,Tr78_16,Tristeza,16,Valeria modifica algunas imágenes.,Afirmación,Tr78,78,,,,,,,,,0,114,114,114,,,,,,,,,1,1.02817521128,4,0.484166671873,,,,,2018_jun._15_1500,60.0777477804,Experimento Piloto1,001,137,
0.25,Stim\\02_028.jpg,Al28_21,Alegría,21,Mauro anuncia la actividad.,Afirmación,Al28,28,,,,,,,,,0,115,115,115,,,,,,,,,1,0.867474137693,3,0.400977104797,,,,,2018_jun._15_1500,60.0777477804,Experimento Piloto1,001,137,
2.5,Stim\\05_019.jpg,En19_30,Enojo,30,Marisol toma 2 litros de agua cada día.,Afirmación,En19,19,,,,,,,,,0,116,116,116,,,,,,,,,1,0.808153934167,3,0.383370833048,,,,,2018_jun._15_1500,60.0777477804,Experimento Piloto1,001,137,
0.25,Stim\\05_078.jpg,En78_26,Enojo,26,Víctor trae el café a Marco.,Afirmación,En78,78,,,,,,,,,0,117,117,117,,,,,,,,,1,0.544009878147,2,0.450650317327,,,,,2018_jun._15_1500,60.0777477804,Experimento Piloto1,001,137,
0.25,Stim\\02_078.jpg,Al78_21,Alegría,21,Mauro anuncia la actividad.,Afirmación,Al78,78,,,,,,,,,0,118,118,118,,,,,,,,,1,0.699524210297,3,0.350397562415,,,,,2018_jun._15_1500,60.0777477804,Experimento Piloto1,001,137,
0.25,Stim\\03_075.jpg,Tr75_30,Tristeza,30,Marisol toma 2 litros de agua cada día.,Afirmación,Tr75,75,,,,,,,,,0,119,119,119,,,,,,,,,1,0.647557728884,4,0.301219685252,,,,,2018_jun._15_1500,60.0777477804,Experimento Piloto1,001,137,
2.5,Stim\\03_019.jpg,Tr19_16,Tristeza,16,Valeria modifica algunas imágenes.,Afirmación,Tr19,19,,,,,,,,,,,,,0,0,0,0,,,,,,,,,1,1.04651020614,3,0.284261365716,2018_jun._15_1500,60.0777477804,Experimento Piloto1,001,137,
2.5,Stim\\05_078.jpg,En78_19,Enojo,19,Armando acompaña a Rodrígo a la tienda.,Afirmación,En78,78,,,,,,,,,,,,,0,1,1,1,,,,,,,,,1,0.808572961114,2,0.967906730582,2018_jun._15_1500,60.0777477804,Experimento Piloto1,001,137,
2.5,Stim\\02_075.jpg,Al75_21,Alegría,21,Mauro anuncia la actividad.,Afirmación,Al75,75,,,,,,,,,,,,,0,2,2,2,,,,,,,,,1,1.0141884577,3,0.299744835349,2018_jun._15_1500,60.0777477804,Experimento Piloto1,001,137,
0.25,Stim\\02_075.jpg,Al75_16,Alegría,16,Valeria modifica algunas imágenes.,Afirmación,Al75,75,,,,,,,,,,,,,0,3,3,3,,,,,,,,,1,0.742126622001,3,0.133832030438,2018_jun._15_1500,60.0777477804,Experimento Piloto1,001,137,
0.25,Stim\\05_078.jpg,En78_30,Enojo,30,Marisol toma 2 litros de agua cada día.,Afirmación,En78,78,,,,,,,,,,,,,0,4,4,4,,,,,,,,,1,0.8483555312,2,0.333465571513,2018_jun._15_1500,60.0777477804,Experimento Piloto1,001,137,
0.25,Stim\\02_019.jpg,Al19_22,Alegría,22,Enrique corre todas las mañanas.,Afirmación,Al19,19,,,,,,,,,,,,,0,5,5,5,,,,,,,,,1,0.563075827367,3,0.0842145989172,2018_jun._15_1500,60.0777477804,Experimento Piloto1,001,137,
2.5,Stim\\05_028.jpg,En28_23,Enojo,23,Óscar consigue un nuevo departamento.,Afirmación,En28,28,,,,,,,,,,,,,0,6,6,6,,,,,,,,,1,0.908382145435,3,0.283227408914,2018_jun._15_1500,60.0777477804,Experimento Piloto1,001,137,
0.25,Stim\\03_019.jpg,Tr19_16,Tristeza,16,Valeria modifica algunas imágenes.,Afirmación,Tr19,19,,,,,,,,,,,,,0,7,7,7,,,,,,,,,1,0.441487059252,3,0.400218483059,2018_jun._15_1500,60.0777477804,Experimento Piloto1,001,137,
0.25,Stim\\02_078.jpg,Al78_17,Alegría,17,Brenda sube el autobús en las mañanas.,Afirmación,Al78,78,,,,,,,,,,,,,0,8,8,8,,,,,,,,,1,0.840236939881,3,0.200177517487,2018_jun._15_1500,60.0777477804,Experimento Piloto1,001,137,
0.25,Stim\\02_078.jpg,Al78_16,Alegría,16,Valeria modifica algunas imágenes.,Afirmación,Al78,78,,,,,,,,,,,,,0,9,9,9,,,,,,,,,1,0.544952354094,3,0.18360252505,2018_jun._15_1500,60.0777477804,Experimento Piloto1,001,137,
0.25,Stim\\05_075.jpg,En75_22,Enojo,22,Enrique corre todas las mañanas.,Afirmación,En75,75,,,,,,,,,,,,,0,10,10,10,,,,,,,,,1,0.343386112581,2,0.550421570562,2018_jun._15_1500,60.0777477804,Experimento Piloto1,001,137,
0.25,Stim\\02_028.jpg,Al28_26,Alegría,26,Víctor trae el café a Marco.,Afirmación,Al28,28,,,,,,,,,,,,,0,11,11,11,,,,,,,,,1,0.553031675581,2,0.284943679031,2018_jun._15_1500,60.0777477804,Experimento Piloto1,001,137,
2.5,Stim\\03_075.jpg,Tr75_28,Tristeza,28,Antonio responde la pregunta.,Afirmación,Tr75,75,,,,,,,,,,,,,0,12,12,12,,,,,,,,,1,0.804498269896,4,0.251023023724,2018_jun._15_1500,60.0777477804,Experimento Piloto1,001,137,
0.25,Stim\\05_075.jpg,En75_23,Enojo,23,Óscar consigue un nuevo departamento.,Afirmación,En75,75,,,,,,,,,,,,,0,13,13,13,,,,,,,,,1,1.05946211041,2,0.233807665294,2018_jun._15_1500,60.0777477804,Experimento Piloto1,001,137,
2.5,Stim\\02_078.jpg,Al78_28,Alegría,28,Antonio responde la pregunta.,Afirmación,Al78,78,,,,,,,,,,,,,0,14,14,14,,,,,,,,,1,0.561324303651,3,0.183855547712,2018_jun._15_1500,60.0777477804,Experimento Piloto1,001,137,
2.5,Stim\\02_028.jpg,Al28_18,Alegría,18,Sofía escucha la música.,Afirmación,Al28,28,,,,,,,,,,,,,0,15,15,15,,,,,,,,,1,1.73115204297,3,0.200474272458,2018_jun._15_1500,60.0777477804,Experimento Piloto1,001,137,
2.5,Stim\\02_019.jpg,Al19_22,Alegría,22,Enrique corre todas las mañanas.,Afirmación,Al19,19,,,,,,,,,,,,,0,16,16,16,,,,,,,,,1,0.497213180741,2,0.500847871352,2018_jun._15_1500,60.0777477804,Experimento Piloto1,001,137,
2.5,Stim\\05_028.jpg,En28_28,Enojo,28,Antonio responde la pregunta.,Afirmación,En28,28,,,,,,,,,,,,,0,17,17,17,,,,,,,,,1,0.647265882639,3,0.818032974163,2018_jun._15_1500,60.0777477804,Experimento Piloto1,001,137,
0.25,Stim\\03_078.jpg,Tr78_30,Tristeza,30,Marisol toma 2 litros de agua cada día.,Afirmación,Tr78,78,,,,,,,,,,,,,0,18,18,18,,,,,,,,,1,1.00568609303,3,0.534295949941,2018_jun._15_1500,60.0777477804,Experimento Piloto1,001,137,
0.25,Stim\\03_019.jpg,Tr19_20,Tristeza,20,Karen analiza la idea.,Afirmación,Tr19,19,,,,,,,,,,,,,0,19,19,19,,,,,,,,,1,0.620075987123,3,0.750045740428,2018_jun._15_1500,60.0777477804,Experimento Piloto1,001,137,
0.25,Stim\\05_028.jpg,En28_19,Enojo,19,Armando acompaña a Rodrígo a la tienda.,Afirmación,En28,28,,,,,,,,,,,,,0,20,20,20,,,,,,,,,1,0.64712397575,3,0.600761031475,2018_jun._15_1500,60.0777477804,Experimento Piloto1,001,137,
0.25,Stim\\05_019.jpg,En19_26,Enojo,26,Víctor trae el café a Marco.,Afirmación,En19,19,,,,,,,,,,,,,0,21,21,21,,,,,,,,,1,0.749919452221,2,0.19997447461,2018_jun._15_1500,60.0777477804,Experimento Piloto1,001,137,
0.25,Stim\\02_028.jpg,Al28_16,Alegría,16,Valeria modifica algunas imágenes.,Afirmación,Al28,28,,,,,,,,,,,,,0,22,22,22,,,,,,,,,1,0.636891507274,3,0.400011870199,2018_jun._15_1500,60.0777477804,Experimento Piloto1,001,137,
2.5,Stim\\02_075.jpg,Al75_17,Alegría,17,Brenda sube el autobús en las mañanas.,Afirmación,Al75,75,,,,,,,,,,,,,0,23,23,23,,,,,,,,,1,0.954377381291,2,0.133865052796,2018_jun._15_1500,60.0777477804,Experimento Piloto1,001,137,
2.5,Stim\\05_075.jpg,En75_30,Enojo,30,Marisol toma 2 litros de agua cada día.,Afirmación,En75,75,,,,,,,,,,,,,0,24,24,24,,,,,,,,,1,1.32003395055,2,0.650187468818,2018_jun._15_1500,60.0777477804,Experimento Piloto1,001,137,
2.5,Stim\\03_075.jpg,Tr75_27,Tristeza,27,Claudia informa los avances en el reporte.,Afirmación,Tr75,75,,,,,,,,,,,,,0,25,25,25,,,,,,,,,1,1.1343179946,3,0.183590030105,2018_jun._15_1500,60.0777477804,Experimento Piloto1,001,137,
2.5,Stim\\03_028.jpg,Tr28_24,Tristeza,24,Guadalupe comenta los resultados con los compañeros.,Afirmación,Tr28,28,,,,,,,,,,,,,0,26,26,26,,,,,,,,,1,0.489690776856,3,0.183622159966,2018_jun._15_1500,60.0777477804,Experimento Piloto1,001,137,
0.25,Stim\\05_028.jpg,En28_24,Enojo,24,Guadalupe comenta los resultados con los compañeros.,Afirmación,En28,28,,,,,,,,,,,,,0,27,27,27,,,,,,,,,1,0.517502742194,2,0.700466239994,2018_jun._15_1500,60.0777477804,Experimento Piloto1,001,137,
0.25,Stim\\03_028.jpg,Tr28_17,Tristeza,17,Brenda sube el autobús en las mañanas.,Afirmación,Tr28,28,,,,,,,,,,,,,0,28,28,28,,,,,,,,,1,0.555266485966,4,0.233954927158,2018_jun._15_1500,60.0777477804,Experimento Piloto1,001,137,
0.25,Stim\\02_028.jpg,Al28_28,Alegría,28,Antonio responde la pregunta.,Afirmación,Al28,28,,,,,,,,,,,,,0,29,29,29,,,,,,,,,1,0.70008157415,3,0.300470434726,2018_jun._15_1500,60.0777477804,Experimento Piloto1,001,137,
2.5,Stim\\02_028.jpg,Al28_24,Alegría,24,Guadalupe comenta los resultados con los compañeros.,Afirmación,Al28,28,,,,,,,,,,,,,0,30,30,30,,,,,,,,,1,0.799490473943,3,0.0837094460894,2018_jun._15_1500,60.0777477804,Experimento Piloto1,001,137,
0.25,Stim\\02_078.jpg,Al78_29,Alegría,29,Miriam mira la película.,Afirmación,Al78,78,,,,,,,,,,,,,0,31,31,31,,,,,,,,,1,0.453014539655,3,0.700468471236,2018_jun._15_1500,60.0777477804,Experimento Piloto1,001,137,
0.25,Stim\\05_078.jpg,En78_19,Enojo,19,Armando acompaña a Rodrígo a la tienda.,Afirmación,En78,78,,,,,,,,,,,,,0,32,32,32,,,,,,,,,1,0.486650488685,2,0.283816902627,2018_jun._15_1500,60.0777477804,Experimento Piloto1,001,137,
0.25,Stim\\03_019.jpg,Tr19_21,Tristeza,21,Mauro anuncia la actividad.,Afirmación,Tr19,19,,,,,,,,,,,,,0,33,33,33,,,,,,,,,1,0.615863405248,3,0.183901957511,2018_jun._15_1500,60.0777477804,Experimento Piloto1,001,137,
0.25,Stim\\02_028.jpg,Al28_25,Alegría,25,Luis decide la comida siguiente.,Afirmación,Al28,28,,,,,,,,,,,,,0,34,34,34,,,,,,,,,1,0.910242107433,3,0.184009057051,2018_jun._15_1500,60.0777477804,Experimento Piloto1,001,137,
2.5,Stim\\03_078.jpg,Tr78_26,Tristeza,26,Víctor trae el café a Marco.,Afirmación,Tr78,78,,,,,,,,,,,,,0,35,35,35,,,,,,,,,1,1.99930786923,4,0.183957738522,2018_jun._15_1500,60.0777477804,Experimento Piloto1,001,137,
2.5,Stim\\05_078.jpg,En78_20,Enojo,20,Karen analiza la idea.,Afirmación,En78,78,,,,,,,,,,,,,0,36,36,36,,,,,,,,,1,1.06850354276,2,0.150104466675,2018_jun._15_1500,60.0777477804,Experimento Piloto1,001,137,
2.5,Stim\\02_078.jpg,Al78_23,Alegría,23,Óscar consigue un nuevo departamento.,Afirmación,Al78,78,,,,,,,,,,,,,0,37,37,37,,,,,,,,,1,1.2053816626,4,0.233813912766,2018_jun._15_1500,60.0777477804,Experimento Piloto1,001,137,
0.25,Stim\\03_078.jpg,Tr78_21,Tristeza,21,Mauro anuncia la actividad.,Afirmación,Tr78,78,,,,,,,,,,,,,0,38,38,38,,,,,,,,,1,0.807158354703,3,0.133741888327,2018_jun._15_1500,60.0777477804,Experimento Piloto1,001,137,
2.5,Stim\\03_075.jpg,Tr75_18,Tristeza,18,Sofía escucha la música.,Afirmación,Tr75,75,,,,,,,,,,,,,0,39,39,39,,,,,,,,,1,0.6196516052,2,0.184108124124,2018_jun._15_1500,60.0777477804,Experimento Piloto1,001,137,
2.5,Stim\\03_019.jpg,Tr19_19,Tristeza,19,Armando acompaña a Rodrígo a la tienda.,Afirmación,Tr19,19,,,,,,,,,,,,,0,40,40,40,,,,,,,,,1,0.958311058117,3,0.300867595517,2018_jun._15_1500,60.0777477804,Experimento Piloto1,001,137,
0.25,Stim\\03_019.jpg,Tr19_17,Tristeza,17,Brenda sube el autobús en las mañanas.,Afirmación,Tr19,19,,,,,,,,,,,,,0,41,41,41,,,,,,,,,1,1.00348162752,3,0.133767770714,2018_jun._15_1500,60.0777477804,Experimento Piloto1,001,137,
2.5,Stim\\05_078.jpg,En78_18,Enojo,18,Sofía escucha la música.,Afirmación,En78,78,,,,,,,,,,,,,0,42,42,42,,,,,,,,,1,0.7690991947,3,0.134189921399,2018_jun._15_1500,60.0777477804,Experimento Piloto1,001,137,
0.25,Stim\\05_019.jpg,En19_24,Enojo,24,Guadalupe comenta los resultados con los compañeros.,Afirmación,En19,19,,,,,,,,,,,,,0,43,43,43,,,,,,,,,1,0.998925434622,2,0.183819847865,2018_jun._15_1500,60.0777477804,Experimento Piloto1,001,137,
0.25,Stim\\02_075.jpg,Al75_20,Alegría,20,Karen analiza la idea.,Afirmación,Al75,75,,,,,,,,,,,,,0,44,44,44,,,,,,,,,1,0.60398160387,3,0.149912133753,2018_jun._15_1500,60.0777477804,Experimento Piloto1,001,137,
0.25,Stim\\03_075.jpg,Tr75_23,Tristeza,23,Óscar consigue un nuevo departamento.,Afirmación,Tr75,75,,,,,,,,,,,,,0,45,45,45,,,,,,,,,1,0.543075434667,2,0.48400959255,2018_jun._15_1500,60.0777477804,Experimento Piloto1,001,137,
0.25,Stim\\05_078.jpg,En78_16,Enojo,16,Valeria modifica algunas imágenes.,Afirmación,En78,78,,,,,,,,,,,,,0,46,46,46,,,,,,,,,1,0.487746473971,3,0.250509392185,2018_jun._15_1500,60.0777477804,Experimento Piloto1,001,137,
2.5,Stim\\02_019.jpg,Al19_20,Alegría,20,Karen analiza la idea.,Afirmación,Al19,19,,,,,,,,,,,,,0,47,47,47,,,,,,,,,1,0.820884499395,3,0.133842740392,2018_jun._15_1500,60.0777477804,Experimento Piloto1,001,137,
0.25,Stim\\03_075.jpg,Tr75_28,Tristeza,28,Antonio responde la pregunta.,Afirmación,Tr75,75,,,,,,,,,,,,,0,48,48,48,,,,,,,,,1,0.861360092749,3,0.433657190439,2018_jun._15_1500,60.0777477804,Experimento Piloto1,001,137,
0.25,Stim\\05_078.jpg,En78_25,Enojo,25,Luis decide la comida siguiente.,Afirmación,En78,78,,,,,,,,,,,,,0,49,49,49,,,,,,,,,1,0.810477101673,2,1.16701459142,2018_jun._15_1500,60.0777477804,Experimento Piloto1,001,137,
2.5,Stim\\03_019.jpg,Tr19_23,Tristeza,23,Óscar consigue un nuevo departamento.,Afirmación,Tr19,19,,,,,,,,,,,,,0,50,50,50,,,,,,,,,1,0.958828259641,3,0.284093130189,2018_jun._15_1500,60.0777477804,Experimento Piloto1,001,137,
2.5,Stim\\03_075.jpg,Tr75_24,Tristeza,24,Guadalupe comenta los resultados con los compañeros.,Afirmación,Tr75,75,,,,,,,,,,,,,0,51,51,51,,,,,,,,,1,1.31362136565,2,0.234055779225,2018_jun._15_1500,60.0777477804,Experimento Piloto1,001,137,
0.25,Stim\\02_078.jpg,Al78_20,Alegría,20,Karen analiza la idea.,Afirmación,Al78,78,,,,,,,,,,,,,0,52,52,52,,,,,,,,,1,0.40296112376,3,0.350862552914,2018_jun._15_1500,60.0777477804,Experimento Piloto1,001,137,
2.5,Stim\\02_078.jpg,Al78_30,Alegría,30,Marisol toma 2 litros de agua cada día.,Afirmación,Al78,78,,,,,,,,,,,,,0,53,53,53,,,,,,,,,1,3.66905394515,3,0.1829634978,2018_jun._15_1500,60.0777477804,Experimento Piloto1,001,137,
2.5,Stim\\03_028.jpg,Tr28_27,Tristeza,27,Claudia informa los avances en el reporte.,Afirmación,Tr28,28,,,,,,,,,,,,,0,54,54,54,,,,,,,,,1,1.12501193714,4,0.183843499013,2018_jun._15_1500,60.0777477804,Experimento Piloto1,001,137,
2.5,Stim\\02_075.jpg,Al75_28,Alegría,28,Antonio responde la pregunta.,Afirmación,Al75,75,,,,,,,,,,,,,0,55,55,55,,,,,,,,,1,0.693307528294,3,0.233775981678,2018_jun._15_1500,60.0777477804,Experimento Piloto1,001,137,
2.5,Stim\\03_078.jpg,Tr78_28,Tristeza,28,Antonio responde la pregunta.,Afirmación,Tr78,78,,,,,,,,,,,,,0,56,56,56,,,,,,,,,1,1.6013366915,2,1.68242443012,2018_jun._15_1500,60.0777477804,Experimento Piloto1,001,137,
0.25,Stim\\03_028.jpg,Tr28_19,Tristeza,19,Armando acompaña a Rodrígo a la tienda.,Afirmación,Tr28,28,,,,,,,,,,,,,0,57,57,57,,,,,,,,,1,1.11458311951,4,0.234039714294,2018_jun._15_1500,60.0777477804,Experimento Piloto1,001,137,
2.5,Stim\\05_078.jpg,En78_21,Enojo,21,Mauro anuncia la actividad.,Afirmación,En78,78,,,,,,,,,,,,,0,58,58,58,,,,,,,,,1,0.716894863059,2,0.33356419234,2018_jun._15_1500,60.0777477804,Experimento Piloto1,001,137,
0.25,Stim\\05_028.jpg,En28_17,Enojo,17,Brenda sube el autobús en las mañanas.,Afirmación,En28,28,,,,,,,,,,,,,0,59,59,59,,,,,,,,,1,1.82765676026,3,0.3004878384,2018_jun._15_1500,60.0777477804,Experimento Piloto1,001,137,
0.25,Stim\\03_075.jpg,Tr75_20,Tristeza,20,Karen analiza la idea.,Afirmación,Tr75,75,,,,,,,,,,,,,0,60,60,60,,,,,,,,,1,0.754201202548,4,0.200456422537,2018_jun._15_1500,60.0777477804,Experimento Piloto1,001,137,
2.5,Stim\\03_078.jpg,Tr78_21,Tristeza,21,Mauro anuncia la actividad.,Afirmación,Tr78,78,,,,,,,,,,,,,0,61,61,61,,,,,,,,,1,0.700272568329,4,0.100873039743,2018_jun._15_1500,60.0777477804,Experimento Piloto1,001,137,
0.25,Stim\\05_075.jpg,En75_17,Enojo,17,Brenda sube el autobús en las mañanas.,Afirmación,En75,75,,,,,,,,,,,,,0,62,62,62,,,,,,,,,1,1.10502537813,3,0.601236731929,2018_jun._15_1500,60.0777477804,Experimento Piloto1,001,137,
0.25,Stim\\03_019.jpg,Tr19_26,Tristeza,26,Víctor trae el café a Marco.,Afirmación,Tr19,19,,,,,,,,,,,,,0,63,63,63,,,,,,,,,1,0.44692146837,3,0.799300818508,2018_jun._15_1500,60.0777477804,Experimento Piloto1,001,137,
0.25,Stim\\05_019.jpg,En19_30,Enojo,30,Marisol toma 2 litros de agua cada día.,Afirmación,En19,19,,,,,,,,,,,,,0,64,64,64,,,,,,,,,1,0.839291786448,2,0.250528580851,2018_jun._15_1500,60.0777477804,Experimento Piloto1,001,137,
0.25,Stim\\02_019.jpg,Al19_27,Alegría,27,Claudia informa los avances en el reporte.,Afirmación,Al19,19,,,,,,,,,,,,,0,65,65,65,,,,,,,,,1,0.509279282576,3,0.1839974546,2018_jun._15_1500,60.0777477804,Experimento Piloto1,001,137,
0.25,Stim\\05_028.jpg,En28_23,Enojo,23,Óscar consigue un nuevo departamento.,Afirmación,En28,28,,,,,,,,,,,,,0,66,66,66,,,,,,,,,1,0.901575523472,3,0.398845823966,2018_jun._15_1500,60.0777477804,Experimento Piloto1,001,137,
0.25,Stim\\05_019.jpg,En19_18,Enojo,18,Sofía escucha la música.,Afirmación,En19,19,,,,,,,,,,,,,0,67,67,67,,,,,,,,,1,0.457175803002,2,0.283638403396,2018_jun._15_1500,60.0777477804,Experimento Piloto1,001,137,
0.25,Stim\\05_075.jpg,En75_25,Enojo,25,Luis decide la comida siguiente.,Afirmación,En75,75,,,,,,,,,,,,,0,68,68,68,,,,,,,,,1,0.597509667965,3,0.300353071481,2018_jun._15_1500,60.0777477804,Experimento Piloto1,001,137,
0.25,Stim\\03_078.jpg,Tr78_16,Tristeza,16,Valeria modifica algunas imágenes.,Afirmación,Tr78,78,,,,,,,,,,,,,0,69,69,69,,,,,,,,,1,0.551385912662,4,0.284001203087,2018_jun._15_1500,60.0777477804,Experimento Piloto1,001,137,
0.25,Stim\\05_019.jpg,En19_27,Enojo,27,Claudia informa los avances en el reporte.,Afirmación,En19,19,,,,,,,,,,,,,0,70,70,70,,,,,,,,,1,0.439080443357,2,0.249785131549,2018_jun._15_1500,60.0777477804,Experimento Piloto1,001,137,
0.25,Stim\\05_075.jpg,En75_30,Enojo,30,Marisol toma 2 litros de agua cada día.,Afirmación,En75,75,,,,,,,,,,,,,0,71,71,71,,,,,,,,,1,0.440016671828,2,0.283699093136,2018_jun._15_1500,60.0777477804,Experimento Piloto1,001,137,
2.5,Stim\\02_028.jpg,Al28_16,Alegría,16,Valeria modifica algunas imágenes.,Afirmación,Al28,28,,,,,,,,,,,,,0,72,72,72,,,,,,,,,1,0.553477031164,3,0.0841574791611,2018_jun._15_1500,60.0777477804,Experimento Piloto1,001,137,
0.25,Stim\\05_075.jpg,En75_29,Enojo,29,Miriam mira la película.,Afirmación,En75,75,,,,,,,,,,,,,0,73,73,73,,,,,,,,,1,0.503869863351,2,0.133686553563,2018_jun._15_1500,60.0777477804,Experimento Piloto1,001,137,
2.5,Stim\\02_028.jpg,Al28_28,Alegría,28,Antonio responde la pregunta.,Afirmación,Al28,28,,,,,,,,,,,,,0,74,74,74,,,,,,,,,1,0.762843689115,3,0.183593600088,2018_jun._15_1500,60.0777477804,Experimento Piloto1,001,137,
2.5,Stim\\03_019.jpg,Tr19_28,Tristeza,28,Antonio responde la pregunta.,Afirmación,Tr19,19,,,,,,,,,,,,,0,75,75,75,,,,,,,,,1,0.484010485045,3,0.183889016318,2018_jun._15_1500,60.0777477804,Experimento Piloto1,001,137,
0.25,Stim\\02_028.jpg,Tr28_30,Tristeza,30,Marisol toma 2 litros de agua cada día.,Afirmación,Tr28,28,,,,,,,,,,,,,0,76,76,76,,,,,,,,,1,0.54086918416,3,0.183404837151,2018_jun._15_1500,60.0777477804,Experimento Piloto1,001,137,
2.5,Stim\\02_075.jpg,Al75_27,Alegría,27,Claudia informa los avances en el reporte.,Afirmación,Al75,75,,,,,,,,,,,,,0,77,77,77,,,,,,,,,1,0.0357159113319,3,0.250348296626,2018_jun._15_1500,60.0777477804,Experimento Piloto1,001,137,
2.5,Stim\\02_075.jpg,Al75_20,Alegría,20,Karen analiza la idea.,Afirmación,Al75,75,,,,,,,,,,,,,0,78,78,78,,,,,,,,,1,0.754410046651,3,0.150623006946,2018_jun._15_1500,60.0777477804,Experimento Piloto1,001,137,
2.5,Stim\\05_019.jpg,En19_28,Enojo,28,Antonio responde la pregunta.,Afirmación,En19,19,,,,,,,,,,,,,0,79,79,79,,,,,,,,,1,0.500027667382,3,0.134268907308,2018_jun._15_1500,60.0777477804,Experimento Piloto1,001,137,
2.5,Stim\\02_078.jpg,Al78_21,Alegría,21,Mauro anuncia la actividad.,Afirmación,Al78,78,,,,,,,,,,,,,0,80,80,80,,,,,,,,,1,0.55889359036,2,0.0845559786976,2018_jun._15_1500,60.0777477804,Experimento Piloto1,001,137,
2.5,Stim\\03_078.jpg,Tr78_19,Tristeza,19,Armando acompaña a Rodrígo a la tienda.,Afirmación,Tr78,78,,,,,,,,,,,,,0,81,81,81,,,,,,,,,1,1.15726630211,4,0.150244588573,2018_jun._15_1500,60.0777477804,Experimento Piloto1,001,137,
2.5,Stim\\05_075.jpg,En75_22,Enojo,22,Enrique corre todas las mañanas.,Afirmación,En75,75,,,,,,,,,,,,,0,82,82,82,,,,,,,,,1,0.541424316772,3,0.0833051453301,2018_jun._15_1500,60.0777477804,Experimento Piloto1,001,137,
0.25,Stim\\03_019.jpg,Tr19_19,Tristeza,19,Armando acompaña a Rodrígo a la tienda.,Afirmación,Tr19,19,,,,,,,,,,,,,0,83,83,83,,,,,,,,,1,0.956751421076,2,0.250278235677,2018_jun._15_1500,60.0777477804,Experimento Piloto1,001,137,
2.5,Stim\\03_019.jpg,Tr19_27,Tristeza,27,Claudia informa los avances en el reporte.,Afirmación,Tr19,19,,,,,,,,,,,,,0,84,84,84,,,,,,,,,1,0.85048234955,3,0.183638671146,2018_jun._15_1500,60.0777477804,Experimento Piloto1,001,137,
0.25,Stim\\05_078.jpg,En78_18,Enojo,18,Sofía escucha la música.,Afirmación,En78,78,,,,,,,,,,,,,0,85,85,85,,,,,,,,,1,1.21705328113,2,0.233681823334,2018_jun._15_1500,60.0777477804,Experimento Piloto1,001,137,
2.5,Stim\\05_019.jpg,En19_25,Enojo,25,Luis decide la comida siguiente.,Afirmación,En19,19,,,,,,,,,,,,,0,86,86,86,,,,,,,,,1,0.141784617472,3,0.968075858604,2018_jun._15_1500,60.0777477804,Experimento Piloto1,001,137,
0.25,Stim\\05_028.jpg,En28_16,Enojo,16,Valeria modifica algunas imágenes.,Afirmación,En28,28,,,,,,,,,,,,,0,87,87,87,,,,,,,,,1,1.06033274042,2,0.233716184435,2018_jun._15_1500,60.0777477804,Experimento Piloto1,001,137,
2.5,Stim\\02_028.jpg,Al28_22,Alegría,22,Enrique corre todas las mañanas.,Afirmación,Al28,28,,,,,,,,,,,,,0,88,88,88,,,,,,,,,1,0.611317476056,3,0.799969744379,2018_jun._15_1500,60.0777477804,Experimento Piloto1,001,137,
0.25,Stim\\03_078.jpg,Tr78_17,Tristeza,17,Brenda sube el autobús en las mañanas.,Afirmación,Tr78,78,,,,,,,,,,,,,0,89,89,89,,,,,,,,,1,1.91689298882,4,0.350351598863,2018_jun._15_1500,60.0777477804,Experimento Piloto1,001,137,
2.5,Stim\\02_028.jpg,Al28_25,Alegría,25,Luis decide la comida siguiente.,Afirmación,Al28,28,,,,,,,,,,,,,0,90,90,90,,,,,,,,,1,1.82516357223,3,0.650701546607,2018_jun._15_1500,60.0777477804,Experimento Piloto1,001,137,
0.25,Stim\\03_028.jpg,Tr28_18,Tristeza,18,Sofía escucha la música.,Afirmación,Tr28,28,,,,,,,,,,,,,0,91,91,91,,,,,,,,,1,0.301762322917,4,0.333519567532,2018_jun._15_1500,60.0777477804,Experimento Piloto1,001,137,
2.5,Stim\\03_075.jpg,Tr75_26,Tristeza,26,Víctor trae el café a Marco.,Afirmación,Tr75,75,,,,,,,,,,,,,0,92,92,92,,,,,,,,,1,2.97840159293,2,0.23385675258,2018_jun._15_1500,60.0777477804,Experimento Piloto1,001,137,
0.25,Stim\\02_019.jpg,Al19_19,Alegría,19,Armando acompaña a Rodrígo a la tienda.,Afirmación,Al19,19,,,,,,,,,,,,,0,93,93,93,,,,,,,,,1,0.930927044687,3,0.133779373164,2018_jun._15_1500,60.0777477804,Experimento Piloto1,001,137,
0.25,Stim\\02_028.jpg,Al28_24,Alegría,24,Guadalupe comenta los resultados con los compañeros.,Afirmación,Al28,28,,,,,,,,,,,,,0,94,94,94,,,,,,,,,1,0.898339332394,3,0.650034851975,2018_jun._15_1500,60.0777477804,Experimento Piloto1,001,137,
0.25,Stim\\05_078.jpg,En78_20,Enojo,20,Karen analiza la idea.,Afirmación,En78,78,,,,,,,,,,,,,0,95,95,95,,,,,,,,,1,0.555923363141,2,0.133520103031,2018_jun._15_1500,60.0777477804,Experimento Piloto1,001,137,
2.5,Stim\\02_019.jpg,Al19_17,Alegría,17,Brenda sube el autobús en las mañanas.,Afirmación,Al19,19,,,,,,,,,,,,,0,96,96,96,,,,,,,,,1,0.605471179961,3,0.134037304553,2018_jun._15_1500,60.0777477804,Experimento Piloto1,001,137,
0.25,Stim\\03_019.jpg,Tr19_18,Tristeza,18,Sofía escucha la música.,Afirmación,Tr19,19,,,,,,,,,,,,,0,97,97,97,,,,,,,,,1,0.850081172526,3,0.100576731018,2018_jun._15_1500,60.0777477804,Experimento Piloto1,001,137,
0.25,Stim\\02_075.jpg,Al75_26,Alegría,26,Víctor trae el café a Marco.,Afirmación,Al75,75,,,,,,,,,,,,,0,98,98,98,,,,,,,,,1,1.56972269252,3,0.867175597727,2018_jun._15_1500,60.0777477804,Experimento Piloto1,001,137,
2.5,Stim\\02_075.jpg,Al75_18,Alegría,18,Sofía escucha la música.,Afirmación,Al75,75,,,,,,,,,,,,,0,99,99,99,,,,,,,,,1,0.868446066012,3,0.0838000344502,2018_jun._15_1500,60.0777477804,Experimento Piloto1,001,137,
2.5,Stim\\05_019.jpg,En19_24,Enojo,24,Guadalupe comenta los resultados con los compañeros.,Afirmación,En19,19,,,,,,,,,,,,,0,100,100,100,,,,,,,,,1,0.428384323126,2,0.133727162138,2018_jun._15_1500,60.0777477804,Experimento Piloto1,001,137,
2.5,Stim\\03_019.jpg,Tr19_30,Tristeza,30,Marisol toma 2 litros de agua cada día.,Afirmación,Tr19,19,,,,,,,,,,,,,0,101,101,101,,,,,,,,,1,0.501202192328,3,0.133774910682,2018_jun._15_1500,60.0777477804,Experimento Piloto1,001,137,
2.5,Stim\\05_075.jpg,En75_17,Enojo,17,Brenda sube el autobús en las mañanas.,Afirmación,En75,75,,,,,,,,,,,,,0,102,102,102,,,,,,,,,1,0.598553888472,3,0.233644338494,2018_jun._15_1500,60.0777477804,Experimento Piloto1,001,137,
0.25,Stim\\02_019.jpg,Al19_29,Alegría,29,Miriam mira la película.,Afirmación,Al19,19,,,,,,,,,,,,,0,103,103,103,,,,,,,,,1,0.544437383809,3,0.0832324068924,2018_jun._15_1500,60.0777477804,Experimento Piloto1,001,137,
0.25,Stim\\05_078.jpg,En78_22,Enojo,22,Enrique corre todas las mañanas.,Afirmación,En78,78,,,,,,,,,,,,,0,104,104,104,,,,,,,,,1,0.444925846958,2,0.20050417108,2018_jun._15_1500,60.0777477804,Experimento Piloto1,001,137,
0.25,Stim\\03_028.jpg,Tr28_21,Tristeza,21,Mauro anuncia la actividad.,Afirmación,Tr28,28,,,,,,,,,,,,,0,105,105,105,,,,,,,,,1,0.601319287824,3,0.183118792131,2018_jun._15_1500,60.0777477804,Experimento Piloto1,001,137,
2.5,Stim\\05_028.jpg,En28_19,Enojo,19,Armando acompaña a Rodrígo a la tienda.,Afirmación,En28,28,,,,,,,,,,,,,0,106,106,106,,,,,,,,,1,0.454219855719,3,0.134337183265,2018_jun._15_1500,60.0777477804,Experimento Piloto1,001,137,
2.5,Stim\\03_019.jpg,Tr19_29,Tristeza,29,Miriam mira la película.,Afirmación,Tr19,19,,,,,,,,,,,,,0,107,107,107,,,,,,,,,1,0.669383722476,3,0.133677182353,2018_jun._15_1500,60.0777477804,Experimento Piloto1,001,137,
2.5,Stim\\05_078.jpg,En78_17,Enojo,17,Brenda sube el autobús en las mañanas.,Afirmación,En78,78,,,,,,,,,,,,,0,108,108,108,,,,,,,,,1,0.856973027874,2,0.183959523514,2018_jun._15_1500,60.0777477804,Experimento Piloto1,001,137,
2.5,Stim\\02_028.jpg,Al28_21,Alegría,21,Mauro anuncia la actividad.,Afirmación,Al28,28,,,,,,,,,,,,,0,109,109,109,,,,,,,,,1,0.91815676338,3,0.133867730283,2018_jun._15_1500,60.0777477804,Experimento Piloto1,001,137,
0.25,Stim\\02_075.jpg,Al75_27,Alegría,27,Claudia informa los avances en el reporte.,Afirmación,Al75,75,,,,,,,,,,,,,0,110,110,110,,,,,,,,,1,0.999935740276,3,0.134347893218,2018_jun._15_1500,60.0777477804,Experimento Piloto1,001,137,
0.25,Stim\\02_019.jpg,Al19_28,Alegría,28,Antonio responde la pregunta.,Afirmación,Al19,19,,,,,,,,,,,,,0,111,111,111,,,,,,,,,1,0.511235187911,3,0.13339247608,2018_jun._15_1500,60.0777477804,Experimento Piloto1,001,137,
2.5,Stim\\05_019.jpg,En19_20,Enojo,20,Karen analiza la idea.,Afirmación,En19,19,,,,,,,,,,,,,0,112,112,112,,,,,,,,,1,0.403594796033,2,0.184126420296,2018_jun._15_1500,60.0777477804,Experimento Piloto1,001,137,
2.5,Stim\\03_078.jpg,Tr78_22,Tristeza,22,Enrique corre todas las mañanas.,Afirmación,Tr78,78,,,,,,,,,,,,,0,113,113,113,,,,,,,,,1,0.413577811831,4,0.333647640729,2018_jun._15_1500,60.0777477804,Experimento Piloto1,001,137,
2.5,Stim\\05_028.jpg,En28_18,Enojo,18,Sofía escucha la música.,Afirmación,En28,28,,,,,,,,,,,,,0,114,114,114,,,,,,,,,1,1.01344322341,2,0.200096746583,2018_jun._15_1500,60.0777477804,Experimento Piloto1,001,137,
0.25,Stim\\03_075.jpg,Tr75_29,Tristeza,29,Miriam mira la película.,Afirmación,Tr75,75,,,,,,,,,,,,,0,115,115,115,,,,,,,,,1,0.657386789095,3,0.0840789395006,2018_jun._15_1500,60.0777477804,Experimento Piloto1,001,137,
0.25,Stim\\03_078.jpg,Tr78_24,Tristeza,24,Guadalupe comenta los resultados con los compañeros.,Afirmación,Tr78,78,,,,,,,,,,,,,0,116,116,116,,,,,,,,,1,0.477438143324,4,0.0846135447009,2018_jun._15_1500,60.0777477804,Experimento Piloto1,001,137,
2.5,Stim\\05_075.jpg,En75_23,Enojo,23,Óscar consigue un nuevo departamento.,Afirmación,En75,75,,,,,,,,,,,,,0,117,117,117,,,,,,,,,1,0.26302620458,2,0.183402159662,2018_jun._15_1500,60.0777477804,Experimento Piloto1,001,137,
2.5,Stim\\03_019.jpg,Tr19_21,Tristeza,21,Mauro anuncia la actividad.,Afirmación,Tr19,19,,,,,,,,,,,,,0,118,118,118,,,,,,,,,1,0.455818316341,3,0.0841008056559,2018_jun._15_1500,60.0777477804,Experimento Piloto1,001,137,
0.25,Stim\\03_078.jpg,Tr78_29,Tristeza,29,Miriam mira la película.,Afirmación,Tr78,78,,,,,,,,,,,,,0,119,119,119,,,,,,,,,1,1.17750008255,3,0.0341393168655,2018_jun._15_1500,60.0777477804,Experimento Piloto1,001,137,
