Tiempo,ImagenesE,ClaveEn,Emocion,NumEn,Enunciado,ActoHabla,Clave,Cara,trials.thisRepN,trials.thisTrialN,trials.thisN,trials.thisIndex,Bloque3.thisRepN,Bloque3.thisTrialN,Bloque3.thisN,Bloque3.thisIndex,Bloque1.thisRepN,Bloque1.thisTrialN,Bloque1.thisN,Bloque1.thisIndex,Bloque2.thisRepN,Bloque2.thisTrialN,Bloque2.thisN,Bloque2.thisIndex,Sig_B3.keys,Sig_B3.rt,Resp_Bloque3.keys,Resp_Bloque3.rt,Sig_B1.keys,Sig_B1.rt,Resp_Bloque1.keys,Resp_Bloque1.rt,Sig_B2.keys,Sig_B2.rt,Resp_Bloque2.keys,Resp_Bloque2.rt,date,frameRate,expName,session,participant,
2.5,Stim\\03_019.jpg,Tr19_16,Tristeza,16,Valeria modifica algunas imágenes.,Afirmación,Tr19,19,,,,,0,0,0,0,,,,,,,,,1,6.54327284151,2,2.84998766126,,,,,,,,,2018_jun._28_1120,60.143937991,Experimento Piloto1,001,138,
2.5,Stim\\05_078.jpg,En78_19,Enojo,19,Armando acompaña a Rodrígo a la tienda.,Afirmación,En78,78,,,,,0,1,1,1,,,,,,,,,1,2.85637078525,2,1.16671939824,,,,,,,,,2018_jun._28_1120,60.143937991,Experimento Piloto1,001,138,
2.5,Stim\\02_075.jpg,Al75_21,Alegría,21,Mauro anuncia la actividad.,Afirmación,Al75,75,,,,,0,2,2,2,,,,,,,,,1,4.03735671551,4,0.916898455047,,,,,,,,,2018_jun._28_1120,60.143937991,Experimento Piloto1,001,138,
0.25,Stim\\02_075.jpg,Al75_16,Alegría,16,Valeria modifica algunas imágenes.,Afirmación,Al75,75,,,,,0,3,3,3,,,,,,,,,1,3.83310299526,2,2.33302958755,,,,,,,,,2018_jun._28_1120,60.143937991,Experimento Piloto1,001,138,
0.25,Stim\\05_078.jpg,En78_30,Enojo,30,Marisol toma 2 litros de agua cada día.,Afirmación,En78,78,,,,,0,4,4,4,,,,,,,,,1,4.34610463879,3,2.64993982353,,,,,,,,,2018_jun._28_1120,60.143937991,Experimento Piloto1,001,138,
0.25,Stim\\02_019.jpg,Al19_22,Alegría,22,Enrique corre todas las mañanas.,Afirmación,Al19,19,,,,,0,5,5,5,,,,,,,,,1,4.44414119449,3,1.41701916499,,,,,,,,,2018_jun._28_1120,60.143937991,Experimento Piloto1,001,138,
2.5,Stim\\05_028.jpg,En28_23,Enojo,23,Óscar consigue un nuevo departamento.,Afirmación,En28,28,,,,,0,6,6,6,,,,,,,,,1,3.84463760019,2,4.33257396887,,,,,,,,,2018_jun._28_1120,60.143937991,Experimento Piloto1,001,138,
0.25,Stim\\03_019.jpg,Tr19_16,Tristeza,16,Valeria modifica algunas imágenes.,Afirmación,Tr19,19,,,,,0,7,7,7,,,,,,,,,1,5.38320163826,4,0.499887322511,,,,,,,,,2018_jun._28_1120,60.143937991,Experimento Piloto1,001,138,
0.25,Stim\\02_078.jpg,Al78_17,Alegría,17,Brenda sube el autobús en las mañanas.,Afirmación,Al78,78,,,,,0,8,8,8,,,,,,,,,1,3.97524486715,3,0.650259336725,,,,,,,,,2018_jun._28_1120,60.143937991,Experimento Piloto1,001,138,
0.25,Stim\\02_078.jpg,Al78_16,Alegría,16,Valeria modifica algunas imágenes.,Afirmación,Al78,78,,,,,0,9,9,9,,,,,,,,,1,3.31547198034,2,0.701203395586,,,,,,,,,2018_jun._28_1120,60.143937991,Experimento Piloto1,001,138,
0.25,Stim\\05_075.jpg,En75_22,Enojo,22,Enrique corre todas las mañanas.,Afirmación,En75,75,,,,,0,10,10,10,,,,,,,,,1,5.01823367214,2,2.54996075253,,,,,,,,,2018_jun._28_1120,60.143937991,Experimento Piloto1,001,138,
0.25,Stim\\02_028.jpg,Al28_26,Alegría,26,Víctor trae el café a Marco.,Afirmación,Al28,28,,,,,0,11,11,11,,,,,,,,,1,6.24665749479,3,0.583528826918,,,,,,,,,2018_jun._28_1120,60.143937991,Experimento Piloto1,001,138,
2.5,Stim\\03_075.jpg,Tr75_28,Tristeza,28,Antonio responde la pregunta.,Afirmación,Tr75,75,,,,,0,12,12,12,,,,,,,,,1,1.75285431046,4,2.74966364096,,,,,,,,,2018_jun._28_1120,60.143937991,Experimento Piloto1,001,138,
0.25,Stim\\05_075.jpg,En75_23,Enojo,23,Óscar consigue un nuevo departamento.,Afirmación,En75,75,,,,,0,13,13,13,,,,,,,,,1,2.79755893702,2,0.500242535507,,,,,,,,,2018_jun._28_1120,60.143937991,Experimento Piloto1,001,138,
2.5,Stim\\02_078.jpg,Al78_28,Alegría,28,Antonio responde la pregunta.,Afirmación,Al78,78,,,,,0,14,14,14,,,,,,,,,1,4.35318837133,4,1.53325592427,,,,,,,,,2018_jun._28_1120,60.143937991,Experimento Piloto1,001,138,
2.5,Stim\\02_028.jpg,Al28_18,Alegría,18,Sofía escucha la música.,Afirmación,Al28,28,,,,,0,15,15,15,,,,,,,,,1,3.48832728147,3,1.00037529413,,,,,,,,,2018_jun._28_1120,60.143937991,Experimento Piloto1,001,138,
2.5,Stim\\02_019.jpg,Al19_22,Alegría,22,Enrique corre todas las mañanas.,Afirmación,Al19,19,,,,,0,16,16,16,,,,,,,,,1,1.75207426986,3,1.91648701487,,,,,,,,,2018_jun._28_1120,60.143937991,Experimento Piloto1,001,138,
2.5,Stim\\05_028.jpg,En28_28,Enojo,28,Antonio responde la pregunta.,Afirmación,En28,28,,,,,0,17,17,17,,,,,,,,,1,2.20304528207,2,0.549770651106,,,,,,,,,2018_jun._28_1120,60.143937991,Experimento Piloto1,001,138,
0.25,Stim\\03_078.jpg,Tr78_30,Tristeza,30,Marisol toma 2 litros de agua cada día.,Afirmación,Tr78,78,,,,,0,18,18,18,,,,,,,,,1,4.24248775832,2,0.70060720895,,,,,,,,,2018_jun._28_1120,60.143937991,Experimento Piloto1,001,138,
0.25,Stim\\03_019.jpg,Tr19_20,Tristeza,20,Karen analiza la idea.,Afirmación,Tr19,19,,,,,0,19,19,19,,,,,,,,,1,2.25499607525,4,0.650395888454,,,,,,,,,2018_jun._28_1120,60.143937991,Experimento Piloto1,001,138,
0.25,Stim\\05_028.jpg,En28_19,Enojo,19,Armando acompaña a Rodrígo a la tienda.,Afirmación,En28,28,,,,,0,20,20,20,,,,,,,,,1,1.91378944884,2,2.03339269912,,,,,,,,,2018_jun._28_1120,60.143937991,Experimento Piloto1,001,138,
0.25,Stim\\05_019.jpg,En19_26,Enojo,26,Víctor trae el café a Marco.,Afirmación,En19,19,,,,,0,21,21,21,,,,,,,,,1,1.17118945928,2,1.63313280459,,,,,,,,,2018_jun._28_1120,60.143937991,Experimento Piloto1,001,138,
0.25,Stim\\02_028.jpg,Al28_16,Alegría,16,Valeria modifica algunas imágenes.,Afirmación,Al28,28,,,,,0,22,22,22,,,,,,,,,1,3.66487840425,4,1.8328553279,,,,,,,,,2018_jun._28_1120,60.143937991,Experimento Piloto1,001,138,
2.5,Stim\\02_075.jpg,Al75_17,Alegría,17,Brenda sube el autobús en las mañanas.,Afirmación,Al75,75,,,,,0,23,23,23,,,,,,,,,1,3.28045449414,4,3.26618439214,,,,,,,,,2018_jun._28_1120,60.143937991,Experimento Piloto1,001,138,
2.5,Stim\\05_075.jpg,En75_30,Enojo,30,Marisol toma 2 litros de agua cada día.,Afirmación,En75,75,,,,,0,24,24,24,,,,,,,,,1,3.06208864349,2,2.89955683162,,,,,,,,,2018_jun._28_1120,60.143937991,Experimento Piloto1,001,138,
2.5,Stim\\03_075.jpg,Tr75_27,Tristeza,27,Claudia informa los avances en el reporte.,Afirmación,Tr75,75,,,,,0,25,25,25,,,,,,,,,1,4.23494260588,3,1.31687230494,,,,,,,,,2018_jun._28_1120,60.143937991,Experimento Piloto1,001,138,
2.5,Stim\\03_028.jpg,Tr28_24,Tristeza,24,Guadalupe comenta los resultados con los compañeros.,Afirmación,Tr28,28,,,,,0,26,26,26,,,,,,,,,1,3.98789419829,3,2.79923013384,,,,,,,,,2018_jun._28_1120,60.143937991,Experimento Piloto1,001,138,
0.25,Stim\\05_028.jpg,En28_24,Enojo,24,Guadalupe comenta los resultados con los compañeros.,Afirmación,En28,28,,,,,0,27,27,27,,,,,,,,,1,3.18318860784,3,0.450055758623,,,,,,,,,2018_jun._28_1120,60.143937991,Experimento Piloto1,001,138,
0.25,Stim\\03_028.jpg,Tr28_17,Tristeza,17,Brenda sube el autobús en las mañanas.,Afirmación,Tr28,28,,,,,0,28,28,28,,,,,,,,,1,4.1970213873,4,0.650234346866,,,,,,,,,2018_jun._28_1120,60.143937991,Experimento Piloto1,001,138,
0.25,Stim\\02_028.jpg,Al28_28,Alegría,28,Antonio responde la pregunta.,Afirmación,Al28,28,,,,,0,29,29,29,,,,,,,,,1,2.45265515021,3,3.14938803851,,,,,,,,,2018_jun._28_1120,60.143937991,Experimento Piloto1,001,138,
2.5,Stim\\02_028.jpg,Al28_24,Alegría,24,Guadalupe comenta los resultados con los compañeros.,Afirmación,Al28,28,,,,,0,30,30,30,,,,,,,,,1,3.78814445388,4,0.333988573387,,,,,,,,,2018_jun._28_1120,60.143937991,Experimento Piloto1,001,138,
0.25,Stim\\02_078.jpg,Al78_29,Alegría,29,Miriam mira la película.,Afirmación,Al78,78,,,,,0,31,31,31,,,,,,,,,1,2.77306842893,4,0.450316367153,,,,,,,,,2018_jun._28_1120,60.143937991,Experimento Piloto1,001,138,
0.25,Stim\\05_078.jpg,En78_19,Enojo,19,Armando acompaña a Rodrígo a la tienda.,Afirmación,En78,78,,,,,0,32,32,32,,,,,,,,,1,2.37964013711,3,2.44987368965,,,,,,,,,2018_jun._28_1120,60.143937991,Experimento Piloto1,001,138,
0.25,Stim\\03_019.jpg,Tr19_21,Tristeza,21,Mauro anuncia la actividad.,Afirmación,Tr19,19,,,,,0,33,33,33,,,,,,,,,1,1.63899158779,4,0.449646103434,,,,,,,,,2018_jun._28_1120,60.143937991,Experimento Piloto1,001,138,
0.25,Stim\\02_028.jpg,Al28_25,Alegría,25,Luis decide la comida siguiente.,Afirmación,Al28,28,,,,,0,34,34,34,,,,,,,,,1,4.02912612694,3,0.34988524746,,,,,,,,,2018_jun._28_1120,60.143937991,Experimento Piloto1,001,138,
2.5,Stim\\03_078.jpg,Tr78_26,Tristeza,26,Víctor trae el café a Marco.,Afirmación,Tr78,78,,,,,0,35,35,35,,,,,,,,,1,2.6042637162,4,0.600135926983,,,,,,,,,2018_jun._28_1120,60.143937991,Experimento Piloto1,001,138,
2.5,Stim\\05_078.jpg,En78_20,Enojo,20,Karen analiza la idea.,Afirmación,En78,78,,,,,0,36,36,36,,,,,,,,,1,1.74190295099,2,0.450274866137,,,,,,,,,2018_jun._28_1120,60.143937991,Experimento Piloto1,001,138,
2.5,Stim\\02_078.jpg,Al78_23,Alegría,23,Óscar consigue un nuevo departamento.,Afirmación,Al78,78,,,,,0,37,37,37,,,,,,,,,1,3.63186903172,3,2.12218077575,,,,,,,,,2018_jun._28_1120,60.143937991,Experimento Piloto1,001,138,
0.25,Stim\\03_078.jpg,Tr78_21,Tristeza,21,Mauro anuncia la actividad.,Afirmación,Tr78,78,,,,,0,38,38,38,,,,,,,,,1,2.68789941939,3,0.38374472145,,,,,,,,,2018_jun._28_1120,60.143937991,Experimento Piloto1,001,138,
2.5,Stim\\03_075.jpg,Tr75_18,Tristeza,18,Sofía escucha la música.,Afirmación,Tr75,75,,,,,0,39,39,39,,,,,,,,,1,1.80677484003,3,1.56670083435,,,,,,,,,2018_jun._28_1120,60.143937991,Experimento Piloto1,001,138,
2.5,Stim\\03_019.jpg,Tr19_19,Tristeza,19,Armando acompaña a Rodrígo a la tienda.,Afirmación,Tr19,19,,,,,0,40,40,40,,,,,,,,,1,2.81353593564,3,0.350220379319,,,,,,,,,2018_jun._28_1120,60.143937991,Experimento Piloto1,001,138,
0.25,Stim\\03_019.jpg,Tr19_17,Tristeza,17,Brenda sube el autobús en las mañanas.,Afirmación,Tr19,19,,,,,0,41,41,41,,,,,,,,,1,1.83099001343,3,0.599903878292,,,,,,,,,2018_jun._28_1120,60.143937991,Experimento Piloto1,001,138,
2.5,Stim\\05_078.jpg,En78_18,Enojo,18,Sofía escucha la música.,Afirmación,En78,78,,,,,0,42,42,42,,,,,,,,,1,1.37391969063,2,0.400184924957,,,,,,,,,2018_jun._28_1120,60.143937991,Experimento Piloto1,001,138,
0.25,Stim\\05_019.jpg,En19_24,Enojo,24,Guadalupe comenta los resultados con los compañeros.,Afirmación,En19,19,,,,,0,43,43,43,,,,,,,,,1,1.7725155283,2,0.550465458437,,,,,,,,,2018_jun._28_1120,60.143937991,Experimento Piloto1,001,138,
0.25,Stim\\02_075.jpg,Al75_20,Alegría,20,Karen analiza la idea.,Afirmación,Al75,75,,,,,0,44,44,44,,,,,,,,,1,2.04155411933,3,2.23305319404,,,,,,,,,2018_jun._28_1120,60.143937991,Experimento Piloto1,001,138,
0.25,Stim\\03_075.jpg,Tr75_23,Tristeza,23,Óscar consigue un nuevo departamento.,Afirmación,Tr75,75,,,,,0,45,45,45,,,,,,,,,1,1.94869358818,4,0.383635837064,,,,,,,,,2018_jun._28_1120,60.143937991,Experimento Piloto1,001,138,
0.25,Stim\\05_078.jpg,En78_16,Enojo,16,Valeria modifica algunas imágenes.,Afirmación,En78,78,,,,,0,46,46,46,,,,,,,,,1,2.55854119913,2,0.383722409076,,,,,,,,,2018_jun._28_1120,60.143937991,Experimento Piloto1,001,138,
2.5,Stim\\02_019.jpg,Al19_20,Alegría,20,Karen analiza la idea.,Afirmación,Al19,19,,,,,0,47,47,47,,,,,,,,,1,1.13867051272,4,0.533322415145,,,,,,,,,2018_jun._28_1120,60.143937991,Experimento Piloto1,001,138,
0.25,Stim\\03_075.jpg,Tr75_28,Tristeza,28,Antonio responde la pregunta.,Afirmación,Tr75,75,,,,,0,48,48,48,,,,,,,,,1,1.88692222665,2,1.93367512916,,,,,,,,,2018_jun._28_1120,60.143937991,Experimento Piloto1,001,138,
0.25,Stim\\05_078.jpg,En78_25,Enojo,25,Luis decide la comida siguiente.,Afirmación,En78,78,,,,,0,49,49,49,,,,,,,,,1,1.68444323263,2,0.600329152143,,,,,,,,,2018_jun._28_1120,60.143937991,Experimento Piloto1,001,138,
2.5,Stim\\03_019.jpg,Tr19_23,Tristeza,23,Óscar consigue un nuevo departamento.,Afirmación,Tr19,19,,,,,0,50,50,50,,,,,,,,,1,3.18172670108,3,1.56693556052,,,,,,,,,2018_jun._28_1120,60.143937991,Experimento Piloto1,001,138,
2.5,Stim\\03_075.jpg,Tr75_24,Tristeza,24,Guadalupe comenta los resultados con los compañeros.,Afirmación,Tr75,75,,,,,0,51,51,51,,,,,,,,,1,1.77093045724,3,1.31677814673,,,,,,,,,2018_jun._28_1120,60.143937991,Experimento Piloto1,001,138,
0.25,Stim\\02_078.jpg,Al78_20,Alegría,20,Karen analiza la idea.,Afirmación,Al78,78,,,,,0,52,52,52,,,,,,,,,1,2.20892236142,3,1.83321098715,,,,,,,,,2018_jun._28_1120,60.143937991,Experimento Piloto1,001,138,
2.5,Stim\\02_078.jpg,Al78_30,Alegría,30,Marisol toma 2 litros de agua cada día.,Afirmación,Al78,78,,,,,0,53,53,53,,,,,,,,,1,1.97984389371,3,0.350499730243,,,,,,,,,2018_jun._28_1120,60.143937991,Experimento Piloto1,001,138,
2.5,Stim\\03_028.jpg,Tr28_27,Tristeza,27,Claudia informa los avances en el reporte.,Afirmación,Tr28,28,,,,,0,54,54,54,,,,,,,,,1,3.0114507104,3,0.65069621301,,,,,,,,,2018_jun._28_1120,60.143937991,Experimento Piloto1,001,138,
2.5,Stim\\02_075.jpg,Al75_28,Alegría,28,Antonio responde la pregunta.,Afirmación,Al75,75,,,,,0,55,55,55,,,,,,,,,1,2.19778313176,3,0.300221472626,,,,,,,,,2018_jun._28_1120,60.143937991,Experimento Piloto1,001,138,
2.5,Stim\\03_078.jpg,Tr78_28,Tristeza,28,Antonio responde la pregunta.,Afirmación,Tr78,78,,,,,0,56,56,56,,,,,,,,,1,2.26635396618,3,1.41722667007,,,,,,,,,2018_jun._28_1120,60.143937991,Experimento Piloto1,001,138,
0.25,Stim\\03_028.jpg,Tr28_19,Tristeza,19,Armando acompaña a Rodrígo a la tienda.,Afirmación,Tr28,28,,,,,0,57,57,57,,,,,,,,,1,2.94440782736,3,1.5666646883,,,,,,,,,2018_jun._28_1120,60.143937991,Experimento Piloto1,001,138,
2.5,Stim\\05_078.jpg,En78_21,Enojo,21,Mauro anuncia la actividad.,Afirmación,En78,78,,,,,0,58,58,58,,,,,,,,,1,2.91948981418,3,1.31683972888,,,,,,,,,2018_jun._28_1120,60.143937991,Experimento Piloto1,001,138,
0.25,Stim\\05_028.jpg,En28_17,Enojo,17,Brenda sube el autobús en las mañanas.,Afirmación,En28,28,,,,,0,59,59,59,,,,,,,,,1,3.16416730889,2,0.54929495129,,,,,,,,,2018_jun._28_1120,60.143937991,Experimento Piloto1,001,138,
0.25,Stim\\03_075.jpg,Tr75_20,Tristeza,20,Karen analiza la idea.,Afirmación,Tr75,75,,,,,0,60,60,60,,,,,,,,,1,4.80849601657,2,0.399906912775,,,,,,,,,2018_jun._28_1120,60.143937991,Experimento Piloto1,001,138,
2.5,Stim\\03_078.jpg,Tr78_21,Tristeza,21,Mauro anuncia la actividad.,Afirmación,Tr78,78,,,,,0,61,61,61,,,,,,,,,1,2.15491347484,2,0.750102302236,,,,,,,,,2018_jun._28_1120,60.143937991,Experimento Piloto1,001,138,
0.25,Stim\\05_075.jpg,En75_17,Enojo,17,Brenda sube el autobús en las mañanas.,Afirmación,En75,75,,,,,0,62,62,62,,,,,,,,,1,2.5466429025,4,1.78293942324,,,,,,,,,2018_jun._28_1120,60.143937991,Experimento Piloto1,001,138,
0.25,Stim\\03_019.jpg,Tr19_26,Tristeza,26,Víctor trae el café a Marco.,Afirmación,Tr19,19,,,,,0,63,63,63,,,,,,,,,1,1.88779553297,4,0.400355391495,,,,,,,,,2018_jun._28_1120,60.143937991,Experimento Piloto1,001,138,
0.25,Stim\\05_019.jpg,En19_30,Enojo,30,Marisol toma 2 litros de agua cada día.,Afirmación,En19,19,,,,,0,64,64,64,,,,,,,,,1,1.40869040198,2,0.350405572025,,,,,,,,,2018_jun._28_1120,60.143937991,Experimento Piloto1,001,138,
0.25,Stim\\02_019.jpg,Al19_27,Alegría,27,Claudia informa los avances en el reporte.,Afirmación,Al19,19,,,,,0,65,65,65,,,,,,,,,1,4.07802146361,3,0.350441271823,,,,,,,,,2018_jun._28_1120,60.143937991,Experimento Piloto1,001,138,
0.25,Stim\\05_028.jpg,En28_23,Enojo,23,Óscar consigue un nuevo departamento.,Afirmación,En28,28,,,,,0,66,66,66,,,,,,,,,1,1.98159853881,2,1.51658590331,,,,,,,,,2018_jun._28_1120,60.143937991,Experimento Piloto1,001,138,
0.25,Stim\\05_019.jpg,En19_18,Enojo,18,Sofía escucha la música.,Afirmación,En19,19,,,,,0,67,67,67,,,,,,,,,1,1.84026080488,2,0.400130482764,,,,,,,,,2018_jun._28_1120,60.143937991,Experimento Piloto1,001,138,
0.25,Stim\\05_075.jpg,En75_25,Enojo,25,Luis decide la comida siguiente.,Afirmación,En75,75,,,,,0,68,68,68,,,,,,,,,1,3.73357195674,3,0.750128184589,,,,,,,,,2018_jun._28_1120,60.143937991,Experimento Piloto1,001,138,
0.25,Stim\\03_078.jpg,Tr78_16,Tristeza,16,Valeria modifica algunas imágenes.,Afirmación,Tr78,78,,,,,0,69,69,69,,,,,,,,,1,3.3134857328,2,0.451115150147,,,,,,,,,2018_jun._28_1120,60.143937991,Experimento Piloto1,001,138,
0.25,Stim\\05_019.jpg,En19_27,Enojo,27,Claudia informa los avances en el reporte.,Afirmación,En19,19,,,,,0,70,70,70,,,,,,,,,1,1.77769601532,2,0.450397584195,,,,,,,,,2018_jun._28_1120,60.143937991,Experimento Piloto1,001,138,
0.25,Stim\\05_075.jpg,En75_30,Enojo,30,Marisol toma 2 litros de agua cada día.,Afirmación,En75,75,,,,,0,71,71,71,,,,,,,,,1,1.11374982206,2,0.383766141329,,,,,,,,,2018_jun._28_1120,60.143937991,Experimento Piloto1,001,138,
2.5,Stim\\02_028.jpg,Al28_16,Alegría,16,Valeria modifica algunas imágenes.,Afirmación,Al28,28,,,,,0,72,72,72,,,,,,,,,1,1.95121176273,3,0.500332231251,,,,,,,,,2018_jun._28_1120,60.143937991,Experimento Piloto1,001,138,
0.25,Stim\\05_075.jpg,En75_29,Enojo,29,Miriam mira la película.,Afirmación,En75,75,,,,,0,73,73,73,,,,,,,,,1,2.08110949619,3,0.700178811366,,,,,,,,,2018_jun._28_1120,60.143937991,Experimento Piloto1,001,138,
2.5,Stim\\02_028.jpg,Al28_28,Alegría,28,Antonio responde la pregunta.,Afirmación,Al28,28,,,,,0,74,74,74,,,,,,,,,1,2.5706456621,3,0.850398655188,,,,,,,,,2018_jun._28_1120,60.143937991,Experimento Piloto1,001,138,
2.5,Stim\\03_019.jpg,Tr19_28,Tristeza,28,Antonio responde la pregunta.,Afirmación,Tr19,19,,,,,0,75,75,75,,,,,,,,,1,2.11677136376,4,0.233729705222,,,,,,,,,2018_jun._28_1120,60.143937991,Experimento Piloto1,001,138,
0.25,Stim\\02_028.jpg,Tr28_30,Tristeza,30,Marisol toma 2 litros de agua cada día.,Afirmación,Tr28,28,,,,,0,76,76,76,,,,,,,,,1,1.78191394653,3,0.967242311044,,,,,,,,,2018_jun._28_1120,60.143937991,Experimento Piloto1,001,138,
2.5,Stim\\02_075.jpg,Al75_27,Alegría,27,Claudia informa los avances en el reporte.,Afirmación,Al75,75,,,,,0,77,77,77,,,,,,,,,1,2.6065681382,4,1.10014819879,,,,,,,,,2018_jun._28_1120,60.143937991,Experimento Piloto1,001,138,
2.5,Stim\\02_075.jpg,Al75_20,Alegría,20,Karen analiza la idea.,Afirmación,Al75,75,,,,,0,78,78,78,,,,,,,,,1,2.00894770827,4,1.00006113591,,,,,,,,,2018_jun._28_1120,60.143937991,Experimento Piloto1,001,138,
2.5,Stim\\05_019.jpg,En19_28,Enojo,28,Antonio responde la pregunta.,Afirmación,En19,19,,,,,0,79,79,79,,,,,,,,,1,1.08785675813,2,0.333798471959,,,,,,,,,2018_jun._28_1120,60.143937991,Experimento Piloto1,001,138,
2.5,Stim\\02_078.jpg,Al78_21,Alegría,21,Mauro anuncia la actividad.,Afirmación,Al78,78,,,,,0,80,80,80,,,,,,,,,1,1.13920333222,3,0.333438350241,,,,,,,,,2018_jun._28_1120,60.143937991,Experimento Piloto1,001,138,
2.5,Stim\\03_078.jpg,Tr78_19,Tristeza,19,Armando acompaña a Rodrígo a la tienda.,Afirmación,Tr78,78,,,,,0,81,81,81,,,,,,,,,1,2.66469410404,4,0.283829463847,,,,,,,,,2018_jun._28_1120,60.143937991,Experimento Piloto1,001,138,
2.5,Stim\\05_075.jpg,En75_22,Enojo,22,Enrique corre todas las mañanas.,Afirmación,En75,75,,,,,0,82,82,82,,,,,,,,,1,1.03660077228,2,2.33314070317,,,,,,,,,2018_jun._28_1120,60.143937991,Experimento Piloto1,001,138,
0.25,Stim\\03_019.jpg,Tr19_19,Tristeza,19,Armando acompaña a Rodrígo a la tienda.,Afirmación,Tr19,19,,,,,0,83,83,83,,,,,,,,,1,2.64773803845,2,1.21692938,,,,,,,,,2018_jun._28_1120,60.143937991,Experimento Piloto1,001,138,
2.5,Stim\\03_019.jpg,Tr19_27,Tristeza,27,Claudia informa los avances en el reporte.,Afirmación,Tr19,19,,,,,0,84,84,84,,,,,,,,,1,2.66270964149,2,0.333740459787,,,,,,,,,2018_jun._28_1120,60.143937991,Experimento Piloto1,001,138,
0.25,Stim\\05_078.jpg,En78_18,Enojo,18,Sofía escucha la música.,Afirmación,En78,78,,,,,0,85,85,85,,,,,,,,,1,0.975101621708,2,0.350323462488,,,,,,,,,2018_jun._28_1120,60.143937991,Experimento Piloto1,001,138,
2.5,Stim\\05_019.jpg,En19_25,Enojo,25,Luis decide la comida siguiente.,Afirmación,En19,19,,,,,0,86,86,86,,,,,,,,,1,2.35145023738,4,3.01588685663,,,,,,,,,2018_jun._28_1120,60.143937991,Experimento Piloto1,001,138,
0.25,Stim\\05_028.jpg,En28_16,Enojo,16,Valeria modifica algunas imágenes.,Afirmación,En28,28,,,,,0,87,87,87,,,,,,,,,1,2.50125283981,2,0.483613569315,,,,,,,,,2018_jun._28_1120,60.143937991,Experimento Piloto1,001,138,
2.5,Stim\\02_028.jpg,Al28_22,Alegría,22,Enrique corre todas las mañanas.,Afirmación,Al28,28,,,,,0,88,88,88,,,,,,,,,1,1.75227284999,3,3.14945051316,,,,,,,,,2018_jun._28_1120,60.143937991,Experimento Piloto1,001,138,
0.25,Stim\\03_078.jpg,Tr78_17,Tristeza,17,Brenda sube el autobús en las mañanas.,Afirmación,Tr78,78,,,,,0,89,89,89,,,,,,,,,1,1.4821980723,2,0.400337095349,,,,,,,,,2018_jun._28_1120,60.143937991,Experimento Piloto1,001,138,
2.5,Stim\\02_028.jpg,Al28_25,Alegría,25,Luis decide la comida siguiente.,Afirmación,Al28,28,,,,,0,90,90,90,,,,,,,,,1,2.74901435087,3,0.916905595006,,,,,,,,,2018_jun._28_1120,60.143937991,Experimento Piloto1,001,138,
0.25,Stim\\03_028.jpg,Tr28_18,Tristeza,18,Sofía escucha la música.,Afirmación,Tr28,28,,,,,0,91,91,91,,,,,,,,,1,1.32432642289,4,0.900175776883,,,,,,,,,2018_jun._28_1120,60.143937991,Experimento Piloto1,001,138,
2.5,Stim\\03_075.jpg,Tr75_26,Tristeza,26,Víctor trae el café a Marco.,Afirmación,Tr75,75,,,,,0,92,92,92,,,,,,,,,1,2.9882730624,4,1.10026333064,,,,,,,,,2018_jun._28_1120,60.143937991,Experimento Piloto1,001,138,
0.25,Stim\\02_019.jpg,Al19_19,Alegría,19,Armando acompaña a Rodrígo a la tienda.,Afirmación,Al19,19,,,,,0,93,93,93,,,,,,,,,1,2.0959980972,3,1.93323959161,,,,,,,,,2018_jun._28_1120,60.143937991,Experimento Piloto1,001,138,
0.25,Stim\\02_028.jpg,Al28_24,Alegría,24,Guadalupe comenta los resultados con los compañeros.,Afirmación,Al28,28,,,,,0,94,94,94,,,,,,,,,1,2.02325440257,3,1.01685967614,,,,,,,,,2018_jun._28_1120,60.143937991,Experimento Piloto1,001,138,
0.25,Stim\\05_078.jpg,En78_20,Enojo,20,Karen analiza la idea.,Afirmación,En78,78,,,,,0,95,95,95,,,,,,,,,1,2.04259789219,2,0.400463829634,,,,,,,,,2018_jun._28_1120,60.143937991,Experimento Piloto1,001,138,
2.5,Stim\\02_019.jpg,Al19_17,Alegría,17,Brenda sube el autobús en las mañanas.,Afirmación,Al19,19,,,,,0,96,96,96,,,,,,,,,1,1.68238915547,3,0.333798918207,,,,,,,,,2018_jun._28_1120,60.143937991,Experimento Piloto1,001,138,
0.25,Stim\\03_019.jpg,Tr19_18,Tristeza,18,Sofía escucha la música.,Afirmación,Tr19,19,,,,,0,97,97,97,,,,,,,,,1,0.975102514203,2,0.350374334701,,,,,,,,,2018_jun._28_1120,60.143937991,Experimento Piloto1,001,138,
0.25,Stim\\02_075.jpg,Al75_26,Alegría,26,Víctor trae el café a Marco.,Afirmación,Al75,75,,,,,0,98,98,98,,,,,,,,,1,1.73848826525,4,0.533847202185,,,,,,,,,2018_jun._28_1120,60.143937991,Experimento Piloto1,001,138,
2.5,Stim\\02_075.jpg,Al75_18,Alegría,18,Sofía escucha la música.,Afirmación,Al75,75,,,,,0,99,99,99,,,,,,,,,1,0.775169362076,4,0.550389150117,,,,,,,,,2018_jun._28_1120,60.143937991,Experimento Piloto1,001,138,
2.5,Stim\\05_019.jpg,En19_24,Enojo,24,Guadalupe comenta los resultados con los compañeros.,Afirmación,En19,19,,,,,0,100,100,100,,,,,,,,,1,2.09071318826,2,1.56670529682,,,,,,,,,2018_jun._28_1120,60.143937991,Experimento Piloto1,001,138,
2.5,Stim\\03_019.jpg,Tr19_30,Tristeza,30,Marisol toma 2 litros de agua cada día.,Afirmación,Tr19,19,,,,,0,101,101,101,,,,,,,,,1,2.51218858062,2,1.83284506421,,,,,,,,,2018_jun._28_1120,60.143937991,Experimento Piloto1,001,138,
2.5,Stim\\05_075.jpg,En75_17,Enojo,17,Brenda sube el autobús en las mañanas.,Afirmación,En75,75,,,,,0,102,102,102,,,,,,,,,1,1.31625425218,4,1.68314063623,,,,,,,,,2018_jun._28_1120,60.143937991,Experimento Piloto1,001,138,
0.25,Stim\\02_019.jpg,Al19_29,Alegría,29,Miriam mira la película.,Afirmación,Al19,19,,,,,0,103,103,103,,,,,,,,,1,1.98984474604,3,1.06676754835,,,,,,,,,2018_jun._28_1120,60.143937991,Experimento Piloto1,001,138,
0.25,Stim\\05_078.jpg,En78_22,Enojo,22,Enrique corre todas las mañanas.,Afirmación,En78,78,,,,,0,104,104,104,,,,,,,,,1,1.41881040239,2,0.400484803265,,,,,,,,,2018_jun._28_1120,60.143937991,Experimento Piloto1,001,138,
0.25,Stim\\03_028.jpg,Tr28_21,Tristeza,21,Mauro anuncia la actividad.,Afirmación,Tr28,28,,,,,0,105,105,105,,,,,,,,,1,2.75523370204,4,1.63339832184,,,,,,,,,2018_jun._28_1120,60.143937991,Experimento Piloto1,001,138,
2.5,Stim\\05_028.jpg,En28_19,Enojo,19,Armando acompaña a Rodrígo a la tienda.,Afirmación,En28,28,,,,,0,106,106,106,,,,,,,,,1,1.16531728865,2,0.250131085198,,,,,,,,,2018_jun._28_1120,60.143937991,Experimento Piloto1,001,138,
2.5,Stim\\03_019.jpg,Tr19_29,Tristeza,29,Miriam mira la película.,Afirmación,Tr19,19,,,,,0,107,107,107,,,,,,,,,1,1.54092156353,3,0.900236466541,,,,,,,,,2018_jun._28_1120,60.143937991,Experimento Piloto1,001,138,
2.5,Stim\\05_078.jpg,En78_17,Enojo,17,Brenda sube el autobús en las mañanas.,Afirmación,En78,78,,,,,0,108,108,108,,,,,,,,,1,2.09892815817,2,1.83266879646,,,,,,,,,2018_jun._28_1120,60.143937991,Experimento Piloto1,001,138,
2.5,Stim\\02_028.jpg,Al28_21,Alegría,21,Mauro anuncia la actividad.,Afirmación,Al28,28,,,,,0,109,109,109,,,,,,,,,1,1.93926794885,2,0.500288498998,,,,,,,,,2018_jun._28_1120,60.143937991,Experimento Piloto1,001,138,
0.25,Stim\\02_075.jpg,Al75_27,Alegría,27,Claudia informa los avances en el reporte.,Afirmación,Al75,75,,,,,0,110,110,110,,,,,,,,,1,2.44634208707,3,0.550220468569,,,,,,,,,2018_jun._28_1120,60.143937991,Experimento Piloto1,001,138,
0.25,Stim\\02_019.jpg,Al19_28,Alegría,28,Antonio responde la pregunta.,Afirmación,Al19,19,,,,,0,111,111,111,,,,,,,,,1,0.803252608651,3,0.399582044608,,,,,,,,,2018_jun._28_1120,60.143937991,Experimento Piloto1,001,138,
2.5,Stim\\05_019.jpg,En19_20,Enojo,20,Karen analiza la idea.,Afirmación,En19,19,,,,,0,112,112,112,,,,,,,,,1,0.675796295164,2,0.900067784993,,,,,,,,,2018_jun._28_1120,60.143937991,Experimento Piloto1,001,138,
2.5,Stim\\03_078.jpg,Tr78_22,Tristeza,22,Enrique corre todas las mañanas.,Afirmación,Tr78,78,,,,,0,113,113,113,,,,,,,,,1,0.769904980524,4,1.21675445098,,,,,,,,,2018_jun._28_1120,60.143937991,Experimento Piloto1,001,138,
2.5,Stim\\05_028.jpg,En28_18,Enojo,18,Sofía escucha la música.,Afirmación,En28,28,,,,,0,114,114,114,,,,,,,,,1,0.708307209262,2,0.350320338755,,,,,,,,,2018_jun._28_1120,60.143937991,Experimento Piloto1,001,138,
0.25,Stim\\03_075.jpg,Tr75_29,Tristeza,29,Miriam mira la película.,Afirmación,Tr75,75,,,,,0,115,115,115,,,,,,,,,1,1.59037827953,2,1.61660513658,,,,,,,,,2018_jun._28_1120,60.143937991,Experimento Piloto1,001,138,
0.25,Stim\\03_078.jpg,Tr78_24,Tristeza,24,Guadalupe comenta los resultados con los compañeros.,Afirmación,Tr78,78,,,,,0,116,116,116,,,,,,,,,1,1.57322720378,4,1.93407764438,,,,,,,,,2018_jun._28_1120,60.143937991,Experimento Piloto1,001,138,
2.5,Stim\\05_075.jpg,En75_23,Enojo,23,Óscar consigue un nuevo departamento.,Afirmación,En75,75,,,,,0,117,117,117,,,,,,,,,1,1.97752072931,2,0.350331048695,,,,,,,,,2018_jun._28_1120,60.143937991,Experimento Piloto1,001,138,
2.5,Stim\\03_019.jpg,Tr19_21,Tristeza,21,Mauro anuncia la actividad.,Afirmación,Tr19,19,,,,,0,118,118,118,,,,,,,,,1,3.9389667318,4,1.5835672042,,,,,,,,,2018_jun._28_1120,60.143937991,Experimento Piloto1,001,138,
0.25,Stim\\03_078.jpg,Tr78_29,Tristeza,29,Miriam mira la película.,Afirmación,Tr78,78,,,,,0,119,119,119,,,,,,,,,1,2.75600124771,4,1.16648913454,,,,,,,,,2018_jun._28_1120,60.143937991,Experimento Piloto1,001,138,
2.5,Stim\\05_028.jpg,En28_16,Enojo,16,Valeria modifica algunas imágenes.,Afirmación,En28,28,,,,,,,,,0,0,0,0,,,,,,,,,1,1.61487994381,2,1.31672236579,,,,,2018_jun._28_1120,60.143937991,Experimento Piloto1,001,138,
2.5,Stim\\05_028.jpg,En28_29,Enojo,29,Miriam mira la película.,Afirmación,En28,28,,,,,,,,,0,1,1,1,,,,,,,,,1,0.72464611459,2,1.11622917307,,,,,2018_jun._28_1120,60.143937991,Experimento Piloto1,001,138,
0.25,Stim\\03_028.jpg,Tr28_29,Tristeza,29,Miriam mira la película.,Afirmación,Tr28,28,,,,,,,,,0,2,2,2,,,,,,,,,1,2.1008550548,4,0.299652507085,,,,,2018_jun._28_1120,60.143937991,Experimento Piloto1,001,138,
2.5,Stim\\02_075.jpg,Al75_22,Alegría,22,Enrique corre todas las mañanas.,Afirmación,Al75,75,,,,,,,,,0,3,3,3,,,,,,,,,1,1.82817240682,3,0.30036248683,,,,,2018_jun._28_1120,60.143937991,Experimento Piloto1,001,138,
2.5,Stim\\05_019.jpg,En19_17,Enojo,17,Brenda sube el autobús en las mañanas.,Afirmación,En19,19,,,,,,,,,0,4,4,4,,,,,,,,,1,1.92536600103,2,1.88366149629,,,,,2018_jun._28_1120,60.143937991,Experimento Piloto1,001,138,
2.5,Stim\\02_028.jpg,Al28_17,Alegría,17,Brenda sube el autobús en las mañanas.,Afirmación,Al28,28,,,,,,,,,0,5,5,5,,,,,,,,,1,2.01637326638,3,0.28342471738,,,,,2018_jun._28_1120,60.143937991,Experimento Piloto1,001,138,
0.25,Stim\\05_075.jpg,En75_24,Enojo,24,Guadalupe comenta los resultados con los compañeros.,Afirmación,En75,75,,,,,,,,,0,6,6,6,,,,,,,,,1,1.82197447554,2,0.400806101453,,,,,2018_jun._28_1120,60.143937991,Experimento Piloto1,001,138,
2.5,Stim\\03_078.jpg,Tr78_23,Tristeza,23,Óscar consigue un nuevo departamento.,Afirmación,Tr78,78,,,,,,,,,0,7,7,7,,,,,,,,,1,1.28148532582,4,0.283669707248,,,,,2018_jun._28_1120,60.143937991,Experimento Piloto1,001,138,
0.25,Stim\\05_075.jpg,En75_16,Enojo,16,Valeria modifica algunas imágenes.,Afirmación,En75,75,,,,,,,,,0,8,8,8,,,,,,,,,1,1.9331003624,2,0.350725085222,,,,,2018_jun._28_1120,60.143937991,Experimento Piloto1,001,138,
0.25,Stim\\02_078.jpg,Al78_23,Alegría,23,Óscar consigue un nuevo departamento.,Afirmación,Al78,78,,,,,,,,,0,9,9,9,,,,,,,,,1,4.64307118227,3,0.350572022335,,,,,2018_jun._28_1120,60.143937991,Experimento Piloto1,001,138,
2.5,Stim\\05_078.jpg,En78_24,Enojo,24,Guadalupe comenta los resultados con los compañeros.,Afirmación,En78,78,,,,,,,,,0,10,10,10,,,,,,,,,1,1.2011603327,2,0.301053277933,,,,,2018_jun._28_1120,60.143937991,Experimento Piloto1,001,138,
2.5,Stim\\03_028.jpg,Tr28_28,Tristeza,28,Antonio responde la pregunta.,Afirmación,Tr28,28,,,,,,,,,0,11,11,11,,,,,,,,,1,1.01083667387,4,0.449800505063,,,,,2018_jun._28_1120,60.143937991,Experimento Piloto1,001,138,
0.25,Stim\\02_019.jpg,Al19_20,Alegría,20,Karen analiza la idea.,Afirmación,Al19,19,,,,,,,,,0,12,12,12,,,,,,,,,1,1.9841961454,3,0.650672561894,,,,,2018_jun._28_1120,60.143937991,Experimento Piloto1,001,138,
2.5,Stim\\05_078.jpg,En78_27,Enojo,27,Claudia informa los avances en el reporte.,Afirmación,En78,78,,,,,,,,,0,13,13,13,,,,,,,,,1,0.329903177684,2,0.600435359044,,,,,2018_jun._28_1120,60.143937991,Experimento Piloto1,001,138,
0.25,Stim\\05_028.jpg,En28_28,Enojo,28,Antonio responde la pregunta.,Afirmación,En28,28,,,,,,,,,0,14,14,14,,,,,,,,,1,2.97000279797,2,2.03332843949,,,,,2018_jun._28_1120,60.143937991,Experimento Piloto1,001,138,
2.5,Stim\\03_078.jpg,Tr78_30,Tristeza,30,Marisol toma 2 litros de agua cada día.,Afirmación,Tr78,78,,,,,,,,,0,15,15,15,,,,,,,,,1,1.47788955286,4,0.433625818808,,,,,2018_jun._28_1120,60.143937991,Experimento Piloto1,001,138,
0.25,Stim\\03_028.jpg,Tr28_27,Tristeza,27,Claudia informa los avances en el reporte.,Afirmación,Tr28,28,,,,,,,,,0,16,16,16,,,,,,,,,1,2.84876315816,2,1.11683294592,,,,,2018_jun._28_1120,60.143937991,Experimento Piloto1,001,138,
0.25,Stim\\02_075.jpg,Al75_24,Alegría,24,Guadalupe comenta los resultados con los compañeros.,Afirmación,Al75,75,,,,,,,,,0,17,17,17,,,,,,,,,1,4.83902380686,3,0.450369916851,,,,,2018_jun._28_1120,60.143937991,Experimento Piloto1,001,138,
0.25,Stim\\02_019.jpg,Al19_16,Alegría,16,Valeria modifica algunas imágenes.,Afirmación,Al19,19,,,,,,,,,0,18,18,18,,,,,,,,,1,1.73472282899,3,0.450237827596,,,,,2018_jun._28_1120,60.143937991,Experimento Piloto1,001,138,
2.5,Stim\\02_028.jpg,Al28_30,Alegría,30,Marisol toma 2 litros de agua cada día.,Afirmación,Al28,28,,,,,,,,,0,19,19,19,,,,,,,,,1,2.39797287619,3,0.299797537517,,,,,2018_jun._28_1120,60.143937991,Experimento Piloto1,001,138,
2.5,Stim\\05_078.jpg,En78_16,Enojo,16,Valeria modifica algunas imágenes.,Afirmación,En78,78,,,,,,,,,0,20,20,20,,,,,,,,,1,1.11837919344,2,0.400010888439,,,,,2018_jun._28_1120,60.143937991,Experimento Piloto1,001,138,
0.25,Stim\\02_075.jpg,Al75_28,Alegría,28,Antonio responde la pregunta.,Afirmación,Al75,75,,,,,,,,,0,21,21,21,,,,,,,,,1,2.60403568373,3,0.65030976269,,,,,2018_jun._28_1120,60.143937991,Experimento Piloto1,001,138,
2.5,Stim\\03_075.jpg,Tr75_17,Tristeza,17,Brenda sube el autobús en las mañanas.,Afirmación,Tr75,75,,,,,,,,,0,22,22,22,,,,,,,,,1,2.44869158007,4,0.350319000013,,,,,2018_jun._28_1120,60.143937991,Experimento Piloto1,001,138,
0.25,Stim\\05_075.jpg,En75_18,Enojo,18,Sofía escucha la música.,Afirmación,En75,75,,,,,,,,,0,23,23,23,,,,,,,,,1,1.0081002843,2,0.450339572022,,,,,2018_jun._28_1120,60.143937991,Experimento Piloto1,001,138,
2.5,Stim\\02_075.jpg,Al75_25,Alegría,25,Luis decide la comida siguiente.,Afirmación,Al75,75,,,,,,,,,0,24,24,24,,,,,,,,,1,1.48481620628,3,0.350268574047,,,,,2018_jun._28_1120,60.143937991,Experimento Piloto1,001,138,
0.25,Stim\\02_028.jpg,Al28_18,Alegría,18,Sofía escucha la música.,Afirmación,Al28,28,,,,,,,,,0,25,25,25,,,,,,,,,1,4.19043075823,3,0.40029604058,,,,,2018_jun._28_1120,60.143937991,Experimento Piloto1,001,138,
0.25,Stim\\02_028.jpg,Al28_23,Alegría,23,Óscar consigue un nuevo departamento.,Afirmación,Al28,28,,,,,,,,,0,26,26,26,,,,,,,,,1,2.39922683161,3,0.383754092647,,,,,2018_jun._28_1120,60.143937991,Experimento Piloto1,001,138,
0.25,Stim\\02_075.jpg,Al75_19,Alegría,19,Armando acompaña a Rodrígo a la tienda.,Afirmación,Al75,75,,,,,,,,,0,27,27,27,,,,,,,,,1,2.09755996339,3,0.333685125099,,,,,2018_jun._28_1120,60.143937991,Experimento Piloto1,001,138,
2.5,Stim\\05_019.jpg,En19_16,Enojo,16,Valeria modifica algunas imágenes.,Afirmación,En19,19,,,,,,,,,0,28,28,28,,,,,,,,,1,2.76749212039,2,2.39966504664,,,,,2018_jun._28_1120,60.143937991,Experimento Piloto1,001,138,
2.5,Stim\\02_019.jpg,Al19_25,Alegría,25,Luis decide la comida siguiente.,Afirmación,Al19,19,,,,,,,,,0,29,29,29,,,,,,,,,1,2.05167724348,3,1.5166497167,,,,,2018_jun._28_1120,60.143937991,Experimento Piloto1,001,138,
0.25,Stim\\02_078.jpg,Al78_27,Alegría,27,Claudia informa los avances en el reporte.,Afirmación,Al78,78,,,,,,,,,0,30,30,30,,,,,,,,,1,2.64671479297,3,2.08317963826,,,,,2018_jun._28_1120,60.143937991,Experimento Piloto1,001,138,
0.25,Stim\\03_019.jpg,Tr19_22,Tristeza,22,Enrique corre todas las mañanas.,Afirmación,Tr19,19,,,,,,,,,0,31,31,31,,,,,,,,,1,1.73641009073,3,0.650353048696,,,,,2018_jun._28_1120,60.143937991,Experimento Piloto1,001,138,
2.5,Stim\\05_019.jpg,En19_26,Enojo,26,Víctor trae el café a Marco.,Afirmación,En19,19,,,,,,,,,0,32,32,32,,,,,,,,,1,2.30513599615,2,0.350243137941,,,,,2018_jun._28_1120,60.143937991,Experimento Piloto1,001,138,
2.5,Stim\\02_078.jpg,Al78_26,Alegría,26,Víctor trae el café a Marco.,Afirmación,Al78,78,,,,,,,,,0,33,33,33,,,,,,,,,1,1.34928281336,3,1.41673802908,,,,,2018_jun._28_1120,60.143937991,Experimento Piloto1,001,138,
0.25,Stim\\05_078.jpg,En78_17,Enojo,17,Brenda sube el autobús en las mañanas.,Afirmación,En78,78,,,,,,,,,0,34,34,34,,,,,,,,,1,1.11552677953,2,0.383518027729,,,,,2018_jun._28_1120,60.143937991,Experimento Piloto1,001,138,
0.25,Stim\\05_078.jpg,En78_21,Enojo,21,Mauro anuncia la actividad.,Afirmación,En78,78,,,,,,,,,0,35,35,35,,,,,,,,,1,1.07220909015,2,0.400404924966,,,,,2018_jun._28_1120,60.143937991,Experimento Piloto1,001,138,
2.5,Stim\\03_078.jpg,Tr78_20,Tristeza,20,Karen analiza la idea.,Afirmación,Tr78,78,,,,,,,,,0,36,36,36,,,,,,,,,1,0.926055007142,4,0.450243628813,,,,,2018_jun._28_1120,60.143937991,Experimento Piloto1,001,138,
0.25,Stim\\03_078.jpg,Tr78_28,Tristeza,28,Antonio responde la pregunta.,Afirmación,Tr78,78,,,,,,,,,0,37,37,37,,,,,,,,,1,2.354266059,4,2.74963552737,,,,,2018_jun._28_1120,60.143937991,Experimento Piloto1,001,138,
2.5,Stim\\03_028.jpg,Tr28_17,Tristeza,17,Brenda sube el autobús en las mañanas.,Afirmación,Tr28,28,,,,,,,,,0,38,38,38,,,,,,,,,1,1.26570690733,4,0.500171582157,,,,,2018_jun._28_1120,60.143937991,Experimento Piloto1,001,138,
0.25,Stim\\02_028.jpg,Al28_27,Alegría,27,Claudia informa los avances en el reporte.,Afirmación,Al28,28,,,,,,,,,0,39,39,39,,,,,,,,,1,1.36238508569,3,0.450342249507,,,,,2018_jun._28_1120,60.143937991,Experimento Piloto1,001,138,
2.5,Stim\\02_019.jpg,Al19_28,Alegría,28,Antonio responde la pregunta.,Afirmación,Al19,19,,,,,,,,,0,40,40,40,,,,,,,,,1,1.23810382305,3,1.00026194727,,,,,2018_jun._28_1120,60.143937991,Experimento Piloto1,001,138,
0.25,Stim\\02_019.jpg,Al19_17,Alegría,17,Brenda sube el autobús en las mañanas.,Afirmación,Al19,19,,,,,,,,,0,41,41,41,,,,,,,,,1,3.58058091605,3,0.283750478043,,,,,2018_jun._28_1120,60.143937991,Experimento Piloto1,001,138,
2.5,Stim\\03_075.jpg,Tr75_21,Tristeza,21,Mauro anuncia la actividad.,Afirmación,Tr75,75,,,,,,,,,0,42,42,42,,,,,,,,,1,0.873142104387,4,0.500373286019,,,,,2018_jun._28_1120,60.143937991,Experimento Piloto1,001,138,
0.25,Stim\\03_075.jpg,Tr75_26,Tristeza,26,Víctor trae el café a Marco.,Afirmación,Tr75,75,,,,,,,,,0,43,43,43,,,,,,,,,1,1.7385592186,4,3.21622163149,,,,,2018_jun._28_1120,60.143937991,Experimento Piloto1,001,138,
0.25,Stim\\02_075.jpg,Al75_18,Alegría,18,Sofía escucha la música.,Afirmación,Al75,75,,,,,,,,,0,44,44,44,,,,,,,,,1,3.64076943776,3,0.383944194075,,,,,2018_jun._28_1120,60.143937991,Experimento Piloto1,001,138,
2.5,Stim\\05_028.jpg,En28_27,Enojo,27,Claudia informa los avances en el reporte.,Afirmación,En28,28,,,,,,,,,0,45,45,45,,,,,,,,,1,3.12420316934,2,0.383908940523,,,,,2018_jun._28_1120,60.143937991,Experimento Piloto1,001,138,
0.25,Stim\\02_019.jpg,Al19_23,Alegría,23,Óscar consigue un nuevo departamento.,Afirmación,Al19,19,,,,,,,,,0,46,46,46,,,,,,,,,1,1.78301751655,3,0.350296241391,,,,,2018_jun._28_1120,60.143937991,Experimento Piloto1,001,138,
0.25,Stim\\03_075.jpg,Tr75_21,Tristeza,21,Mauro anuncia la actividad.,Afirmación,Tr75,75,,,,,,,,,0,47,47,47,,,,,,,,,1,2.50050492903,4,0.550330245449,,,,,2018_jun._28_1120,60.143937991,Experimento Piloto1,001,138,
0.25,Stim\\02_078.jpg,Al78_28,Alegría,28,Antonio responde la pregunta.,Afirmación,Al78,78,,,,,,,,,0,48,48,48,,,,,,,,,1,1.42138123413,3,0.450221316439,,,,,2018_jun._28_1120,60.143937991,Experimento Piloto1,001,138,
2.5,Stim\\03_075.jpg,Tr75_23,Tristeza,23,Óscar consigue un nuevo departamento.,Afirmación,Tr75,75,,,,,,,,,0,49,49,49,,,,,,,,,1,1.53286278024,4,0.333826585551,,,,,2018_jun._28_1120,60.143937991,Experimento Piloto1,001,138,
0.25,Stim\\02_078.jpg,Al78_22,Alegría,22,Enrique corre todas las mañanas.,Afirmación,Al78,78,,,,,,,,,0,50,50,50,,,,,,,,,1,0.969726124533,3,0.400250077089,,,,,2018_jun._28_1120,60.143937991,Experimento Piloto1,001,138,
2.5,Stim\\03_028.jpg,Tr28_23,Tristeza,23,Óscar consigue un nuevo departamento.,Afirmación,Tr28,28,,,,,,,,,0,51,51,51,,,,,,,,,1,1.43304882081,4,0.383752307657,,,,,2018_jun._28_1120,60.143937991,Experimento Piloto1,001,138,
0.25,Stim\\02_028.jpg,Al28_19,Alegría,19,Armando acompaña a Rodrígo a la tienda.,Afirmación,Al28,28,,,,,,,,,0,52,52,52,,,,,,,,,1,3.78058903775,2,0.500338032468,,,,,2018_jun._28_1120,60.143937991,Experimento Piloto1,001,138,
0.25,Stim\\03_028.jpg,Tr28_28,Tristeza,28,Antonio responde la pregunta.,Afirmación,Tr28,28,,,,,,,,,0,53,53,53,,,,,,,,,1,1.63816781494,4,0.500042170387,,,,,2018_jun._28_1120,60.143937991,Experimento Piloto1,001,138,
2.5,Stim\\05_075.jpg,En75_16,Enojo,16,Valeria modifica algunas imágenes.,Afirmación,En75,75,,,,,,,,,0,54,54,54,,,,,,,,,1,2.03495456531,2,1.41674249155,,,,,2018_jun._28_1120,60.143937991,Experimento Piloto1,001,138,
0.25,Stim\\03_019.jpg,Tr19_28,Tristeza,28,Antonio responde la pregunta.,Afirmación,Tr19,19,,,,,,,,,0,55,55,55,,,,,,,,,1,1.78818372366,4,0.350239121713,,,,,2018_jun._28_1120,60.143937991,Experimento Piloto1,001,138,
2.5,Stim\\03_019.jpg,Tr19_24,Tristeza,24,Guadalupe comenta los resultados con los compañeros.,Afirmación,Tr19,19,,,,,,,,,0,56,56,56,,,,,,,,,1,2.08826641332,3,0.500272434088,,,,,2018_jun._28_1120,60.143937991,Experimento Piloto1,001,138,
0.25,Stim\\03_019.jpg,Tr19_30,Tristeza,30,Marisol toma 2 litros de agua cada día.,Afirmación,Tr19,19,,,,,,,,,0,57,57,57,,,,,,,,,1,1.41546399251,3,0.800357354984,,,,,2018_jun._28_1120,60.143937991,Experimento Piloto1,001,138,
0.25,Stim\\02_075.jpg,Al75_23,Alegría,23,Óscar consigue un nuevo departamento.,Afirmación,Al75,75,,,,,,,,,0,58,58,58,,,,,,,,,1,2.86606595806,3,0.283618388788,,,,,2018_jun._28_1120,60.143937991,Experimento Piloto1,001,138,
2.5,Stim\\02_078.jpg,Al78_22,Alegría,22,Enrique corre todas las mañanas.,Afirmación,Al78,78,,,,,,,,,0,59,59,59,,,,,,,,,1,3.13601132398,3,0.649911263688,,,,,2018_jun._28_1120,60.143937991,Experimento Piloto1,001,138,
2.5,Stim\\05_075.jpg,En75_20,Enojo,20,Karen analiza la idea.,Afirmación,En75,75,,,,,,,,,0,60,60,60,,,,,,,,,1,0.654915929205,2,0.600549152152,,,,,2018_jun._28_1120,60.143937991,Experimento Piloto1,001,138,
2.5,Stim\\03_028.jpg,Tr28_18,Tristeza,18,Sofía escucha la música.,Afirmación,Tr28,28,,,,,,,,,0,61,61,61,,,,,,,,,1,1.44108796921,4,0.500255476684,,,,,2018_jun._28_1120,60.143937991,Experimento Piloto1,001,138,
0.25,Stim\\02_028.jpg,Al28_22,Alegría,22,Enrique corre todas las mañanas.,Afirmación,Al28,28,,,,,,,,,0,62,62,62,,,,,,,,,1,1.73500664239,3,0.383618433413,,,,,2018_jun._28_1120,60.143937991,Experimento Piloto1,001,138,
2.5,Stim\\03_075.jpg,Tr75_29,Tristeza,29,Miriam mira la película.,Afirmación,Tr75,75,,,,,,,,,0,63,63,63,,,,,,,,,1,2.87429699287,4,0.350323908735,,,,,2018_jun._28_1120,60.143937991,Experimento Piloto1,001,138,
2.5,Stim\\05_075.jpg,En75_19,Enojo,19,Armando acompaña a Rodrígo a la tienda.,Afirmación,En75,75,,,,,,,,,0,64,64,64,,,,,,,,,1,2.04838706079,2,0.283799565266,,,,,2018_jun._28_1120,60.143937991,Experimento Piloto1,001,138,
0.25,Stim\\05_078.jpg,En78_27,Enojo,27,Claudia informa los avances en el reporte.,Afirmación,En78,78,,,,,,,,,0,65,65,65,,,,,,,,,1,1.37976865638,2,0.383713037879,,,,,2018_jun._28_1120,60.143937991,Experimento Piloto1,001,138,
0.25,Stim\\02_075.jpg,Al75_29,Alegría,29,Miriam mira la película.,Afirmación,Al75,75,,,,,,,,,0,66,66,66,,,,,,,,,1,1.7909415331,3,1.68351682286,,,,,2018_jun._28_1120,60.143937991,Experimento Piloto1,001,138,
2.5,Stim\\03_075.jpg,Tr75_19,Tristeza,19,Armando acompaña a Rodrígo a la tienda.,Afirmación,Tr75,75,,,,,,,,,0,67,67,67,,,,,,,,,1,1.98144101345,4,1.26679842867,,,,,2018_jun._28_1120,60.143937991,Experimento Piloto1,001,138,
2.5,Stim\\03_028.jpg,Tr28_22,Tristeza,22,Enrique corre todas las mañanas.,Afirmación,Tr28,28,,,,,,,,,0,68,68,68,,,,,,,,,1,1.85285346259,4,0.600192600413,,,,,2018_jun._28_1120,60.143937991,Experimento Piloto1,001,138,
0.25,Stim\\03_078.jpg,Tr78_25,Tristeza,25,Luis decide la comida siguiente.,Afirmación,Tr78,78,,,,,,,,,0,69,69,69,,,,,,,,,1,2.17575144729,4,0.350481880344,,,,,2018_jun._28_1120,60.143937991,Experimento Piloto1,001,138,
2.5,Stim\\02_028.jpg,Al28_19,Alegría,19,Armando acompaña a Rodrígo a la tienda.,Afirmación,Al28,28,,,,,,,,,0,70,70,70,,,,,,,,,1,1.48058979637,3,0.333834171758,,,,,2018_jun._28_1120,60.143937991,Experimento Piloto1,001,138,
0.25,Stim\\02_075.jpg,Al75_25,Alegría,25,Luis decide la comida siguiente.,Afirmación,Al75,75,,,,,,,,,0,71,71,71,,,,,,,,,1,1.16854231921,3,0.350134253555,,,,,2018_jun._28_1120,60.143937991,Experimento Piloto1,001,138,
2.5,Stim\\02_019.jpg,Al19_24,Alegría,24,Guadalupe comenta los resultados con los compañeros.,Afirmación,Al19,19,,,,,,,,,0,72,72,72,,,,,,,,,1,1.82286518551,3,1.5333032265,,,,,2018_jun._28_1120,60.143937991,Experimento Piloto1,001,138,
0.25,Stim\\03_028.jpg,Tr28_23,Tristeza,23,Óscar consigue un nuevo departamento.,Afirmación,Tr28,28,,,,,,,,,0,73,73,73,,,,,,,,,1,1.06683314673,4,0.650098241383,,,,,2018_jun._28_1120,60.143937991,Experimento Piloto1,001,138,
0.25,Stim\\03_028.jpg,Tr28_25,Tristeza,25,Luis decide la comida siguiente.,Afirmación,Tr28,28,,,,,,,,,0,74,74,74,,,,,,,,,1,1.73514319412,3,0.0836410581599,,,,,2018_jun._28_1120,60.143937991,Experimento Piloto1,001,138,
0.25,Stim\\05_019.jpg,En19_23,Enojo,23,Óscar consigue un nuevo departamento.,Afirmación,En19,19,,,,,,,,,0,75,75,75,,,,,,,,,1,2.74966007098,4,1.31681563151,,,,,2018_jun._28_1120,60.143937991,Experimento Piloto1,001,138,
2.5,Stim\\03_019.jpg,Tr19_26,Tristeza,26,Víctor trae el café a Marco.,Afirmación,Tr19,19,,,,,,,,,0,76,76,76,,,,,,,,,1,1.38893502592,4,0.750077758624,,,,,2018_jun._28_1120,60.143937991,Experimento Piloto1,001,138,
0.25,Stim\\05_028.jpg,En28_30,Enojo,30,Marisol toma 2 litros de agua cada día.,Afirmación,En28,28,,,,,,,,,0,77,77,77,,,,,,,,,1,5.52981267869,4,0.383792469931,,,,,2018_jun._28_1120,60.143937991,Experimento Piloto1,001,138,
2.5,Stim\\02_019.jpg,Al19_26,Alegría,26,Víctor trae el café a Marco.,Afirmación,Al19,19,,,,,,,,,0,78,78,78,,,,,,,,,1,1.70236765527,4,1.51657340838,,,,,2018_jun._28_1120,60.143937991,Experimento Piloto1,001,138,
0.25,Stim\\03_075.jpg,Tr75_27,Tristeza,27,Claudia informa los avances en el reporte.,Afirmación,Tr75,75,,,,,,,,,0,79,79,79,,,,,,,,,1,1.7796769079,4,0.433288009464,,,,,2018_jun._28_1120,60.143937991,Experimento Piloto1,001,138,
2.5,Stim\\02_078.jpg,Al78_27,Alegría,27,Claudia informa los avances en el reporte.,Afirmación,Al78,78,,,,,,,,,0,80,80,80,,,,,,,,,1,2.16633785665,3,0.450785373257,,,,,2018_jun._28_1120,60.143937991,Experimento Piloto1,001,138,
0.25,Stim\\02_019.jpg,Al19_26,Alegría,26,Víctor trae el café a Marco.,Afirmación,Al19,19,,,,,,,,,0,81,81,81,,,,,,,,,1,3.83771228551,3,5.26546994992,,,,,2018_jun._28_1120,60.143937991,Experimento Piloto1,001,138,
0.25,Stim\\03_019.jpg,Tr19_29,Tristeza,29,Miriam mira la película.,Afirmación,Tr19,19,,,,,,,,,0,82,82,82,,,,,,,,,1,3.32466066226,4,3.1156740412,,,,,2018_jun._28_1120,60.143937991,Experimento Piloto1,001,138,
2.5,Stim\\05_075.jpg,En75_27,Enojo,27,Claudia informa los avances en el reporte.,Afirmación,En75,75,,,,,,,,,0,83,83,83,,,,,,,,,1,1.62938744947,2,1.88323756119,,,,,2018_jun._28_1120,60.143937991,Experimento Piloto1,001,138,
0.25,Stim\\05_019.jpg,En19_25,Enojo,25,Luis decide la comida siguiente.,Afirmación,En19,19,,,,,,,,,0,84,84,84,,,,,,,,,1,1.53562728339,2,0.383787114961,,,,,2018_jun._28_1120,60.143937991,Experimento Piloto1,001,138,
2.5,Stim\\03_028.jpg,Tr28_20,Tristeza,20,Karen analiza la idea.,Afirmación,Tr28,28,,,,,,,,,0,85,85,85,,,,,,,,,1,1.04291472791,4,0.583643512521,,,,,2018_jun._28_1120,60.143937991,Experimento Piloto1,001,138,
2.5,Stim\\05_028.jpg,En28_26,Enojo,26,Víctor trae el café a Marco.,Afirmación,En28,28,,,,,,,,,0,86,86,86,,,,,,,,,1,1.43882594072,4,0.55030704058,,,,,2018_jun._28_1120,60.143937991,Experimento Piloto1,001,138,
0.25,Stim\\05_028.jpg,En28_21,Enojo,21,Mauro anuncia la actividad.,Afirmación,En28,28,,,,,,,,,0,87,87,87,,,,,,,,,1,3.22178142888,4,0.650530208946,,,,,2018_jun._28_1120,60.143937991,Experimento Piloto1,001,138,
0.25,Stim\\03_075.jpg,Tr75_22,Tristeza,22,Enrique corre todas las mañanas.,Afirmación,Tr75,75,,,,,,,,,0,88,88,88,,,,,,,,,1,2.10288815833,4,2.64954534075,,,,,2018_jun._28_1120,60.143937991,Experimento Piloto1,001,138,
0.25,Stim\\05_028.jpg,En28_27,Enojo,27,Claudia informa los avances en el reporte.,Afirmación,En28,28,,,,,,,,,0,89,89,89,,,,,,,,,1,1.21326211818,2,1.21688386275,,,,,2018_jun._28_1120,60.143937991,Experimento Piloto1,001,138,
2.5,Stim\\03_075.jpg,Tr75_22,Tristeza,22,Enrique corre todas las mañanas.,Afirmación,Tr75,75,,,,,,,,,0,90,90,90,,,,,,,,,1,2.15065315013,4,0.483637220432,,,,,2018_jun._28_1120,60.143937991,Experimento Piloto1,001,138,
0.25,Stim\\05_019.jpg,En19_28,Enojo,28,Antonio responde la pregunta.,Afirmación,En19,19,,,,,,,,,0,91,91,91,,,,,,,,,1,0.771381167196,4,0.383574254912,,,,,2018_jun._28_1120,60.143937991,Experimento Piloto1,001,138,
2.5,Stim\\03_019.jpg,Tr19_17,Tristeza,17,Brenda sube el autobús en las mañanas.,Afirmación,Tr19,19,,,,,,,,,0,92,92,92,,,,,,,,,1,0.465339734902,4,0.383791131188,,,,,2018_jun._28_1120,60.143937991,Experimento Piloto1,001,138,
0.25,Stim\\05_028.jpg,En28_29,Enojo,29,Miriam mira la película.,Afirmación,En28,28,,,,,,,,,0,93,93,93,,,,,,,,,1,1.90791549322,2,0.599942255576,,,,,2018_jun._28_1120,60.143937991,Experimento Piloto1,001,138,
0.25,Stim\\05_028.jpg,En28_18,Enojo,18,Sofía escucha la música.,Afirmación,En28,28,,,,,,,,,0,94,94,94,,,,,,,,,1,1.17472195435,2,0.383720177839,,,,,2018_jun._28_1120,60.143937991,Experimento Piloto1,001,138,
0.25,Stim\\05_028.jpg,En28_25,Enojo,25,Luis decide la comida siguiente.,Afirmación,En28,28,,,,,,,,,0,95,95,95,,,,,,,,,1,1.48525174382,2,0.383551050043,,,,,2018_jun._28_1120,60.143937991,Experimento Piloto1,001,138,
2.5,Stim\\03_075.jpg,Tr75_16,Tristeza,16,Valeria modifica algunas imágenes.,Afirmación,Tr75,75,,,,,,,,,0,96,96,96,,,,,,,,,1,1.38488443752,4,0.450188294125,,,,,2018_jun._28_1120,60.143937991,Experimento Piloto1,001,138,
2.5,Stim\\05_019.jpg,En19_18,Enojo,18,Sofía escucha la música.,Afirmación,En19,19,,,,,,,,,0,97,97,97,,,,,,,,,1,0.874076100368,2,0.383659934429,,,,,2018_jun._28_1120,60.143937991,Experimento Piloto1,001,138,
0.25,Stim\\05_075.jpg,En75_28,Enojo,28,Antonio responde la pregunta.,Afirmación,En75,75,,,,,,,,,0,98,98,98,,,,,,,,,1,1.38756147617,2,0.333690926316,,,,,2018_jun._28_1120,60.143937991,Experimento Piloto1,001,138,
0.25,Stim\\03_019.jpg,Tr19_24,Tristeza,24,Guadalupe comenta los resultados con los compañeros.,Afirmación,Tr19,19,,,,,,,,,0,99,99,99,,,,,,,,,1,2.23999725112,4,0.350343097377,,,,,2018_jun._28_1120,60.143937991,Experimento Piloto1,001,138,
0.25,Stim\\02_075.jpg,Al75_21,Alegría,21,Mauro anuncia la actividad.,Afirmación,Al75,75,,,,,,,,,0,100,100,100,,,,,,,,,1,2.08889829975,4,0.35032301624,,,,,2018_jun._28_1120,60.143937991,Experimento Piloto1,001,138,
0.25,Stim\\03_019.jpg,Tr19_23,Tristeza,23,Óscar consigue un nuevo departamento.,Afirmación,Tr19,19,,,,,,,,,0,101,101,101,,,,,,,,,1,1.78309293238,4,0.333478512514,,,,,2018_jun._28_1120,60.143937991,Experimento Piloto1,001,138,
2.5,Stim\\05_028.jpg,En28_30,Enojo,30,Marisol toma 2 litros de agua cada día.,Afirmación,En28,28,,,,,,,,,0,102,102,102,,,,,,,,,1,1.78250522444,2,1.01685655241,,,,,2018_jun._28_1120,60.143937991,Experimento Piloto1,001,138,
0.25,Stim\\02_078.jpg,Al78_19,Alegría,19,Armando acompaña a Rodrígo a la tienda.,Afirmación,Al78,78,,,,,,,,,0,103,103,103,,,,,,,,,1,1.43095547387,3,0.383628250857,,,,,2018_jun._28_1120,60.143937991,Experimento Piloto1,001,138,
2.5,Stim\\03_075.jpg,Tr75_25,Tristeza,25,Luis decide la comida siguiente.,Afirmación,Tr75,75,,,,,,,,,0,104,104,104,,,,,,,,,1,1.06877343078,4,0.350367640988,,,,,2018_jun._28_1120,60.143937991,Experimento Piloto1,001,138,
2.5,Stim\\03_028.jpg,Tr28_29,Tristeza,29,Miriam mira la película.,Afirmación,Tr28,28,,,,,,,,,0,105,105,105,,,,,,,,,1,1.49131535462,4,0.500194340779,,,,,2018_jun._28_1120,60.143937991,Experimento Piloto1,001,138,
0.25,Stim\\03_028.jpg,Tr28_24,Tristeza,24,Guadalupe comenta los resultados con los compañeros.,Afirmación,Tr28,28,,,,,,,,,0,106,106,106,,,,,,,,,1,3.20605968382,4,1.26682832725,,,,,2018_jun._28_1120,60.143937991,Experimento Piloto1,001,138,
0.25,Stim\\02_075.jpg,Al75_30,Alegría,30,Marisol toma 2 litros de agua cada día.,Afirmación,Al75,75,,,,,,,,,0,107,107,107,,,,,,,,,1,1.36543741848,3,0.450264602445,,,,,2018_jun._28_1120,60.143937991,Experimento Piloto1,001,138,
2.5,Stim\\05_019.jpg,En19_27,Enojo,27,Claudia informa los avances en el reporte.,Afirmación,En19,19,,,,,,,,,0,108,108,108,,,,,,,,,1,1.42968054481,2,0.333794455732,,,,,2018_jun._28_1120,60.143937991,Experimento Piloto1,001,138,
2.5,Stim\\05_075.jpg,En75_18,Enojo,18,Sofía escucha la música.,Afirmación,En75,75,,,,,,,,,0,109,109,109,,,,,,,,,1,1.29092569132,2,1.00014860041,,,,,2018_jun._28_1120,60.143937991,Experimento Piloto1,001,138,
2.5,Stim\\02_028.jpg,Al28_23,Alegría,23,Óscar consigue un nuevo departamento.,Afirmación,Al28,28,,,,,,,,,0,110,110,110,,,,,,,,,1,1.33295595671,3,1.98324697701,,,,,2018_jun._28_1120,60.143937991,Experimento Piloto1,001,138,
2.5,Stim\\05_078.jpg,En78_29,Enojo,29,Miriam mira la película.,Afirmación,En78,78,,,,,,,,,0,111,111,111,,,,,,,,,1,1.58761466887,2,0.350331494942,,,,,2018_jun._28_1120,60.143937991,Experimento Piloto1,001,138,
0.25,Stim\\03_078.jpg,Tr78_20,Tristeza,20,Karen analiza la idea.,Afirmación,Tr78,78,,,,,,,,,0,112,112,112,,,,,,,,,1,1.47387020178,4,0.350385937135,,,,,2018_jun._28_1120,60.143937991,Experimento Piloto1,001,138,
0.25,Stim\\02_019.jpg,Al19_25,Alegría,25,Luis decide la comida siguiente.,Afirmación,Al19,19,,,,,,,,,0,113,113,113,,,,,,,,,1,0.802052202923,3,0.350227073031,,,,,2018_jun._28_1120,60.143937991,Experimento Piloto1,001,138,
2.5,Stim\\03_078.jpg,Tr78_16,Tristeza,16,Valeria modifica algunas imágenes.,Afirmación,Tr78,78,,,,,,,,,0,114,114,114,,,,,,,,,1,1.83466575394,4,1.68324327315,,,,,2018_jun._28_1120,60.143937991,Experimento Piloto1,001,138,
0.25,Stim\\02_028.jpg,Al28_21,Alegría,21,Mauro anuncia la actividad.,Afirmación,Al28,28,,,,,,,,,0,115,115,115,,,,,,,,,1,0.954413142167,3,0.350690277919,,,,,2018_jun._28_1120,60.143937991,Experimento Piloto1,001,138,
2.5,Stim\\05_019.jpg,En19_30,Enojo,30,Marisol toma 2 litros de agua cada día.,Afirmación,En19,19,,,,,,,,,0,116,116,116,,,,,,,,,1,0.349643381324,2,0.500312596361,,,,,2018_jun._28_1120,60.143937991,Experimento Piloto1,001,138,
0.25,Stim\\05_078.jpg,En78_26,Enojo,26,Víctor trae el café a Marco.,Afirmación,En78,78,,,,,,,,,0,117,117,117,,,,,,,,,1,2.8716958163,2,1.2164153029,,,,,2018_jun._28_1120,60.143937991,Experimento Piloto1,001,138,
0.25,Stim\\02_078.jpg,Al78_21,Alegría,21,Mauro anuncia la actividad.,Afirmación,Al78,78,,,,,,,,,0,118,118,118,,,,,,,,,1,2.28934329774,3,2.19912232045,,,,,2018_jun._28_1120,60.143937991,Experimento Piloto1,001,138,
0.25,Stim\\03_075.jpg,Tr75_30,Tristeza,30,Marisol toma 2 litros de agua cada día.,Afirmación,Tr75,75,,,,,,,,,0,119,119,119,,,,,,,,,1,0.998287748409,2,0.766432282614,,,,,2018_jun._28_1120,60.143937991,Experimento Piloto1,001,138,
2.5,Stim\\02_078.jpg,Al78_17,Alegría,17,Brenda sube el autobús en las mañanas.,Afirmación,Al78,78,,,,,,,,,,,,,0,0,0,0,,,,,,,,,1,2.96488969432,3,2.48300845773,2018_jun._28_1120,60.143937991,Experimento Piloto1,001,138,
2.5,Stim\\05_019.jpg,En19_23,Enojo,23,Óscar consigue un nuevo departamento.,Afirmación,En19,19,,,,,,,,,,,,,0,1,1,1,,,,,,,,,1,1.38246979239,2,0.400332186626,2018_jun._28_1120,60.143937991,Experimento Piloto1,001,138,
0.25,Stim\\02_075.jpg,Al75_17,Alegría,17,Brenda sube el autobús en las mañanas.,Afirmación,Al75,75,,,,,,,,,,,,,0,2,2,2,,,,,,,,,1,3.36070050145,3,0.500206835708,2018_jun._28_1120,60.143937991,Experimento Piloto1,001,138,
2.5,Stim\\02_075.jpg,Al75_24,Alegría,24,Guadalupe comenta los resultados con los compañeros.,Afirmación,Al75,75,,,,,,,,,,,,,0,3,3,3,,,,,,,,,1,1.5733655405,3,0.333816768106,2018_jun._28_1120,60.143937991,Experimento Piloto1,001,138,
0.25,Stim\\05_075.jpg,En75_19,Enojo,19,Armando acompaña a Rodrígo a la tienda.,Afirmación,En75,75,,,,,,,,,,,,,0,4,4,4,,,,,,,,,1,1.94635748261,2,1.31670540839,2018_jun._28_1120,60.143937991,Experimento Piloto1,001,138,
2.5,Stim\\02_019.jpg,Al19_29,Alegría,29,Miriam mira la película.,Afirmación,Al19,19,,,,,,,,,,,,,0,5,5,5,,,,,,,,,1,1.54010671562,3,0.600262215021,2018_jun._28_1120,60.143937991,Experimento Piloto1,001,138,
2.5,Stim\\02_078.jpg,Al78_24,Alegría,24,Guadalupe comenta los resultados con los compañeros.,Afirmación,Al78,78,,,,,,,,,,,,,0,6,6,6,,,,,,,,,1,2.07178738628,3,0.866853138615,2018_jun._28_1120,60.143937991,Experimento Piloto1,001,138,
0.25,Stim\\05_028.jpg,En28_20,Enojo,20,Karen analiza la idea.,Afirmación,En28,28,,,,,,,,,,,,,0,7,7,7,,,,,,,,,1,5.12461193203,3,1.93319630561,2018_jun._28_1120,60.143937991,Experimento Piloto1,001,138,
0.25,Stim\\03_078.jpg,Tr78_27,Tristeza,27,Claudia informa los avances en el reporte.,Afirmación,Tr78,78,,,,,,,,,,,,,0,8,8,8,,,,,,,,,1,1.45801725996,4,0.500399168373,2018_jun._28_1120,60.143937991,Experimento Piloto1,001,138,
0.25,Stim\\02_019.jpg,Al19_30,Alegría,30,Marisol toma 2 litros de agua cada día.,Afirmación,Al19,19,,,,,,,,,,,,,0,9,9,9,,,,,,,,,1,1.73162542522,3,0.400015797161,2018_jun._28_1120,60.143937991,Experimento Piloto1,001,138,
2.5,Stim\\02_019.jpg,Al19_19,Alegría,19,Armando acompaña a Rodrígo a la tienda.,Afirmación,Al19,19,,,,,,,,,,,,,0,10,10,10,,,,,,,,,1,0.915032248075,3,0.38373936648,2018_jun._28_1120,60.143937991,Experimento Piloto1,001,138,
0.25,Stim\\02_028.jpg,Al28_30,Alegría,30,Marisol toma 2 litros de agua cada día.,Afirmación,Al28,28,,,,,,,,,,,,,0,11,11,11,,,,,,,,,1,0.815686848507,3,0.334011778256,2018_jun._28_1120,60.143937991,Experimento Piloto1,001,138,
2.5,Stim\\02_019.jpg,Al19_16,Alegría,16,Valeria modifica algunas imágenes.,Afirmación,Al19,19,,,,,,,,,,,,,0,12,12,12,,,,,,,,,1,1.21317420743,3,0.550521239372,2018_jun._28_1120,60.143937991,Experimento Piloto1,001,138,
2.5,Stim\\03_075.jpg,Tr75_30,Tristeza,30,Marisol toma 2 litros de agua cada día.,Afirmación,Tr75,75,,,,,,,,,,,,,0,13,13,13,,,,,,,,,1,2.39354967114,4,0.600108259639,2018_jun._28_1120,60.143937991,Experimento Piloto1,001,138,
2.5,Stim\\02_078.jpg,Al78_19,Alegría,19,Armando acompaña a Rodrígo a la tienda.,Afirmación,Al78,78,,,,,,,,,,,,,0,14,14,14,,,,,,,,,1,1.53187835829,3,0.800387699813,2018_jun._28_1120,60.143937991,Experimento Piloto1,001,138,
2.5,Stim\\05_075.jpg,En75_25,Enojo,25,Luis decide la comida siguiente.,Afirmación,En75,75,,,,,,,,,,,,,0,15,15,15,,,,,,,,,1,3.28430382492,4,0.75030712983,2018_jun._28_1120,60.143937991,Experimento Piloto1,001,138,
0.25,Stim\\03_075.jpg,Tr75_24,Tristeza,24,Guadalupe comenta los resultados con los compañeros.,Afirmación,Tr75,75,,,,,,,,,,,,,0,16,16,16,,,,,,,,,1,2.17315696443,4,0.450389997987,2018_jun._28_1120,60.143937991,Experimento Piloto1,001,138,
2.5,Stim\\05_078.jpg,En78_25,Enojo,25,Luis decide la comida siguiente.,Afirmación,En78,78,,,,,,,,,,,,,0,17,17,17,,,,,,,,,1,0.868858574801,2,0.349909344824,2018_jun._28_1120,60.143937991,Experimento Piloto1,001,138,
2.5,Stim\\05_028.jpg,En28_17,Enojo,17,Brenda sube el autobús en las mañanas.,Afirmación,En28,28,,,,,,,,,,,,,0,18,18,18,,,,,,,,,1,0.913643079661,2,0.433808334029,2018_jun._28_1120,60.143937991,Experimento Piloto1,001,138,
0.25,Stim\\02_078.jpg,Al78_26,Alegría,26,Víctor trae el café a Marco.,Afirmación,Al78,78,,,,,,,,,,,,,0,19,19,19,,,,,,,,,1,1.38802244982,3,0.450187847878,2018_jun._28_1120,60.143937991,Experimento Piloto1,001,138,
2.5,Stim\\03_075.jpg,Tr75_20,Tristeza,20,Karen analiza la idea.,Afirmación,Tr75,75,,,,,,,,,,,,,0,20,20,20,,,,,,,,,1,0.809388957784,4,0.916860077763,2018_jun._28_1120,60.143937991,Experimento Piloto1,001,138,
2.5,Stim\\05_028.jpg,En28_21,Enojo,21,Mauro anuncia la actividad.,Afirmación,En28,28,,,,,,,,,,,,,0,21,21,21,,,,,,,,,1,1.12210937615,2,0.650328505084,2018_jun._28_1120,60.143937991,Experimento Piloto1,001,138,
0.25,Stim\\05_019.jpg,En19_21,Enojo,21,Mauro anuncia la actividad.,Afirmación,En19,19,,,,,,,,,,,,,0,22,22,22,,,,,,,,,1,1.59998688032,2,0.399794012162,2018_jun._28_1120,60.143937991,Experimento Piloto1,001,138,
0.25,Stim\\03_028.jpg,Tr28_16,Tristeza,16,Valeria modifica algunas imágenes.,Afirmación,Tr28,28,,,,,,,,,,,,,0,23,23,23,,,,,,,,,1,1.98492129756,4,0.383618433413,2018_jun._28_1120,60.143937991,Experimento Piloto1,001,138,
0.25,Stim\\05_075.jpg,En75_27,Enojo,27,Claudia informa los avances en el reporte.,Afirmación,En75,75,,,,,,,,,,,,,0,24,24,24,,,,,,,,,1,2.71309053603,4,0.450029876269,2018_jun._28_1120,60.143937991,Experimento Piloto1,001,138,
2.5,Stim\\02_078.jpg,Al78_18,Alegría,18,Sofía escucha la música.,Afirmación,Al78,78,,,,,,,,,,,,,0,25,25,25,,,,,,,,,1,1.22430629713,3,1.31674378567,2018_jun._28_1120,60.143937991,Experimento Piloto1,001,138,
2.5,Stim\\03_028.jpg,Tr28_25,Tristeza,25,Luis decide la comida siguiente.,Afirmación,Tr28,28,,,,,,,,,,,,,0,26,26,26,,,,,,,,,1,2.4012858175,4,0.700252442201,2018_jun._28_1120,60.143937991,Experimento Piloto1,001,138,
0.25,Stim\\03_075.jpg,Tr75_18,Tristeza,18,Sofía escucha la música.,Afirmación,Tr75,75,,,,,,,,,,,,,0,27,27,27,,,,,,,,,1,2.10687091711,4,2.28302220215,2018_jun._28_1120,60.143937991,Experimento Piloto1,001,138,
2.5,Stim\\02_028.jpg,Al28_27,Alegría,27,Claudia informa los avances en el reporte.,Afirmación,Al28,28,,,,,,,,,,,,,0,28,28,28,,,,,,,,,1,3.57132842074,3,2.24973615618,2018_jun._28_1120,60.143937991,Experimento Piloto1,001,138,
2.5,Stim\\02_028.jpg,Al28_20,Alegría,20,Karen analiza la idea.,Afirmación,Al28,28,,,,,,,,,,,,,0,29,29,29,,,,,,,,,1,1.99011472577,3,0.55056229414,2018_jun._28_1120,60.143937991,Experimento Piloto1,001,138,
0.25,Stim\\05_078.jpg,En78_29,Enojo,29,Miriam mira la película.,Afirmación,En78,78,,,,,,,,,,,,,0,30,30,30,,,,,,,,,1,4.20652333495,2,0.33371859366,2018_jun._28_1120,60.143937991,Experimento Piloto1,001,138,
0.25,Stim\\05_019.jpg,En19_22,Enojo,22,Enrique corre todas las mañanas.,Afirmación,En19,19,,,,,,,,,,,,,0,31,31,31,,,,,,,,,1,1.43623502784,2,0.500262170396,2018_jun._28_1120,60.143937991,Experimento Piloto1,001,138,
2.5,Stim\\03_019.jpg,Tr19_20,Tristeza,20,Karen analiza la idea.,Afirmación,Tr19,19,,,,,,,,,,,,,0,32,32,32,,,,,,,,,1,1.69201158994,4,0.400151456396,2018_jun._28_1120,60.143937991,Experimento Piloto1,001,138,
2.5,Stim\\05_078.jpg,En78_22,Enojo,22,Enrique corre todas las mañanas.,Afirmación,En78,78,,,,,,,,,,,,,0,33,33,33,,,,,,,,,1,1.68574761403,2,0.283803581493,2018_jun._28_1120,60.143937991,Experimento Piloto1,001,138,
2.5,Stim\\02_078.jpg,Al78_16,Alegría,16,Valeria modifica algunas imágenes.,Afirmación,Al78,78,,,,,,,,,,,,,0,34,34,34,,,,,,,,,1,2.0016127384,3,1.78326295267,2018_jun._28_1120,60.143937991,Experimento Piloto1,001,138,
2.5,Stim\\05_028.jpg,En28_24,Enojo,24,Guadalupe comenta los resultados con los compañeros.,Afirmación,En28,28,,,,,,,,,,,,,0,35,35,35,,,,,,,,,1,2.02294158308,2,0.400381273849,2018_jun._28_1120,60.143937991,Experimento Piloto1,001,138,
2.5,Stim\\02_075.jpg,Al75_16,Alegría,16,Valeria modifica algunas imágenes.,Afirmación,Al75,75,,,,,,,,,,,,,0,36,36,36,,,,,,,,,1,0.918144824265,3,0.350371210968,2018_jun._28_1120,60.143937991,Experimento Piloto1,001,138,
0.25,Stim\\02_019.jpg,Al19_18,Alegría,18,Sofía escucha la música.,Afirmación,Al19,19,,,,,,,,,,,,,0,37,37,37,,,,,,,,,1,1.12504077586,3,0.383700096702,2018_jun._28_1120,60.143937991,Experimento Piloto1,001,138,
2.5,Stim\\02_028.jpg,Al28_26,Alegría,26,Víctor trae el café a Marco.,Afirmación,Al28,28,,,,,,,,,,,,,0,38,38,38,,,,,,,,,1,2.47199283862,3,2.43305908451,2018_jun._28_1120,60.143937991,Experimento Piloto1,001,138,
2.5,Stim\\02_078.jpg,Al78_29,Alegría,29,Miriam mira la película.,Afirmación,Al78,78,,,,,,,,,,,,,0,39,39,39,,,,,,,,,1,2.25764946279,2,4.3991317809,2018_jun._28_1120,60.143937991,Experimento Piloto1,001,138,
0.25,Stim\\05_078.jpg,En78_24,Enojo,24,Guadalupe comenta los resultados con los compañeros.,Afirmación,En78,78,,,,,,,,,,,,,0,40,40,40,,,,,,,,,1,2.53937665474,2,0.350302042609,2018_jun._28_1120,60.143937991,Experimento Piloto1,001,138,
0.25,Stim\\03_075.jpg,Tr75_19,Tristeza,19,Armando acompaña a Rodrígo a la tienda.,Afirmación,Tr75,75,,,,,,,,,,,,,0,41,41,41,,,,,,,,,1,1.7258416116,4,0.383689386762,2018_jun._28_1120,60.143937991,Experimento Piloto1,001,138,
0.25,Stim\\02_028.jpg,Al28_17,Alegría,17,Brenda sube el autobús en las mañanas.,Afirmación,Al28,28,,,,,,,,,,,,,0,42,42,42,,,,,,,,,1,1.16539091949,3,0.350304720093,2018_jun._28_1120,60.143937991,Experimento Piloto1,001,138,
2.5,Stim\\05_075.jpg,En75_21,Enojo,21,Mauro anuncia la actividad.,Afirmación,En75,75,,,,,,,,,,,,,0,43,43,43,,,,,,,,,1,2.05511201035,2,0.33353429345,2018_jun._28_1120,60.143937991,Experimento Piloto1,001,138,
0.25,Stim\\03_019.jpg,Tr19_27,Tristeza,27,Claudia informa los avances en el reporte.,Afirmación,Tr19,19,,,,,,,,,,,,,0,44,44,44,,,,,,,,,1,1.3634395685,2,0.35034086614,2018_jun._28_1120,60.143937991,Experimento Piloto1,001,138,
2.5,Stim\\02_075.jpg,Al75_19,Alegría,19,Armando acompaña a Rodrígo a la tienda.,Afirmación,Al75,75,,,,,,,,,,,,,0,45,45,45,,,,,,,,,1,3.68066842518,4,1.88325764232,2018_jun._28_1120,60.143937991,Experimento Piloto1,001,138,
2.5,Stim\\03_019.jpg,Tr19_22,Tristeza,22,Enrique corre todas las mañanas.,Afirmación,Tr19,19,,,,,,,,,,,,,0,46,46,46,,,,,,,,,1,0.669932603243,4,0.383616648423,2018_jun._28_1120,60.143937991,Experimento Piloto1,001,138,
2.5,Stim\\02_075.jpg,Al75_23,Alegría,23,Óscar consigue un nuevo departamento.,Afirmación,Al75,75,,,,,,,,,,,,,0,47,47,47,,,,,,,,,1,1.23232491815,4,0.38380317987,2018_jun._28_1120,60.143937991,Experimento Piloto1,001,138,
2.5,Stim\\02_019.jpg,Al19_27,Alegría,27,Claudia informa los avances en el reporte.,Afirmación,Al19,19,,,,,,,,,,,,,0,48,48,48,,,,,,,,,1,1.43008707627,2,0.700217634897,2018_jun._28_1120,60.143937991,Experimento Piloto1,001,138,
2.5,Stim\\03_028.jpg,Tr28_16,Tristeza,16,Valeria modifica algunas imágenes.,Afirmación,Tr28,28,,,,,,,,,,,,,0,49,49,49,,,,,,,,,1,0.718443274582,4,0.400255432059,2018_jun._28_1120,60.143937991,Experimento Piloto1,001,138,
2.5,Stim\\02_078.jpg,Al78_20,Alegría,20,Karen analiza la idea.,Afirmación,Al78,78,,,,,,,,,,,,,0,50,50,50,,,,,,,,,1,1.54226878468,4,2.69947820282,2018_jun._28_1120,60.143937991,Experimento Piloto1,001,138,
2.5,Stim\\05_075.jpg,En75_24,Enojo,24,Guadalupe comenta los resultados con los compañeros.,Afirmación,En75,75,,,,,,,,,,,,,0,51,51,51,,,,,,,,,1,2.75319479729,4,1.93318648816,2018_jun._28_1120,60.143937991,Experimento Piloto1,001,138,
0.25,Stim\\03_028.jpg,Tr28_26,Tristeza,26,Víctor trae el café a Marco.,Afirmación,Tr28,28,,,,,,,,,,,,,0,52,52,52,,,,,,,,,1,1.83853293463,4,1.26666633942,2018_jun._28_1120,60.143937991,Experimento Piloto1,001,138,
2.5,Stim\\03_028.jpg,Tr28_21,Tristeza,21,Mauro anuncia la actividad.,Afirmación,Tr28,28,,,,,,,,,,,,,0,53,53,53,,,,,,,,,1,1.27259161349,4,0.500451825576,2018_jun._28_1120,60.143937991,Experimento Piloto1,001,138,
2.5,Stim\\02_075.jpg,Al75_29,Alegría,29,Miriam mira la película.,Afirmación,Al75,75,,,,,,,,,,,,,0,54,54,54,,,,,,,,,1,2.20750329442,4,0.550261523337,2018_jun._28_1120,60.143937991,Experimento Piloto1,001,138,
0.25,Stim\\03_078.jpg,Tr78_26,Tristeza,26,Víctor trae el café a Marco.,Afirmación,Tr78,78,,,,,,,,,,,,,0,55,55,55,,,,,,,,,1,1.52212026459,4,0.400373241395,2018_jun._28_1120,60.143937991,Experimento Piloto1,001,138,
0.25,Stim\\05_019.jpg,En19_19,Enojo,19,Armando acompaña a Rodrígo a la tienda.,Afirmación,En19,19,,,,,,,,,,,,,0,56,56,56,,,,,,,,,1,1.11496807769,2,0.500316166341,2018_jun._28_1120,60.143937991,Experimento Piloto1,001,138,
0.25,Stim\\03_078.jpg,Tr78_19,Tristeza,19,Armando acompaña a Rodrígo a la tienda.,Afirmación,Tr78,78,,,,,,,,,,,,,0,57,57,57,,,,,,,,,1,3.23276938064,4,0.333754293459,2018_jun._28_1120,60.143937991,Experimento Piloto1,001,138,
2.5,Stim\\03_078.jpg,Tr78_18,Tristeza,18,Sofía escucha la música.,Afirmación,Tr78,78,,,,,,,,,,,,,0,58,58,58,,,,,,,,,1,1.19178958182,4,0.401079651159,2018_jun._28_1120,60.143937991,Experimento Piloto1,001,138,
2.5,Stim\\05_075.jpg,En75_26,Enojo,26,Víctor trae el café a Marco.,Afirmación,En75,75,,,,,,,,,,,,,0,59,59,59,,,,,,,,,1,0.603904486974,2,0.400806993948,2018_jun._28_1120,60.143937991,Experimento Piloto1,001,138,
2.5,Stim\\02_075.jpg,Al75_30,Alegría,30,Marisol toma 2 litros de agua cada día.,Afirmación,Al75,75,,,,,,,,,,,,,0,60,60,60,,,,,,,,,1,1.73000242312,4,0.600232316439,2018_jun._28_1120,60.143937991,Experimento Piloto1,001,138,
2.5,Stim\\03_019.jpg,Tr19_18,Tristeza,18,Sofía escucha la música.,Afirmación,Tr19,19,,,,,,,,,,,,,0,61,61,61,,,,,,,,,1,1.39070975216,4,2.33314739688,2018_jun._28_1120,60.143937991,Experimento Piloto1,001,138,
0.25,Stim\\03_078.jpg,Tr78_23,Tristeza,23,Óscar consigue un nuevo departamento.,Afirmación,Tr78,78,,,,,,,,,,,,,0,62,62,62,,,,,,,,,1,1.01694267817,4,0.350640298201,2018_jun._28_1120,60.143937991,Experimento Piloto1,001,138,
2.5,Stim\\03_019.jpg,Tr19_25,Tristeza,25,Luis decide la comida siguiente.,Afirmación,Tr19,19,,,,,,,,,,,,,0,63,63,63,,,,,,,,,1,1.15900199428,3,1.11675485261,2018_jun._28_1120,60.143937991,Experimento Piloto1,001,138,
0.25,Stim\\02_028.jpg,Al28_29,Alegría,29,Miriam mira la película.,Afirmación,Al28,28,,,,,,,,,,,,,0,64,64,64,,,,,,,,,1,3.07284454657,3,1.41672107167,2018_jun._28_1120,60.143937991,Experimento Piloto1,001,138,
2.5,Stim\\02_019.jpg,Al19_21,Alegría,21,Mauro anuncia la actividad.,Afirmación,Al19,19,,,,,,,,,,,,,0,65,65,65,,,,,,,,,1,1.8890485959,3,1.73330019202,2018_jun._28_1120,60.143937991,Experimento Piloto1,001,138,
2.5,Stim\\02_078.jpg,Al78_25,Alegría,25,Luis decide la comida siguiente.,Afirmación,Al78,78,,,,,,,,,,,,,0,66,66,66,,,,,,,,,1,2.71789483643,4,0.90018871806,2018_jun._28_1120,60.143937991,Experimento Piloto1,001,138,
2.5,Stim\\05_075.jpg,En75_29,Enojo,29,Miriam mira la película.,Afirmación,En75,75,,,,,,,,,,,,,0,67,67,67,,,,,,,,,1,2.00716941206,2,0.399850685592,2018_jun._28_1120,60.143937991,Experimento Piloto1,001,138,
0.25,Stim\\03_028.jpg,Tr28_20,Tristeza,20,Karen analiza la idea.,Afirmación,Tr28,28,,,,,,,,,,,,,0,68,68,68,,,,,,,,,1,1.37497328093,4,0.650285219078,2018_jun._28_1120,60.143937991,Experimento Piloto1,001,138,
2.5,Stim\\02_075.jpg,Al75_26,Alegría,26,Víctor trae el café a Marco.,Afirmación,Al75,75,,,,,,,,,,,,,0,69,69,69,,,,,,,,,1,1.02223383457,4,0.300338389466,2018_jun._28_1120,60.143937991,Experimento Piloto1,001,138,
0.25,Stim\\05_019.jpg,En19_20,Enojo,20,Karen analiza la idea.,Afirmación,En19,19,,,,,,,,,,,,,0,70,70,70,,,,,,,,,1,2.14224272382,2,0.350362286019,2018_jun._28_1120,60.143937991,Experimento Piloto1,001,138,
0.25,Stim\\05_028.jpg,En28_22,Enojo,22,Enrique corre todas las mañanas.,Afirmación,En28,28,,,,,,,,,,,,,0,71,71,71,,,,,,,,,1,1.17044020975,2,0.333641392845,2018_jun._28_1120,60.143937991,Experimento Piloto1,001,138,
2.5,Stim\\05_028.jpg,En28_22,Enojo,22,Enrique corre todas las mañanas.,Afirmación,En28,28,,,,,,,,,,,,,0,72,72,72,,,,,,,,,1,0.366884152815,2,0.45038419677,2018_jun._28_1120,60.143937991,Experimento Piloto1,001,138,
0.25,Stim\\05_019.jpg,En19_17,Enojo,17,Brenda sube el autobús en las mañanas.,Afirmación,En19,19,,,,,,,,,,,,,0,73,73,73,,,,,,,,,1,4.2480475557,4,1.11667899053,2018_jun._28_1120,60.143937991,Experimento Piloto1,001,138,
2.5,Stim\\05_078.jpg,En78_26,Enojo,26,Víctor trae el café a Marco.,Afirmación,En78,78,,,,,,,,,,,,,0,74,74,74,,,,,,,,,1,2.50519945254,2,0.950078740368,2018_jun._28_1120,60.143937991,Experimento Piloto1,001,138,
2.5,Stim\\03_078.jpg,Tr78_29,Tristeza,29,Miriam mira la película.,Afirmación,Tr78,78,,,,,,,,,,,,,0,75,75,75,,,,,,,,,1,1.14139217612,4,0.450741194756,2018_jun._28_1120,60.143937991,Experimento Piloto1,001,138,
0.25,Stim\\02_075.jpg,Al75_22,Alegría,22,Enrique corre todas las mañanas.,Afirmación,Al75,75,,,,,,,,,,,,,0,76,76,76,,,,,,,,,1,1.61928529896,3,1.01669054834,2018_jun._28_1120,60.143937991,Experimento Piloto1,001,138,
2.5,Stim\\02_019.jpg,Al19_23,Alegría,23,Óscar consigue un nuevo departamento.,Afirmación,Al19,19,,,,,,,,,,,,,0,77,77,77,,,,,,,,,1,1.21667234145,3,0.350346667357,2018_jun._28_1120,60.143937991,Experimento Piloto1,001,138,
0.25,Stim\\05_075.jpg,En75_21,Enojo,21,Mauro anuncia la actividad.,Afirmación,En75,75,,,,,,,,,,,,,0,78,78,78,,,,,,,,,1,2.70572432883,4,0.450352066951,2018_jun._28_1120,60.143937991,Experimento Piloto1,001,138,
0.25,Stim\\02_078.jpg,Al78_25,Alegría,25,Luis decide la comida siguiente.,Afirmación,Al78,78,,,,,,,,,,,,,0,79,79,79,,,,,,,,,1,2.15127700411,4,0.483654177836,2018_jun._28_1120,60.143937991,Experimento Piloto1,001,138,
0.25,Stim\\03_078.jpg,Tr78_22,Tristeza,22,Enrique corre todas las mañanas.,Afirmación,Tr78,78,,,,,,,,,,,,,0,80,80,80,,,,,,,,,1,0.919834317235,4,0.500321521311,2018_jun._28_1120,60.143937991,Experimento Piloto1,001,138,
0.25,Stim\\05_028.jpg,En28_26,Enojo,26,Víctor trae el café a Marco.,Afirmación,En28,28,,,,,,,,,,,,,0,81,81,81,,,,,,,,,1,1.17177136599,2,0.500320182569,2018_jun._28_1120,60.143937991,Experimento Piloto1,001,138,
2.5,Stim\\05_019.jpg,En19_29,Enojo,29,Miriam mira la película.,Afirmación,En19,19,,,,,,,,,,,,,0,82,82,82,,,,,,,,,1,1.6368527236,2,1.00047748481,2018_jun._28_1120,60.143937991,Experimento Piloto1,001,138,
0.25,Stim\\02_019.jpg,Al19_21,Alegría,21,Mauro anuncia la actividad.,Afirmación,Al19,19,,,,,,,,,,,,,0,83,83,83,,,,,,,,,1,1.28889348028,4,1.56670306559,2018_jun._28_1120,60.143937991,Experimento Piloto1,001,138,
2.5,Stim\\05_078.jpg,En78_30,Enojo,30,Marisol toma 2 litros de agua cada día.,Afirmación,En78,78,,,,,,,,,,,,,0,84,84,84,,,,,,,,,1,1.27840934192,2,0.849998817444,2018_jun._28_1120,60.143937991,Experimento Piloto1,001,138,
0.25,Stim\\02_078.jpg,Al78_30,Alegría,30,Marisol toma 2 litros de agua cada día.,Afirmación,Al78,78,,,,,,,,,,,,,0,85,85,85,,,,,,,,,1,1.89980539147,3,0.900051720083,2018_jun._28_1120,60.143937991,Experimento Piloto1,001,138,
0.25,Stim\\03_075.jpg,Tr75_16,Tristeza,16,Valeria modifica algunas imágenes.,Afirmación,Tr75,75,,,,,,,,,,,,,0,86,86,86,,,,,,,,,1,1.63495081683,4,0.350398432065,2018_jun._28_1120,60.143937991,Experimento Piloto1,001,138,
0.25,Stim\\02_019.jpg,Al19_24,Alegría,24,Guadalupe comenta los resultados con los compañeros.,Afirmación,Al19,19,,,,,,,,,,,,,0,87,87,87,,,,,,,,,1,3.50646188667,4,2.34987096754,2018_jun._28_1120,60.143937991,Experimento Piloto1,001,138,
2.5,Stim\\02_028.jpg,Al28_29,Alegría,29,Miriam mira la película.,Afirmación,Al28,28,,,,,,,,,,,,,0,88,88,88,,,,,,,,,1,2.15692158852,2,1.46662983637,2018_jun._28_1120,60.143937991,Experimento Piloto1,001,138,
0.25,Stim\\03_019.jpg,Tr19_25,Tristeza,25,Luis decide la comida siguiente.,Afirmación,Tr19,19,,,,,,,,,,,,,0,89,89,89,,,,,,,,,1,2.96784206766,4,2.03343955511,2018_jun._28_1120,60.143937991,Experimento Piloto1,001,138,
0.25,Stim\\03_075.jpg,Tr75_25,Tristeza,25,Luis decide la comida siguiente.,Afirmación,Tr75,75,,,,,,,,,,,,,0,90,90,90,,,,,,,,,1,1.03336726302,4,0.383864315776,2018_jun._28_1120,60.143937991,Experimento Piloto1,001,138,
2.5,Stim\\03_078.jpg,Tr78_25,Tristeza,25,Luis decide la comida siguiente.,Afirmación,Tr78,78,,,,,,,,,,,,,0,91,91,91,,,,,,,,,1,0.366939041255,4,0.55045965722,2018_jun._28_1120,60.143937991,Experimento Piloto1,001,138,
2.5,Stim\\02_019.jpg,Al19_18,Alegría,18,Sofía escucha la música.,Afirmación,Al19,19,,,,,,,,,,,,,0,92,92,92,,,,,,,,,1,1.14121456962,3,1.56654286274,2018_jun._28_1120,60.143937991,Experimento Piloto1,001,138,
2.5,Stim\\03_028.jpg,Tr28_19,Tristeza,19,Armando acompaña a Rodrígo a la tienda.,Afirmación,Tr28,28,,,,,,,,,,,,,0,93,93,93,,,,,,,,,1,1.23191526296,4,0.333668167695,2018_jun._28_1120,60.143937991,Experimento Piloto1,001,138,
0.25,Stim\\03_078.jpg,Tr78_18,Tristeza,18,Sofía escucha la música.,Afirmación,Tr78,78,,,,,,,,,,,,,0,94,94,94,,,,,,,,,1,1.27454171499,4,0.40021794727,2018_jun._28_1120,60.143937991,Experimento Piloto1,001,138,
0.25,Stim\\05_019.jpg,En19_29,Enojo,29,Miriam mira la película.,Afirmación,En19,19,,,,,,,,,,,,,0,95,95,95,,,,,,,,,1,2.30693392726,4,0.383701881692,2018_jun._28_1120,60.143937991,Experimento Piloto1,001,138,
2.5,Stim\\03_078.jpg,Tr78_24,Tristeza,24,Guadalupe comenta los resultados con los compañeros.,Afirmación,Tr78,78,,,,,,,,,,,,,0,96,96,96,,,,,,,,,1,1.47303527274,4,0.350421190687,2018_jun._28_1120,60.143937991,Experimento Piloto1,001,138,
2.5,Stim\\05_019.jpg,En19_22,Enojo,22,Enrique corre todas las mañanas.,Afirmación,En19,19,,,,,,,,,,,,,0,97,97,97,,,,,,,,,1,2.22571331544,2,0.649166922887,2018_jun._28_1120,60.143937991,Experimento Piloto1,001,138,
0.25,Stim\\02_028.jpg,Al28_20,Alegría,20,Karen analiza la idea.,Afirmación,Al28,28,,,,,,,,,,,,,0,98,98,98,,,,,,,,,1,1.59288976036,4,1.14945006692,2018_jun._28_1120,60.143937991,Experimento Piloto1,001,138,
2.5,Stim\\03_078.jpg,Tr78_27,Tristeza,27,Claudia informa los avances en el reporte.,Afirmación,Tr78,78,,,,,,,,,,,,,0,99,99,99,,,,,,,,,1,3.07894787339,4,2.28307039688,2018_jun._28_1120,60.143937991,Experimento Piloto1,001,138,
0.25,Stim\\03_075.jpg,Tr75_17,Tristeza,17,Brenda sube el autobús en las mañanas.,Afirmación,Tr75,75,,,,,,,,,,,,,0,100,100,100,,,,,,,,,1,1.73230595263,4,0.650419093323,2018_jun._28_1120,60.143937991,Experimento Piloto1,001,138,
2.5,Stim\\05_028.jpg,En28_25,Enojo,25,Luis decide la comida siguiente.,Afirmación,En28,28,,,,,,,,,,,,,0,101,101,101,,,,,,,,,1,2.00154000006,2,0.483626064244,2018_jun._28_1120,60.143937991,Experimento Piloto1,001,138,
2.5,Stim\\02_028.jpg,Tr28_30,Tristeza,30,Marisol toma 2 litros de agua cada día.,Afirmación,Tr28,28,,,,,,,,,,,,,0,102,102,102,,,,,,,,,1,1.38190305809,3,0.300378105492,2018_jun._28_1120,60.143937991,Experimento Piloto1,001,138,
0.25,Stim\\02_078.jpg,Al78_18,Alegría,18,Sofía escucha la música.,Afirmación,Al78,78,,,,,,,,,,,,,0,103,103,103,,,,,,,,,1,1.17433818151,3,0.383585857346,2018_jun._28_1120,60.143937991,Experimento Piloto1,001,138,
0.25,Stim\\02_078.jpg,Al78_24,Alegría,24,Guadalupe comenta los resultados con los compañeros.,Afirmación,Al78,78,,,,,,,,,,,,,0,104,104,104,,,,,,,,,1,2.60588761079,3,0.283705407047,2018_jun._28_1120,60.143937991,Experimento Piloto1,001,138,
0.25,Stim\\05_075.jpg,En75_26,Enojo,26,Víctor trae el café a Marco.,Afirmación,En75,75,,,,,,,,,,,,,0,105,105,105,,,,,,,,,1,1.32207733558,2,0.350368087236,2018_jun._28_1120,60.143937991,Experimento Piloto1,001,138,
0.25,Stim\\05_019.jpg,En19_16,Enojo,16,Valeria modifica algunas imágenes.,Afirmación,En19,19,,,,,,,,,,,,,0,106,106,106,,,,,,,,,1,1.01837290135,2,0.433640098728,2018_jun._28_1120,60.143937991,Experimento Piloto1,001,138,
2.5,Stim\\05_019.jpg,En19_21,Enojo,21,Mauro anuncia la actividad.,Afirmación,En19,19,,,,,,,,,,,,,0,107,107,107,,,,,,,,,1,0.989588599983,2,0.383650116984,2018_jun._28_1120,60.143937991,Experimento Piloto1,001,138,
0.25,Stim\\03_028.jpg,Tr28_22,Tristeza,22,Enrique corre todas las mañanas.,Afirmación,Tr28,28,,,,,,,,,,,,,0,108,108,108,,,,,,,,,1,1.63619316983,2,0.400074701829,2018_jun._28_1120,60.143937991,Experimento Piloto1,001,138,
2.5,Stim\\05_075.jpg,En75_28,Enojo,28,Antonio responde la pregunta.,Afirmación,En75,75,,,,,,,,,,,,,0,109,109,109,,,,,,,,,1,0.804758693905,2,0.400277744433,2018_jun._28_1120,60.143937991,Experimento Piloto1,001,138,
2.5,Stim\\05_078.jpg,En78_28,Enojo,28,Antonio responde la pregunta.,Afirmación,En78,78,,,,,,,,,,,,,0,110,110,110,,,,,,,,,1,0.734135567308,4,0.33351822854,2018_jun._28_1120,60.143937991,Experimento Piloto1,001,138,
2.5,Stim\\03_028.jpg,Tr28_26,Tristeza,26,Víctor trae el café a Marco.,Afirmación,Tr28,28,,,,,,,,,,,,,0,111,111,111,,,,,,,,,1,0.672064773714,4,0.400190279927,2018_jun._28_1120,60.143937991,Experimento Piloto1,001,138,
2.5,Stim\\05_028.jpg,En28_20,Enojo,20,Karen analiza la idea.,Afirmación,En28,28,,,,,,,,,,,,,0,112,112,112,,,,,,,,,1,1.94264247232,2,0.400236243418,2018_jun._28_1120,60.143937991,Experimento Piloto1,001,138,
2.5,Stim\\02_019.jpg,Al19_30,Alegría,30,Marisol toma 2 litros de agua cada día.,Afirmación,Al19,19,,,,,,,,,,,,,0,113,113,113,,,,,,,,,1,0.815270499606,3,0.383673321853,2018_jun._28_1120,60.143937991,Experimento Piloto1,001,138,
2.5,Stim\\05_078.jpg,En78_23,Enojo,23,Óscar consigue un nuevo departamento.,Afirmación,En78,78,,,,,,,,,,,,,0,114,114,114,,,,,,,,,1,1.59959329004,2,0.333654334022,2018_jun._28_1120,60.143937991,Experimento Piloto1,001,138,
0.25,Stim\\05_078.jpg,En78_23,Enojo,23,Óscar consigue un nuevo departamento.,Afirmación,En78,78,,,,,,,,,,,,,0,115,115,115,,,,,,,,,1,1.18343895267,2,0.350343543624,2018_jun._28_1120,60.143937991,Experimento Piloto1,001,138,
2.5,Stim\\05_019.jpg,En19_19,Enojo,19,Armando acompaña a Rodrígo a la tienda.,Afirmación,En19,19,,,,,,,,,,,,,0,116,116,116,,,,,,,,,1,1.58081876596,2,0.333959567301,2018_jun._28_1120,60.143937991,Experimento Piloto1,001,138,
2.5,Stim\\03_078.jpg,Tr78_17,Tristeza,17,Brenda sube el autobús en las mañanas.,Afirmación,Tr78,78,,,,,,,,,,,,,0,117,117,117,,,,,,,,,1,0.515862089893,4,0.500155071,2018_jun._28_1120,60.143937991,Experimento Piloto1,001,138,
0.25,Stim\\05_075.jpg,En75_20,Enojo,20,Karen analiza la idea.,Afirmación,En75,75,,,,,,,,,,,,,0,118,118,118,,,,,,,,,1,2.9088137894,2,0.450350281962,2018_jun._28_1120,60.143937991,Experimento Piloto1,001,138,
0.25,Stim\\05_078.jpg,En78_28,Enojo,28,Antonio responde la pregunta.,Afirmación,En78,78,,,,,,,,,,,,,0,119,119,119,,,,,,,,,1,1.22109599274,2,1.11660937593,2018_jun._28_1120,60.143937991,Experimento Piloto1,001,138,
