Tiempo,ImagenesE,ClaveEn,Emocion,NumEn,Enunciado,ActoHabla,Clave,Cara,trials.thisRepN,trials.thisTrialN,trials.thisN,trials.thisIndex,Bloque1.thisRepN,Bloque1.thisTrialN,Bloque1.thisN,Bloque1.thisIndex,Bloque3.thisRepN,Bloque3.thisTrialN,Bloque3.thisN,Bloque3.thisIndex,Bloque2.thisRepN,Bloque2.thisTrialN,Bloque2.thisN,Bloque2.thisIndex,Sig_B1.keys,Sig_B1.rt,Resp_Bloque1.keys,Resp_Bloque1.rt,Sig_B3.keys,Sig_B3.rt,Resp_Bloque3.keys,Resp_Bloque3.rt,Sig_B2.keys,Sig_B2.rt,Resp_Bloque2.keys,Resp_Bloque2.rt,date,frameRate,expName,session,participant,
2.5,Stim\\05_028.jpg,En28_16,Enojo,16,Valeria modifica algunas imágenes.,Afirmación,En28,28,,,,,0,0,0,0,,,,,,,,,1,3.880921983,2,1.14993826166,,,,,,,,,2018_jun._28_1205,60.0027043816,Experimento Piloto1,001,139,
2.5,Stim\\05_028.jpg,En28_29,Enojo,29,Miriam mira la película.,Afirmación,En28,28,,,,,0,1,1,1,,,,,,,,,1,5.80565252761,2,1.05026174646,,,,,,,,,2018_jun._28_1205,60.0027043816,Experimento Piloto1,001,139,
0.25,Stim\\03_028.jpg,Tr28_29,Tristeza,29,Miriam mira la película.,Afirmación,Tr28,28,,,,,0,2,2,2,,,,,,,,,1,3.84942048071,4,2.39967352534,,,,,,,,,2018_jun._28_1205,60.0027043816,Experimento Piloto1,001,139,
2.5,Stim\\02_075.jpg,Al75_22,Alegría,22,Enrique corre todas las mañanas.,Afirmación,Al75,75,,,,,0,3,3,3,,,,,,,,,1,4.34926987218,3,2.24963173427,,,,,,,,,2018_jun._28_1205,60.0027043816,Experimento Piloto1,001,139,
2.5,Stim\\05_019.jpg,En19_17,Enojo,17,Brenda sube el autobús en las mañanas.,Afirmación,En19,19,,,,,0,4,4,4,,,,,,,,,1,5.36011859473,2,1.21688921772,,,,,,,,,2018_jun._28_1205,60.0027043816,Experimento Piloto1,001,139,
2.5,Stim\\02_028.jpg,Al28_17,Alegría,17,Brenda sube el autobús en las mañanas.,Afirmación,Al28,28,,,,,0,5,5,5,,,,,,,,,1,3.69943134683,3,0.967018294808,,,,,,,,,2018_jun._28_1205,60.0027043816,Experimento Piloto1,001,139,
0.25,Stim\\05_075.jpg,En75_24,Enojo,24,Guadalupe comenta los resultados con los compañeros.,Afirmación,En75,75,,,,,0,6,6,6,,,,,,,,,1,3.92217086905,2,0.450327969587,,,,,,,,,2018_jun._28_1205,60.0027043816,Experimento Piloto1,001,139,
2.5,Stim\\03_078.jpg,Tr78_23,Tristeza,23,Óscar consigue un nuevo departamento.,Afirmación,Tr78,78,,,,,0,7,7,7,,,,,,,,,1,8.593839375,4,1.11687712442,,,,,,,,,2018_jun._28_1205,60.0027043816,Experimento Piloto1,001,139,
0.25,Stim\\05_075.jpg,En75_16,Enojo,16,Valeria modifica algunas imágenes.,Afirmación,En75,75,,,,,0,8,8,8,,,,,,,,,1,4.81659228465,2,1.93314944962,,,,,,,,,2018_jun._28_1205,60.0027043816,Experimento Piloto1,001,139,
0.25,Stim\\02_078.jpg,Al78_23,Alegría,23,Óscar consigue un nuevo departamento.,Afirmación,Al78,78,,,,,0,9,9,9,,,,,,,,,1,4.64776972202,3,1.83324133198,,,,,,,,,2018_jun._28_1205,60.0027043816,Experimento Piloto1,001,139,
2.5,Stim\\05_078.jpg,En78_24,Enojo,24,Guadalupe comenta los resultados con los compañeros.,Afirmación,En78,78,,,,,0,10,10,10,,,,,,,,,1,3.86203634329,2,0.916593668016,,,,,,,,,2018_jun._28_1205,60.0027043816,Experimento Piloto1,001,139,
2.5,Stim\\03_028.jpg,Tr28_28,Tristeza,28,Antonio responde la pregunta.,Afirmación,Tr28,28,,,,,0,11,11,11,,,,,,,,,1,2.50360277905,4,3.01610819538,,,,,,,,,2018_jun._28_1205,60.0027043816,Experimento Piloto1,001,139,
0.25,Stim\\02_019.jpg,Al19_20,Alegría,20,Karen analiza la idea.,Afirmación,Al19,19,,,,,0,12,12,12,,,,,,,,,1,3.57237710233,3,0.966886205553,,,,,,,,,2018_jun._28_1205,60.0027043816,Experimento Piloto1,001,139,
2.5,Stim\\05_078.jpg,En78_27,Enojo,27,Claudia informa los avances en el reporte.,Afirmación,En78,78,,,,,0,13,13,13,,,,,,,,,1,1.92681139662,2,1.31651709195,,,,,,,,,2018_jun._28_1205,60.0027043816,Experimento Piloto1,001,139,
0.25,Stim\\05_028.jpg,En28_28,Enojo,28,Antonio responde la pregunta.,Afirmación,En28,28,,,,,0,14,14,14,,,,,,,,,1,7.06862170664,2,0.866686242057,,,,,,,,,2018_jun._28_1205,60.0027043816,Experimento Piloto1,001,139,
2.5,Stim\\03_078.jpg,Tr78_30,Tristeza,30,Marisol toma 2 litros de agua cada día.,Afirmación,Tr78,78,,,,,0,15,15,15,,,,,,,,,1,3.31428853202,4,1.53357231374,,,,,,,,,2018_jun._28_1205,60.0027043816,Experimento Piloto1,001,139,
0.25,Stim\\03_028.jpg,Tr28_27,Tristeza,27,Claudia informa los avances en el reporte.,Afirmación,Tr28,28,,,,,0,16,16,16,,,,,,,,,1,2.12885217561,4,1.21658130696,,,,,,,,,2018_jun._28_1205,60.0027043816,Experimento Piloto1,001,139,
0.25,Stim\\02_075.jpg,Al75_24,Alegría,24,Guadalupe comenta los resultados con los compañeros.,Afirmación,Al75,75,,,,,0,17,17,17,,,,,,,,,1,1.6729800273,3,1.00009326572,,,,,,,,,2018_jun._28_1205,60.0027043816,Experimento Piloto1,001,139,
0.25,Stim\\02_019.jpg,Al19_16,Alegría,16,Valeria modifica algunas imágenes.,Afirmación,Al19,19,,,,,0,18,18,18,,,,,,,,,1,1.43409839489,3,0.650382947277,,,,,,,,,2018_jun._28_1205,60.0027043816,Experimento Piloto1,001,139,
2.5,Stim\\02_028.jpg,Al28_30,Alegría,30,Marisol toma 2 litros de agua cada día.,Afirmación,Al28,28,,,,,0,19,19,19,,,,,,,,,1,2.39782338328,3,0.650429803263,,,,,,,,,2018_jun._28_1205,60.0027043816,Experimento Piloto1,001,139,
2.5,Stim\\05_078.jpg,En78_16,Enojo,16,Valeria modifica algunas imágenes.,Afirmación,En78,78,,,,,0,20,20,20,,,,,,,,,1,1.53395296284,2,1.36651555239,,,,,,,,,2018_jun._28_1205,60.0027043816,Experimento Piloto1,001,139,
0.25,Stim\\02_075.jpg,Al75_28,Alegría,28,Antonio responde la pregunta.,Afirmación,Al75,75,,,,,0,21,21,21,,,,,,,,,1,2.76702668426,3,0.482492595638,,,,,,,,,2018_jun._28_1205,60.0027043816,Experimento Piloto1,001,139,
2.5,Stim\\03_075.jpg,Tr75_17,Tristeza,17,Brenda sube el autobús en las mañanas.,Afirmación,Tr75,75,,,,,0,22,22,22,,,,,,,,,1,1.18159639682,4,0.600414385412,,,,,,,,,2018_jun._28_1205,60.0027043816,Experimento Piloto1,001,139,
0.25,Stim\\05_075.jpg,En75_18,Enojo,18,Sofía escucha la música.,Afirmación,En75,75,,,,,0,23,23,23,,,,,,,,,1,2.24029802192,2,0.600334507113,,,,,,,,,2018_jun._28_1205,60.0027043816,Experimento Piloto1,001,139,
2.5,Stim\\02_075.jpg,Al75_25,Alegría,25,Luis decide la comida siguiente.,Afirmación,Al75,75,,,,,0,24,24,24,,,,,,,,,1,1.13008783489,3,1.21632873088,,,,,,,,,2018_jun._28_1205,60.0027043816,Experimento Piloto1,001,139,
0.25,Stim\\02_028.jpg,Al28_18,Alegría,18,Sofía escucha la música.,Afirmación,Al28,28,,,,,0,25,25,25,,,,,,,,,1,3.22321477579,3,2.08314259972,,,,,,,,,2018_jun._28_1205,60.0027043816,Experimento Piloto1,001,139,
0.25,Stim\\02_028.jpg,Al28_23,Alegría,23,Óscar consigue un nuevo departamento.,Afirmación,Al28,28,,,,,0,26,26,26,,,,,,,,,1,2.29898759834,3,0.483368579447,,,,,,,,,2018_jun._28_1205,60.0027043816,Experimento Piloto1,001,139,
0.25,Stim\\02_075.jpg,Al75_19,Alegría,19,Armando acompaña a Rodrígo a la tienda.,Afirmación,Al75,75,,,,,0,27,27,27,,,,,,,,,1,1.53070695865,3,0.400254985812,,,,,,,,,2018_jun._28_1205,60.0027043816,Experimento Piloto1,001,139,
2.5,Stim\\05_019.jpg,En19_16,Enojo,16,Valeria modifica algunas imágenes.,Afirmación,En19,19,,,,,0,28,28,28,,,,,,,,,1,1.21467583021,2,0.700214511165,,,,,,,,,2018_jun._28_1205,60.0027043816,Experimento Piloto1,001,139,
2.5,Stim\\02_019.jpg,Al19_25,Alegría,25,Luis decide la comida siguiente.,Afirmación,Al19,19,,,,,0,29,29,29,,,,,,,,,1,3.68024582881,3,1.01689805342,,,,,,,,,2018_jun._28_1205,60.0027043816,Experimento Piloto1,001,139,
0.25,Stim\\02_078.jpg,Al78_27,Alegría,27,Claudia informa los avances en el reporte.,Afirmación,Al78,78,,,,,0,30,30,30,,,,,,,,,1,1.82911532775,3,0.700239947272,,,,,,,,,2018_jun._28_1205,60.0027043816,Experimento Piloto1,001,139,
0.25,Stim\\03_019.jpg,Tr19_22,Tristeza,22,Enrique corre todas las mañanas.,Afirmación,Tr19,19,,,,,0,31,31,31,,,,,,,,,1,3.93480368904,2,0.700282340782,,,,,,,,,2018_jun._28_1205,60.0027043816,Experimento Piloto1,001,139,
2.5,Stim\\05_019.jpg,En19_26,Enojo,26,Víctor trae el café a Marco.,Afirmación,En19,19,,,,,0,32,32,32,,,,,,,,,1,0.934399835067,2,0.950186286012,,,,,,,,,2018_jun._28_1205,60.0027043816,Experimento Piloto1,001,139,
2.5,Stim\\02_078.jpg,Al78_26,Alegría,26,Víctor trae el café a Marco.,Afirmación,Al78,78,,,,,0,33,33,33,,,,,,,,,1,1.60001320893,3,0.600252397577,,,,,,,,,2018_jun._28_1205,60.0027043816,Experimento Piloto1,001,139,
0.25,Stim\\05_078.jpg,En78_17,Enojo,17,Brenda sube el autobús en las mañanas.,Afirmación,En78,78,,,,,0,34,34,34,,,,,,,,,1,3.21454552595,2,0.85016616025,,,,,,,,,2018_jun._28_1205,60.0027043816,Experimento Piloto1,001,139,
0.25,Stim\\05_078.jpg,En78_21,Enojo,21,Mauro anuncia la actividad.,Afirmación,En78,78,,,,,0,35,35,35,,,,,,,,,1,2.40530695356,2,0.600435359044,,,,,,,,,2018_jun._28_1205,60.0027043816,Experimento Piloto1,001,139,
2.5,Stim\\03_078.jpg,Tr78_20,Tristeza,20,Karen analiza la idea.,Afirmación,Tr78,78,,,,,0,36,36,36,,,,,,,,,1,2.05859809568,4,0.800337720095,,,,,,,,,2018_jun._28_1205,60.0027043816,Experimento Piloto1,001,139,
0.25,Stim\\03_078.jpg,Tr78_28,Tristeza,28,Antonio responde la pregunta.,Afirmación,Tr78,78,,,,,0,37,37,37,,,,,,,,,1,2.39925896143,4,0.450317259648,,,,,,,,,2018_jun._28_1205,60.0027043816,Experimento Piloto1,001,139,
2.5,Stim\\03_028.jpg,Tr28_17,Tristeza,17,Brenda sube el autobús en las mañanas.,Afirmación,Tr28,28,,,,,0,38,38,38,,,,,,,,,1,1.83190839075,4,0.600510328622,,,,,,,,,2018_jun._28_1205,60.0027043816,Experimento Piloto1,001,139,
0.25,Stim\\02_028.jpg,Al28_27,Alegría,27,Claudia informa los avances en el reporte.,Afirmación,Al28,28,,,,,0,39,39,39,,,,,,,,,1,4.19499497749,3,0.650250858022,,,,,,,,,2018_jun._28_1205,60.0027043816,Experimento Piloto1,001,139,
2.5,Stim\\02_019.jpg,Al19_28,Alegría,28,Antonio responde la pregunta.,Afirmación,Al19,19,,,,,0,40,40,40,,,,,,,,,1,1.53708829765,3,0.383671983111,,,,,,,,,2018_jun._28_1205,60.0027043816,Experimento Piloto1,001,139,
0.25,Stim\\02_019.jpg,Al19_17,Alegría,17,Brenda sube el autobús en las mañanas.,Afirmación,Al19,19,,,,,0,41,41,41,,,,,,,,,1,3.01434105535,3,0.700140880331,,,,,,,,,2018_jun._28_1205,60.0027043816,Experimento Piloto1,001,139,
2.5,Stim\\03_075.jpg,Tr75_21,Tristeza,21,Mauro anuncia la actividad.,Afirmación,Tr75,75,,,,,0,42,42,42,,,,,,,,,1,1.85454786428,4,1.36675072482,,,,,,,,,2018_jun._28_1205,60.0027043816,Experimento Piloto1,001,139,
0.25,Stim\\03_075.jpg,Tr75_26,Tristeza,26,Víctor trae el café a Marco.,Afirmación,Tr75,75,,,,,0,43,43,43,,,,,,,,,1,5.11991651602,4,1.36726569441,,,,,,,,,2018_jun._28_1205,60.0027043816,Experimento Piloto1,001,139,
0.25,Stim\\02_075.jpg,Al75_18,Alegría,18,Sofía escucha la música.,Afirmación,Al75,75,,,,,0,44,44,44,,,,,,,,,1,1.42402123424,3,0.500498681562,,,,,,,,,2018_jun._28_1205,60.0027043816,Experimento Piloto1,001,139,
2.5,Stim\\05_028.jpg,En28_27,Enojo,27,Claudia informa los avances en el reporte.,Afirmación,En28,28,,,,,0,45,45,45,,,,,,,,,1,2.51201588284,2,1.00017403652,,,,,,,,,2018_jun._28_1205,60.0027043816,Experimento Piloto1,001,139,
0.25,Stim\\02_019.jpg,Al19_23,Alegría,23,Óscar consigue un nuevo departamento.,Afirmación,Al19,19,,,,,0,46,46,46,,,,,,,,,1,3.53138570107,3,1.41717847534,,,,,,,,,2018_jun._28_1205,60.0027043816,Experimento Piloto1,001,139,
0.25,Stim\\03_075.jpg,Tr75_21,Tristeza,21,Mauro anuncia la actividad.,Afirmación,Tr75,75,,,,,0,47,47,47,,,,,,,,,1,4.40263348489,4,1.16664041244,,,,,,,,,2018_jun._28_1205,60.0027043816,Experimento Piloto1,001,139,
0.25,Stim\\02_078.jpg,Al78_28,Alegría,28,Antonio responde la pregunta.,Afirmación,Al78,78,,,,,0,48,48,48,,,,,,,,,1,1.16794657882,3,0.383630035847,,,,,,,,,2018_jun._28_1205,60.0027043816,Experimento Piloto1,001,139,
2.5,Stim\\03_075.jpg,Tr75_23,Tristeza,23,Óscar consigue un nuevo departamento.,Afirmación,Tr75,75,,,,,0,49,49,49,,,,,,,,,1,3.89689541164,4,0.600116738342,,,,,,,,,2018_jun._28_1205,60.0027043816,Experimento Piloto1,001,139,
0.25,Stim\\02_078.jpg,Al78_22,Alegría,22,Enrique corre todas las mañanas.,Afirmación,Al78,78,,,,,0,50,50,50,,,,,,,,,1,2.75149280939,3,0.400221071002,,,,,,,,,2018_jun._28_1205,60.0027043816,Experimento Piloto1,001,139,
2.5,Stim\\03_028.jpg,Tr28_23,Tristeza,23,Óscar consigue un nuevo departamento.,Afirmación,Tr28,28,,,,,0,51,51,51,,,,,,,,,1,2.19900272613,4,0.38363672956,,,,,,,,,2018_jun._28_1205,60.0027043816,Experimento Piloto1,001,139,
0.25,Stim\\02_028.jpg,Al28_19,Alegría,19,Armando acompaña a Rodrígo a la tienda.,Afirmación,Al28,28,,,,,0,52,52,52,,,,,,,,,1,2.09719716419,3,0.600341200825,,,,,,,,,2018_jun._28_1205,60.0027043816,Experimento Piloto1,001,139,
0.25,Stim\\03_028.jpg,Tr28_28,Tristeza,28,Antonio responde la pregunta.,Afirmación,Tr28,28,,,,,0,53,53,53,,,,,,,,,1,1.93678324287,4,0.549524322496,,,,,,,,,2018_jun._28_1205,60.0027043816,Experimento Piloto1,001,139,
2.5,Stim\\05_075.jpg,En75_16,Enojo,16,Valeria modifica algunas imágenes.,Afirmación,En75,75,,,,,0,54,54,54,,,,,,,,,1,3.94950620485,2,1.30008938337,,,,,,,,,2018_jun._28_1205,60.0027043816,Experimento Piloto1,001,139,
0.25,Stim\\03_019.jpg,Tr19_28,Tristeza,28,Antonio responde la pregunta.,Afirmación,Tr19,19,,,,,0,55,55,55,,,,,,,,,1,6.81890295411,3,1.68326424679,,,,,,,,,2018_jun._28_1205,60.0027043816,Experimento Piloto1,001,139,
2.5,Stim\\03_019.jpg,Tr19_24,Tristeza,24,Guadalupe comenta los resultados con los compañeros.,Afirmación,Tr19,19,,,,,0,56,56,56,,,,,,,,,1,5.87137005563,2,0.400207683578,,,,,,,,,2018_jun._28_1205,60.0027043816,Experimento Piloto1,001,139,
0.25,Stim\\03_019.jpg,Tr19_30,Tristeza,30,Marisol toma 2 litros de agua cada día.,Afirmación,Tr19,19,,,,,0,57,57,57,,,,,,,,,1,4.84629674833,2,0.866826363766,,,,,,,,,2018_jun._28_1205,60.0027043816,Experimento Piloto1,001,139,
0.25,Stim\\02_075.jpg,Al75_23,Alegría,23,Óscar consigue un nuevo departamento.,Afirmación,Al75,75,,,,,0,58,58,58,,,,,,,,,1,2.54873089447,3,0.700188182564,,,,,,,,,2018_jun._28_1205,60.0027043816,Experimento Piloto1,001,139,
2.5,Stim\\02_078.jpg,Al78_22,Alegría,22,Enrique corre todas las mañanas.,Afirmación,Al78,78,,,,,0,59,59,59,,,,,,,,,1,1.78685479866,3,0.400156365118,,,,,,,,,2018_jun._28_1205,60.0027043816,Experimento Piloto1,001,139,
2.5,Stim\\05_075.jpg,En75_20,Enojo,20,Karen analiza la idea.,Afirmación,En75,75,,,,,0,60,60,60,,,,,,,,,1,1.34196569339,2,0.333613725502,,,,,,,,,2018_jun._28_1205,60.0027043816,Experimento Piloto1,001,139,
2.5,Stim\\03_028.jpg,Tr28_18,Tristeza,18,Sofía escucha la música.,Afirmación,Tr28,28,,,,,0,61,61,61,,,,,,,,,1,1.85655017674,4,1.00021196755,,,,,,,,,2018_jun._28_1205,60.0027043816,Experimento Piloto1,001,139,
0.25,Stim\\02_028.jpg,Al28_22,Alegría,22,Enrique corre todas las mañanas.,Afirmación,Al28,28,,,,,0,62,62,62,,,,,,,,,1,1.9351914781,3,0.349853563889,,,,,,,,,2018_jun._28_1205,60.0027043816,Experimento Piloto1,001,139,
2.5,Stim\\03_075.jpg,Tr75_29,Tristeza,29,Miriam mira la película.,Afirmación,Tr75,75,,,,,0,63,63,63,,,,,,,,,1,1.49024034443,4,0.333633806638,,,,,,,,,2018_jun._28_1205,60.0027043816,Experimento Piloto1,001,139,
2.5,Stim\\05_075.jpg,En75_19,Enojo,19,Armando acompaña a Rodrígo a la tienda.,Afirmación,En75,75,,,,,0,64,64,64,,,,,,,,,1,0.664541933653,2,0.333607031789,,,,,,,,,2018_jun._28_1205,60.0027043816,Experimento Piloto1,001,139,
0.25,Stim\\05_078.jpg,En78_27,Enojo,27,Claudia informa los avances en el reporte.,Afirmación,En78,78,,,,,0,65,65,65,,,,,,,,,1,1.57889008434,2,0.35027169778,,,,,,,,,2018_jun._28_1205,60.0027043816,Experimento Piloto1,001,139,
0.25,Stim\\02_075.jpg,Al75_29,Alegría,29,Miriam mira la película.,Afirmación,Al75,75,,,,,0,66,66,66,,,,,,,,,1,1.89001784544,3,0.950367016242,,,,,,,,,2018_jun._28_1205,60.0027043816,Experimento Piloto1,001,139,
2.5,Stim\\03_075.jpg,Tr75_19,Tristeza,19,Armando acompaña a Rodrígo a la tienda.,Afirmación,Tr75,75,,,,,0,67,67,67,,,,,,,,,1,0.715355688249,4,0.399678880312,,,,,,,,,2018_jun._28_1205,60.0027043816,Experimento Piloto1,001,139,
2.5,Stim\\03_028.jpg,Tr28_22,Tristeza,22,Enrique corre todas las mañanas.,Afirmación,Tr28,28,,,,,0,68,68,68,,,,,,,,,1,1.7856682266,4,1.88333618188,,,,,,,,,2018_jun._28_1205,60.0027043816,Experimento Piloto1,001,139,
0.25,Stim\\03_078.jpg,Tr78_25,Tristeza,25,Luis decide la comida siguiente.,Afirmación,Tr78,78,,,,,0,69,69,69,,,,,,,,,1,1.88413541112,4,0.400367886425,,,,,,,,,2018_jun._28_1205,60.0027043816,Experimento Piloto1,001,139,
2.5,Stim\\02_028.jpg,Al28_19,Alegría,19,Armando acompaña a Rodrígo a la tienda.,Afirmación,Al28,28,,,,,0,70,70,70,,,,,,,,,1,2.59703138325,3,0.400279529423,,,,,,,,,2018_jun._28_1205,60.0027043816,Experimento Piloto1,001,139,
0.25,Stim\\02_075.jpg,Al75_25,Alegría,25,Luis decide la comida siguiente.,Afirmación,Al75,75,,,,,0,71,71,71,,,,,,,,,1,3.78341913929,3,0.450349835713,,,,,,,,,2018_jun._28_1205,60.0027043816,Experimento Piloto1,001,139,
2.5,Stim\\02_019.jpg,Al19_24,Alegría,24,Guadalupe comenta los resultados con los compañeros.,Afirmación,Al19,19,,,,,0,72,72,72,,,,,,,,,1,3.92273269463,3,0.400101922925,,,,,,,,,2018_jun._28_1205,60.0027043816,Experimento Piloto1,001,139,
0.25,Stim\\03_028.jpg,Tr28_23,Tristeza,23,Óscar consigue un nuevo departamento.,Afirmación,Tr28,28,,,,,0,73,73,73,,,,,,,,,1,4.69878205675,4,0.400550401646,,,,,,,,,2018_jun._28_1205,60.0027043816,Experimento Piloto1,001,139,
0.25,Stim\\03_028.jpg,Tr28_25,Tristeza,25,Luis decide la comida siguiente.,Afirmación,Tr28,28,,,,,0,74,74,74,,,,,,,,,1,3.63327828127,4,1.2663512887,,,,,,,,,2018_jun._28_1205,60.0027043816,Experimento Piloto1,001,139,
0.25,Stim\\05_019.jpg,En19_23,Enojo,23,Óscar consigue un nuevo departamento.,Afirmación,En19,19,,,,,0,75,75,75,,,,,,,,,1,3.11172475098,2,1.14936037117,,,,,,,,,2018_jun._28_1205,60.0027043816,Experimento Piloto1,001,139,
2.5,Stim\\03_019.jpg,Tr19_26,Tristeza,26,Víctor trae el café a Marco.,Afirmación,Tr19,19,,,,,0,76,76,76,,,,,,,,,1,3.3375232997,2,4.54913564094,,,,,,,,,2018_jun._28_1205,60.0027043816,Experimento Piloto1,001,139,
0.25,Stim\\05_028.jpg,En28_30,Enojo,30,Marisol toma 2 litros de agua cada día.,Afirmación,En28,28,,,,,0,77,77,77,,,,,,,,,1,2.84758104858,2,1.36663559297,,,,,,,,,2018_jun._28_1205,60.0027043816,Experimento Piloto1,001,139,
2.5,Stim\\02_019.jpg,Al19_26,Alegría,26,Víctor trae el café a Marco.,Afirmación,Al19,19,,,,,0,78,78,78,,,,,,,,,1,4.98642381284,3,1.05062588441,,,,,,,,,2018_jun._28_1205,60.0027043816,Experimento Piloto1,001,139,
0.25,Stim\\03_075.jpg,Tr75_27,Tristeza,27,Claudia informa los avances en el reporte.,Afirmación,Tr75,75,,,,,0,79,79,79,,,,,,,,,1,1.11259761106,4,1.53315328735,,,,,,,,,2018_jun._28_1205,60.0027043816,Experimento Piloto1,001,139,
2.5,Stim\\02_078.jpg,Al78_27,Alegría,27,Claudia informa los avances en el reporte.,Afirmación,Al78,78,,,,,0,80,80,80,,,,,,,,,1,1.18353623463,3,0.600065419881,,,,,,,,,2018_jun._28_1205,60.0027043816,Experimento Piloto1,001,139,
0.25,Stim\\02_019.jpg,Al19_26,Alegría,26,Víctor trae el café a Marco.,Afirmación,Al19,19,,,,,0,81,81,81,,,,,,,,,1,5.47014225031,3,0.600377793119,,,,,,,,,2018_jun._28_1205,60.0027043816,Experimento Piloto1,001,139,
0.25,Stim\\03_019.jpg,Tr19_29,Tristeza,29,Miriam mira la película.,Afirmación,Tr19,19,,,,,0,82,82,82,,,,,,,,,1,2.77344818554,2,0.600259983783,,,,,,,,,2018_jun._28_1205,60.0027043816,Experimento Piloto1,001,139,
2.5,Stim\\05_075.jpg,En75_27,Enojo,27,Claudia informa los avances en el reporte.,Afirmación,En75,75,,,,,0,83,83,83,,,,,,,,,1,3.31231790314,2,1.01670438202,,,,,,,,,2018_jun._28_1205,60.0027043816,Experimento Piloto1,001,139,
0.25,Stim\\05_019.jpg,En19_25,Enojo,25,Luis decide la comida siguiente.,Afirmación,En19,19,,,,,0,84,84,84,,,,,,,,,1,1.26744593377,2,0.400103261668,,,,,,,,,2018_jun._28_1205,60.0027043816,Experimento Piloto1,001,139,
2.5,Stim\\03_028.jpg,Tr28_20,Tristeza,20,Karen analiza la idea.,Afirmación,Tr28,28,,,,,0,85,85,85,,,,,,,,,1,1.69193572787,4,0.45032038338,,,,,,,,,2018_jun._28_1205,60.0027043816,Experimento Piloto1,001,139,
2.5,Stim\\05_028.jpg,En28_26,Enojo,26,Víctor trae el café a Marco.,Afirmación,En28,28,,,,,0,86,86,86,,,,,,,,,1,3.43716099137,2,0.483894705229,,,,,,,,,2018_jun._28_1205,60.0027043816,Experimento Piloto1,001,139,
0.25,Stim\\05_028.jpg,En28_21,Enojo,21,Mauro anuncia la actividad.,Afirmación,En28,28,,,,,0,87,87,87,,,,,,,,,1,2.55486724361,2,0.400201882361,,,,,,,,,2018_jun._28_1205,60.0027043816,Experimento Piloto1,001,139,
0.25,Stim\\03_075.jpg,Tr75_22,Tristeza,22,Enrique corre todas las mañanas.,Afirmación,Tr75,75,,,,,0,88,88,88,,,,,,,,,1,2.3021309656,4,0.751039868196,,,,,,,,,2018_jun._28_1205,60.0027043816,Experimento Piloto1,001,139,
0.25,Stim\\05_028.jpg,En28_27,Enojo,27,Claudia informa los avances en el reporte.,Afirmación,En28,28,,,,,0,89,89,89,,,,,,,,,1,3.31134374488,2,0.350353807316,,,,,,,,,2018_jun._28_1205,60.0027043816,Experimento Piloto1,001,139,
2.5,Stim\\03_075.jpg,Tr75_22,Tristeza,22,Enrique corre todas las mañanas.,Afirmación,Tr75,75,,,,,0,90,90,90,,,,,,,,,1,1.68708635647,4,0.899573789029,,,,,,,,,2018_jun._28_1205,60.0027043816,Experimento Piloto1,001,139,
0.25,Stim\\05_019.jpg,En19_28,Enojo,28,Antonio responde la pregunta.,Afirmación,En19,19,,,,,0,91,91,91,,,,,,,,,1,2.45401932876,2,0.550638156213,,,,,,,,,2018_jun._28_1205,60.0027043816,Experimento Piloto1,001,139,
2.5,Stim\\03_019.jpg,Tr19_17,Tristeza,17,Brenda sube el autobús en las mañanas.,Afirmación,Tr19,19,,,,,0,92,92,92,,,,,,,,,1,1.89822879912,4,0.33359989183,,,,,,,,,2018_jun._28_1205,60.0027043816,Experimento Piloto1,001,139,
0.25,Stim\\05_028.jpg,En28_29,Enojo,29,Miriam mira la película.,Afirmación,En28,28,,,,,0,93,93,93,,,,,,,,,1,9.23752459381,2,0.800135569985,,,,,,,,,2018_jun._28_1205,60.0027043816,Experimento Piloto1,001,139,
0.25,Stim\\05_028.jpg,En28_18,Enojo,18,Sofía escucha la música.,Afirmación,En28,28,,,,,0,94,94,94,,,,,,,,,1,1.74050128765,2,0.383635837065,,,,,,,,,2018_jun._28_1205,60.0027043816,Experimento Piloto1,001,139,
0.25,Stim\\05_028.jpg,En28_25,Enojo,25,Luis decide la comida siguiente.,Afirmación,En28,28,,,,,0,95,95,95,,,,,,,,,1,1.38482374786,2,0.383731334025,,,,,,,,,2018_jun._28_1205,60.0027043816,Experimento Piloto1,001,139,
2.5,Stim\\03_075.jpg,Tr75_16,Tristeza,16,Valeria modifica algunas imágenes.,Afirmación,Tr75,75,,,,,0,96,96,96,,,,,,,,,1,2.86680003516,4,0.400265695751,,,,,,,,,2018_jun._28_1205,60.0027043816,Experimento Piloto1,001,139,
2.5,Stim\\05_019.jpg,En19_18,Enojo,18,Sofía escucha la música.,Afirmación,En19,19,,,,,0,97,97,97,,,,,,,,,1,3.49020419839,2,1.98326170318,,,,,,,,,2018_jun._28_1205,60.0027043816,Experimento Piloto1,001,139,
0.25,Stim\\05_075.jpg,En75_28,Enojo,28,Antonio responde la pregunta.,Afirmación,En75,75,,,,,0,98,98,98,,,,,,,,,1,1.47054655053,2,0.650295929018,,,,,,,,,2018_jun._28_1205,60.0027043816,Experimento Piloto1,001,139,
0.25,Stim\\03_019.jpg,Tr19_24,Tristeza,24,Guadalupe comenta los resultados con los compañeros.,Afirmación,Tr19,19,,,,,0,99,99,99,,,,,,,,,1,4.28882163443,2,0.850136261669,,,,,,,,,2018_jun._28_1205,60.0027043816,Experimento Piloto1,001,139,
0.25,Stim\\02_075.jpg,Al75_21,Alegría,21,Mauro anuncia la actividad.,Afirmación,Al75,75,,,,,0,100,100,100,,,,,,,,,1,2.57248554047,3,0.433359855308,,,,,,,,,2018_jun._28_1205,60.0027043816,Experimento Piloto1,001,139,
0.25,Stim\\03_019.jpg,Tr19_23,Tristeza,23,Óscar consigue un nuevo departamento.,Afirmación,Tr19,19,,,,,0,101,101,101,,,,,,,,,1,2.14888199387,2,0.383640745787,,,,,,,,,2018_jun._28_1205,60.0027043816,Experimento Piloto1,001,139,
2.5,Stim\\05_028.jpg,En28_30,Enojo,30,Marisol toma 2 litros de agua cada día.,Afirmación,En28,28,,,,,0,102,102,102,,,,,,,,,1,1.63083150632,2,0.866885714681,,,,,,,,,2018_jun._28_1205,60.0027043816,Experimento Piloto1,001,139,
0.25,Stim\\02_078.jpg,Al78_19,Alegría,19,Armando acompaña a Rodrígo a la tienda.,Afirmación,Al78,78,,,,,0,103,103,103,,,,,,,,,1,2.23099688564,3,0.350251170395,,,,,,,,,2018_jun._28_1205,60.0027043816,Experimento Piloto1,001,139,
2.5,Stim\\03_075.jpg,Tr75_25,Tristeza,25,Luis decide la comida siguiente.,Afirmación,Tr75,75,,,,,0,104,104,104,,,,,,,,,1,1.9011655538,4,0.383687601772,,,,,,,,,2018_jun._28_1205,60.0027043816,Experimento Piloto1,001,139,
2.5,Stim\\03_028.jpg,Tr28_29,Tristeza,29,Miriam mira la película.,Afirmación,Tr28,28,,,,,0,105,105,105,,,,,,,,,1,2.30645510371,4,0.700290373236,,,,,,,,,2018_jun._28_1205,60.0027043816,Experimento Piloto1,001,139,
0.25,Stim\\03_028.jpg,Tr28_24,Tristeza,24,Guadalupe comenta los resultados con los compañeros.,Afirmación,Tr28,28,,,,,0,106,106,106,,,,,,,,,1,2.28933124906,4,0.400481679533,,,,,,,,,2018_jun._28_1205,60.0027043816,Experimento Piloto1,001,139,
0.25,Stim\\02_075.jpg,Al75_30,Alegría,30,Marisol toma 2 litros de agua cada día.,Afirmación,Al75,75,,,,,0,107,107,107,,,,,,,,,1,3.41328407356,3,0.30049903856,,,,,,,,,2018_jun._28_1205,60.0027043816,Experimento Piloto1,001,139,
2.5,Stim\\05_019.jpg,En19_27,Enojo,27,Claudia informa los avances en el reporte.,Afirmación,En19,19,,,,,0,108,108,108,,,,,,,,,1,3.31132544874,2,1.0667679946,,,,,,,,,2018_jun._28_1205,60.0027043816,Experimento Piloto1,001,139,
2.5,Stim\\05_075.jpg,En75_18,Enojo,18,Sofía escucha la música.,Afirmación,En75,75,,,,,0,109,109,109,,,,,,,,,1,4.00580880348,2,0.433760139301,,,,,,,,,2018_jun._28_1205,60.0027043816,Experimento Piloto1,001,139,
2.5,Stim\\02_028.jpg,Al28_23,Alegría,23,Óscar consigue un nuevo departamento.,Afirmación,Al28,28,,,,,0,110,110,110,,,,,,,,,1,3.58184602766,3,0.600313087234,,,,,,,,,2018_jun._28_1205,60.0027043816,Experimento Piloto1,001,139,
2.5,Stim\\05_078.jpg,En78_29,Enojo,29,Miriam mira la película.,Afirmación,En78,78,,,,,0,111,111,111,,,,,,,,,1,2.5207886621,2,1.15589655805,,,,,,,,,2018_jun._28_1205,60.0027043816,Experimento Piloto1,001,139,
0.25,Stim\\03_078.jpg,Tr78_20,Tristeza,20,Karen analiza la idea.,Afirmación,Tr78,78,,,,,0,112,112,112,,,,,,,,,1,2.82490855273,4,0.450419450322,,,,,,,,,2018_jun._28_1205,60.0027043816,Experimento Piloto1,001,139,
0.25,Stim\\02_019.jpg,Al19_25,Alegría,25,Luis decide la comida siguiente.,Afirmación,Al19,19,,,,,0,113,113,113,,,,,,,,,1,1.7833187336,3,0.600322012183,,,,,,,,,2018_jun._28_1205,60.0027043816,Experimento Piloto1,001,139,
2.5,Stim\\03_078.jpg,Tr78_16,Tristeza,16,Valeria modifica algunas imágenes.,Afirmación,Tr78,78,,,,,0,114,114,114,,,,,,,,,1,1.98372089183,4,0.350309182568,,,,,,,,,2018_jun._28_1205,60.0027043816,Experimento Piloto1,001,139,
0.25,Stim\\02_028.jpg,Al28_21,Alegría,21,Mauro anuncia la actividad.,Afirmación,Al28,28,,,,,0,115,115,115,,,,,,,,,1,2.60498708337,3,0.300280823541,,,,,,,,,2018_jun._28_1205,60.0027043816,Experimento Piloto1,001,139,
2.5,Stim\\05_019.jpg,En19_30,Enojo,30,Marisol toma 2 litros de agua cada día.,Afirmación,En19,19,,,,,0,116,116,116,,,,,,,,,1,2.24751161248,2,0.483634542947,,,,,,,,,2018_jun._28_1205,60.0027043816,Experimento Piloto1,001,139,
0.25,Stim\\05_078.jpg,En78_26,Enojo,26,Víctor trae el café a Marco.,Afirmación,En78,78,,,,,0,117,117,117,,,,,,,,,1,1.38731559381,2,0.449962939147,,,,,,,,,2018_jun._28_1205,60.0027043816,Experimento Piloto1,001,139,
0.25,Stim\\02_078.jpg,Al78_21,Alegría,21,Mauro anuncia la actividad.,Afirmación,Al78,78,,,,,0,118,118,118,,,,,,,,,1,1.52134290147,3,0.750385669387,,,,,,,,,2018_jun._28_1205,60.0027043816,Experimento Piloto1,001,139,
0.25,Stim\\03_075.jpg,Tr75_30,Tristeza,30,Marisol toma 2 litros de agua cada día.,Afirmación,Tr75,75,,,,,0,119,119,119,,,,,,,,,1,2.81361581394,4,0.333623096699,,,,,,,,,2018_jun._28_1205,60.0027043816,Experimento Piloto1,001,139,
2.5,Stim\\03_019.jpg,Tr19_16,Tristeza,16,Valeria modifica algunas imágenes.,Afirmación,Tr19,19,,,,,,,,,0,0,0,0,,,,,,,,,1,3.30435684805,2,1.36722017717,,,,,2018_jun._28_1205,60.0027043816,Experimento Piloto1,001,139,
2.5,Stim\\05_078.jpg,En78_19,Enojo,19,Armando acompaña a Rodrígo a la tienda.,Afirmación,En78,78,,,,,,,,,0,1,1,1,,,,,,,,,1,3.77769601532,2,0.55005000203,,,,,2018_jun._28_1205,60.0027043816,Experimento Piloto1,001,139,
2.5,Stim\\02_075.jpg,Al75_21,Alegría,21,Mauro anuncia la actividad.,Afirmación,Al75,75,,,,,,,,,0,2,2,2,,,,,,,,,1,1.83857889812,3,0.916961375941,,,,,2018_jun._28_1205,60.0027043816,Experimento Piloto1,001,139,
0.25,Stim\\02_075.jpg,Al75_16,Alegría,16,Valeria modifica algunas imágenes.,Afirmación,Al75,75,,,,,,,,,0,3,3,3,,,,,,,,,1,2.65124822115,3,0.449883507095,,,,,2018_jun._28_1205,60.0027043816,Experimento Piloto1,001,139,
0.25,Stim\\05_078.jpg,En78_30,Enojo,30,Marisol toma 2 litros de agua cada día.,Afirmación,En78,78,,,,,,,,,0,4,4,4,,,,,,,,,1,2.64734087819,2,2.64931195332,,,,,2018_jun._28_1205,60.0027043816,Experimento Piloto1,001,139,
0.25,Stim\\02_019.jpg,Al19_22,Alegría,22,Enrique corre todas las mañanas.,Afirmación,Al19,19,,,,,,,,,0,5,5,5,,,,,,,,,1,1.36872715492,3,0.700278324555,,,,,2018_jun._28_1205,60.0027043816,Experimento Piloto1,001,139,
2.5,Stim\\05_028.jpg,En28_23,Enojo,23,Óscar consigue un nuevo departamento.,Afirmación,En28,28,,,,,,,,,0,6,6,6,,,,,,,,,1,1.33274800539,2,1.01680523395,,,,,2018_jun._28_1205,60.0027043816,Experimento Piloto1,001,139,
0.25,Stim\\03_019.jpg,Tr19_16,Tristeza,16,Valeria modifica algunas imágenes.,Afirmación,Tr19,19,,,,,,,,,0,7,7,7,,,,,,,,,1,1.11674414267,2,0.283749585547,,,,,2018_jun._28_1205,60.0027043816,Experimento Piloto1,001,139,
0.25,Stim\\02_078.jpg,Al78_17,Alegría,17,Brenda sube el autobús en las mañanas.,Afirmación,Al78,78,,,,,,,,,0,8,8,8,,,,,,,,,1,2.54660675645,3,0.35034979109,,,,,2018_jun._28_1205,60.0027043816,Experimento Piloto1,001,139,
0.25,Stim\\02_078.jpg,Al78_16,Alegría,16,Valeria modifica algunas imágenes.,Afirmación,Al78,78,,,,,,,,,0,9,9,9,,,,,,,,,1,1.78458518396,3,0.333475835029,,,,,2018_jun._28_1205,60.0027043816,Experimento Piloto1,001,139,
0.25,Stim\\05_075.jpg,En75_22,Enojo,22,Enrique corre todas las mañanas.,Afirmación,En75,75,,,,,,,,,0,10,10,10,,,,,,,,,1,3.58422051052,2,0.916466487483,,,,,2018_jun._28_1205,60.0027043816,Experimento Piloto1,001,139,
0.25,Stim\\02_028.jpg,Al28_26,Alegría,26,Víctor trae el café a Marco.,Afirmación,Al28,28,,,,,,,,,0,11,11,11,,,,,,,,,1,1.32104471891,3,0.700251549705,,,,,2018_jun._28_1205,60.0027043816,Experimento Piloto1,001,139,
2.5,Stim\\03_075.jpg,Tr75_28,Tristeza,28,Antonio responde la pregunta.,Afirmación,Tr75,75,,,,,,,,,0,12,12,12,,,,,,,,,1,0.970427625575,4,1.83325873563,,,,,2018_jun._28_1205,60.0027043816,Experimento Piloto1,001,139,
0.25,Stim\\05_075.jpg,En75_23,Enojo,23,Óscar consigue un nuevo departamento.,Afirmación,En75,75,,,,,,,,,0,13,13,13,,,,,,,,,1,1.8319436443,2,0.33361060177,,,,,2018_jun._28_1205,60.0027043816,Experimento Piloto1,001,139,
2.5,Stim\\02_078.jpg,Al78_28,Alegría,28,Antonio responde la pregunta.,Afirmación,Al78,78,,,,,,,,,0,14,14,14,,,,,,,,,1,2.3204695059,3,0.383718839096,,,,,2018_jun._28_1205,60.0027043816,Experimento Piloto1,001,139,
2.5,Stim\\02_028.jpg,Al28_18,Alegría,18,Sofía escucha la música.,Afirmación,Al28,28,,,,,,,,,0,15,15,15,,,,,,,,,1,1.44089876028,3,0.80027122922,,,,,2018_jun._28_1205,60.0027043816,Experimento Piloto1,001,139,
2.5,Stim\\02_019.jpg,Al19_22,Alegría,22,Enrique corre todas las mañanas.,Afirmación,Al19,19,,,,,,,,,0,16,16,16,,,,,,,,,1,2.41826999668,3,0.900196304267,,,,,2018_jun._28_1205,60.0027043816,Experimento Piloto1,001,139,
2.5,Stim\\05_028.jpg,En28_28,Enojo,28,Antonio responde la pregunta.,Afirmación,En28,28,,,,,,,,,0,17,17,17,,,,,,,,,1,1.02099906779,2,1.26675380392,,,,,2018_jun._28_1205,60.0027043816,Experimento Piloto1,001,139,
0.25,Stim\\03_078.jpg,Tr78_30,Tristeza,30,Marisol toma 2 litros de agua cada día.,Afirmación,Tr78,78,,,,,,,,,0,18,18,18,,,,,,,,,1,1.31472897829,4,0.55036728399,,,,,2018_jun._28_1205,60.0027043816,Experimento Piloto1,001,139,
0.25,Stim\\03_019.jpg,Tr19_20,Tristeza,20,Karen analiza la idea.,Afirmación,Tr19,19,,,,,,,,,0,19,19,19,,,,,,,,,1,9.17265002729,2,0.916784661939,,,,,2018_jun._28_1205,60.0027043816,Experimento Piloto1,001,139,
0.25,Stim\\05_028.jpg,En28_19,Enojo,19,Armando acompaña a Rodrígo a la tienda.,Afirmación,En28,28,,,,,,,,,0,20,20,20,,,,,,,,,1,4.69575649881,2,0.550632801243,,,,,2018_jun._28_1205,60.0027043816,Experimento Piloto1,001,139,
0.25,Stim\\05_019.jpg,En19_26,Enojo,26,Víctor trae el café a Marco.,Afirmación,En19,19,,,,,,,,,0,21,21,21,,,,,,,,,1,1.02120211039,2,0.383674660596,,,,,2018_jun._28_1205,60.0027043816,Experimento Piloto1,001,139,
0.25,Stim\\02_028.jpg,Al28_16,Alegría,16,Valeria modifica algunas imágenes.,Afirmación,Al28,28,,,,,,,,,0,22,22,22,,,,,,,,,1,2.71460197625,3,0.384099488198,,,,,2018_jun._28_1205,60.0027043816,Experimento Piloto1,001,139,
2.5,Stim\\02_075.jpg,Al75_17,Alegría,17,Brenda sube el autobús en las mañanas.,Afirmación,Al75,75,,,,,,,,,0,23,23,23,,,,,,,,,1,1.17466304968,3,1.56681462746,,,,,2018_jun._28_1205,60.0027043816,Experimento Piloto1,001,139,
2.5,Stim\\05_075.jpg,En75_30,Enojo,30,Marisol toma 2 litros de agua cada día.,Afirmación,En75,75,,,,,,,,,0,24,24,24,,,,,,,,,1,0.714366357581,2,0.283573317792,,,,,2018_jun._28_1205,60.0027043816,Experimento Piloto1,001,139,
2.5,Stim\\03_075.jpg,Tr75_27,Tristeza,27,Claudia informa los avances en el reporte.,Afirmación,Tr75,75,,,,,,,,,0,25,25,25,,,,,,,,,1,2.31064536757,4,1.5168001021,,,,,2018_jun._28_1205,60.0027043816,Experimento Piloto1,001,139,
2.5,Stim\\03_028.jpg,Tr28_24,Tristeza,24,Guadalupe comenta los resultados con los compañeros.,Afirmación,Tr28,28,,,,,,,,,0,26,26,26,,,,,,,,,1,2.13839651677,4,0.3336936038,,,,,2018_jun._28_1205,60.0027043816,Experimento Piloto1,001,139,
0.25,Stim\\05_028.jpg,En28_24,Enojo,24,Guadalupe comenta los resultados con los compañeros.,Afirmación,En28,28,,,,,,,,,0,27,27,27,,,,,,,,,1,1.13353509669,2,0.350299365124,,,,,2018_jun._28_1205,60.0027043816,Experimento Piloto1,001,139,
0.25,Stim\\03_028.jpg,Tr28_17,Tristeza,17,Brenda sube el autobús en las mañanas.,Afirmación,Tr28,28,,,,,,,,,0,28,28,28,,,,,,,,,1,1.98102287955,4,0.500374624762,,,,,2018_jun._28_1205,60.0027043816,Experimento Piloto1,001,139,
0.25,Stim\\02_028.jpg,Al28_28,Alegría,28,Antonio responde la pregunta.,Afirmación,Al28,28,,,,,,,,,0,29,29,29,,,,,,,,,1,1.9864028392,3,0.750180395545,,,,,2018_jun._28_1205,60.0027043816,Experimento Piloto1,001,139,
2.5,Stim\\02_028.jpg,Al28_24,Alegría,24,Guadalupe comenta los resultados con los compañeros.,Afirmación,Al28,28,,,,,,,,,0,30,30,30,,,,,,,,,1,2.4053805844,3,1.46589486677,,,,,2018_jun._28_1205,60.0027043816,Experimento Piloto1,001,139,
0.25,Stim\\02_078.jpg,Al78_29,Alegría,29,Miriam mira la película.,Afirmación,Al78,78,,,,,,,,,0,31,31,31,,,,,,,,,1,2.30642788261,3,0.650214265729,,,,,2018_jun._28_1205,60.0027043816,Experimento Piloto1,001,139,
0.25,Stim\\05_078.jpg,En78_19,Enojo,19,Armando acompaña a Rodrígo a la tienda.,Afirmación,En78,78,,,,,,,,,0,32,32,32,,,,,,,,,1,4.18026033186,2,1.21662950169,,,,,2018_jun._28_1205,60.0027043816,Experimento Piloto1,001,139,
0.25,Stim\\03_019.jpg,Tr19_21,Tristeza,21,Mauro anuncia la actividad.,Afirmación,Tr19,19,,,,,,,,,0,33,33,33,,,,,,,,,1,2.65517296776,2,1.48340338675,,,,,2018_jun._28_1205,60.0027043816,Experimento Piloto1,001,139,
0.25,Stim\\02_028.jpg,Al28_25,Alegría,25,Luis decide la comida siguiente.,Afirmación,Al28,28,,,,,,,,,0,34,34,34,,,,,,,,,1,4.08365890806,3,0.400322369182,,,,,2018_jun._28_1205,60.0027043816,Experimento Piloto1,001,139,
2.5,Stim\\03_078.jpg,Tr78_26,Tristeza,26,Víctor trae el café a Marco.,Afirmación,Tr78,78,,,,,,,,,0,35,35,35,,,,,,,,,1,1.98763805224,4,1.16687067614,,,,,2018_jun._28_1205,60.0027043816,Experimento Piloto1,001,139,
2.5,Stim\\05_078.jpg,En78_20,Enojo,20,Karen analiza la idea.,Afirmación,En78,78,,,,,,,,,0,36,36,36,,,,,,,,,1,1.90851480359,2,0.750160760655,,,,,2018_jun._28_1205,60.0027043816,Experimento Piloto1,001,139,
2.5,Stim\\02_078.jpg,Al78_23,Alegría,23,Óscar consigue un nuevo departamento.,Afirmación,Al78,78,,,,,,,,,0,37,37,37,,,,,,,,,1,2.44857421698,3,0.550121847876,,,,,2018_jun._28_1205,60.0027043816,Experimento Piloto1,001,139,
0.25,Stim\\03_078.jpg,Tr78_21,Tristeza,21,Mauro anuncia la actividad.,Afirmación,Tr78,78,,,,,,,,,0,38,38,38,,,,,,,,,1,1.78778433216,4,0.900270827598,,,,,2018_jun._28_1205,60.0027043816,Experimento Piloto1,001,139,
2.5,Stim\\03_075.jpg,Tr75_18,Tristeza,18,Sofía escucha la música.,Afirmación,Tr75,75,,,,,,,,,0,39,39,39,,,,,,,,,1,1.09056146412,4,0.749521734261,,,,,2018_jun._28_1205,60.0027043816,Experimento Piloto1,001,139,
2.5,Stim\\03_019.jpg,Tr19_19,Tristeza,19,Armando acompaña a Rodrígo a la tienda.,Afirmación,Tr19,19,,,,,,,,,0,40,40,40,,,,,,,,,1,3.16391964154,2,1.36645887896,,,,,2018_jun._28_1205,60.0027043816,Experimento Piloto1,001,139,
0.25,Stim\\03_019.jpg,Tr19_17,Tristeza,17,Brenda sube el autobús en las mañanas.,Afirmación,Tr19,19,,,,,,,,,0,41,41,41,,,,,,,,,1,2.96448227036,2,0.650212034491,,,,,2018_jun._28_1205,60.0027043816,Experimento Piloto1,001,139,
2.5,Stim\\05_078.jpg,En78_18,Enojo,18,Sofía escucha la música.,Afirmación,En78,78,,,,,,,,,0,42,42,42,,,,,,,,,1,1.74039998947,2,0.400307643014,,,,,2018_jun._28_1205,60.0027043816,Experimento Piloto1,001,139,
0.25,Stim\\05_019.jpg,En19_24,Enojo,24,Guadalupe comenta los resultados con los compañeros.,Afirmación,En19,19,,,,,,,,,0,43,43,43,,,,,,,,,1,2.18905006852,2,1.15011274443,,,,,2018_jun._28_1205,60.0027043816,Experimento Piloto1,001,139,
0.25,Stim\\02_075.jpg,Al75_20,Alegría,20,Karen analiza la idea.,Afirmación,Al75,75,,,,,,,,,0,44,44,44,,,,,,,,,1,1.34137486172,3,0.33371680867,,,,,2018_jun._28_1205,60.0027043816,Experimento Piloto1,001,139,
0.25,Stim\\03_075.jpg,Tr75_23,Tristeza,23,Óscar consigue un nuevo departamento.,Afirmación,Tr75,75,,,,,,,,,0,45,45,45,,,,,,,,,1,1.3319032589,4,2.94967354765,,,,,2018_jun._28_1205,60.0027043816,Experimento Piloto1,001,139,
0.25,Stim\\05_078.jpg,En78_16,Enojo,16,Valeria modifica algunas imágenes.,Afirmación,En78,78,,,,,,,,,0,46,46,46,,,,,,,,,1,1.5337994537,2,0.283865163646,,,,,2018_jun._28_1205,60.0027043816,Experimento Piloto1,001,139,
2.5,Stim\\02_019.jpg,Al19_20,Alegría,20,Karen analiza la idea.,Afirmación,Al19,19,,,,,,,,,0,47,47,47,,,,,,,,,1,1.0754885629,3,0.500503144037,,,,,2018_jun._28_1205,60.0027043816,Experimento Piloto1,001,139,
0.25,Stim\\03_075.jpg,Tr75_28,Tristeza,28,Antonio responde la pregunta.,Afirmación,Tr75,75,,,,,,,,,0,48,48,48,,,,,,,,,1,1.93712729968,4,0.350400663303,,,,,2018_jun._28_1205,60.0027043816,Experimento Piloto1,001,139,
0.25,Stim\\05_078.jpg,En78_25,Enojo,25,Luis decide la comida siguiente.,Afirmación,En78,78,,,,,,,,,0,49,49,49,,,,,,,,,1,2.91552490529,2,0.433770402992,,,,,2018_jun._28_1205,60.0027043816,Experimento Piloto1,001,139,
2.5,Stim\\03_019.jpg,Tr19_23,Tristeza,23,Óscar consigue un nuevo departamento.,Afirmación,Tr19,19,,,,,,,,,0,50,50,50,,,,,,,,,1,2.98157979641,2,0.483543954708,,,,,2018_jun._28_1205,60.0027043816,Experimento Piloto1,001,139,
2.5,Stim\\03_075.jpg,Tr75_24,Tristeza,24,Guadalupe comenta los resultados con los compañeros.,Afirmación,Tr75,75,,,,,,,,,0,51,51,51,,,,,,,,,1,1.47308078998,4,0.400498636937,,,,,2018_jun._28_1205,60.0027043816,Experimento Piloto1,001,139,
0.25,Stim\\02_078.jpg,Al78_20,Alegría,20,Karen analiza la idea.,Afirmación,Al78,78,,,,,,,,,0,52,52,52,,,,,,,,,1,3.64107913351,3,0.28368175593,,,,,2018_jun._28_1205,60.0027043816,Experimento Piloto1,001,139,
2.5,Stim\\02_078.jpg,Al78_30,Alegría,30,Marisol toma 2 litros de agua cada día.,Afirmación,Al78,78,,,,,,,,,0,53,53,53,,,,,,,,,1,1.01508004118,3,0.600434912797,,,,,2018_jun._28_1205,60.0027043816,Experimento Piloto1,001,139,
2.5,Stim\\03_028.jpg,Tr28_27,Tristeza,27,Claudia informa los avances en el reporte.,Afirmación,Tr28,28,,,,,,,,,0,54,54,54,,,,,,,,,1,1.67931897279,4,0.967225799887,,,,,2018_jun._28_1205,60.0027043816,Experimento Piloto1,001,139,
2.5,Stim\\02_075.jpg,Al75_28,Alegría,28,Antonio responde la pregunta.,Afirmación,Al75,75,,,,,,,,,0,55,55,55,,,,,,,,,1,2.10452276286,3,0.333621311708,,,,,2018_jun._28_1205,60.0027043816,Experimento Piloto1,001,139,
2.5,Stim\\03_078.jpg,Tr78_28,Tristeza,28,Antonio responde la pregunta.,Afirmación,Tr78,78,,,,,,,,,0,56,56,56,,,,,,,,,1,2.88307735834,4,0.350161028404,,,,,2018_jun._28_1205,60.0027043816,Experimento Piloto1,001,139,
0.25,Stim\\03_028.jpg,Tr28_19,Tristeza,19,Armando acompaña a Rodrígo a la tienda.,Afirmación,Tr28,28,,,,,,,,,0,57,57,57,,,,,,,,,1,1.62970383893,4,0.951007827627,,,,,2018_jun._28_1205,60.0027043816,Experimento Piloto1,001,139,
2.5,Stim\\05_078.jpg,En78_21,Enojo,21,Mauro anuncia la actividad.,Afirmación,En78,78,,,,,,,,,0,58,58,58,,,,,,,,,1,1.38719733822,2,0.600276941188,,,,,2018_jun._28_1205,60.0027043816,Experimento Piloto1,001,139,
0.25,Stim\\05_028.jpg,En28_17,Enojo,17,Brenda sube el autobús en las mañanas.,Afirmación,En28,28,,,,,,,,,0,59,59,59,,,,,,,,,1,3.83012875579,2,0.333976970953,,,,,2018_jun._28_1205,60.0027043816,Experimento Piloto1,001,139,
0.25,Stim\\03_075.jpg,Tr75_20,Tristeza,20,Karen analiza la idea.,Afirmación,Tr75,75,,,,,,,,,0,60,60,60,,,,,,,,,1,3.07473842088,4,0.800318085206,,,,,2018_jun._28_1205,60.0027043816,Experimento Piloto1,001,139,
2.5,Stim\\03_078.jpg,Tr78_21,Tristeza,21,Mauro anuncia la actividad.,Afirmación,Tr78,78,,,,,,,,,0,61,61,61,,,,,,,,,1,2.05394373444,4,0.700051184586,,,,,2018_jun._28_1205,60.0027043816,Experimento Piloto1,001,139,
0.25,Stim\\05_075.jpg,En75_17,Enojo,17,Brenda sube el autobús en las mañanas.,Afirmación,En75,75,,,,,,,,,0,62,62,62,,,,,,,,,1,2.04794572203,2,0.600258645041,,,,,2018_jun._28_1205,60.0027043816,Experimento Piloto1,001,139,
0.25,Stim\\03_019.jpg,Tr19_26,Tristeza,26,Víctor trae el café a Marco.,Afirmación,Tr19,19,,,,,,,,,0,63,63,63,,,,,,,,,1,2.45423174256,2,1.51638286071,,,,,2018_jun._28_1205,60.0027043816,Experimento Piloto1,001,139,
0.25,Stim\\05_019.jpg,En19_30,Enojo,30,Marisol toma 2 litros de agua cada día.,Afirmación,En19,19,,,,,,,,,0,64,64,64,,,,,,,,,1,1.20772775691,2,0.45038955174,,,,,2018_jun._28_1205,60.0027043816,Experimento Piloto1,001,139,
0.25,Stim\\02_019.jpg,Al19_27,Alegría,27,Claudia informa los avances en el reporte.,Afirmación,Al19,19,,,,,,,,,0,65,65,65,,,,,,,,,1,1.6093415663,3,0.866826363766,,,,,2018_jun._28_1205,60.0027043816,Experimento Piloto1,001,139,
0.25,Stim\\05_028.jpg,En28_23,Enojo,23,Óscar consigue un nuevo departamento.,Afirmación,En28,28,,,,,,,,,0,66,66,66,,,,,,,,,1,1.68178181265,2,0.900265918875,,,,,2018_jun._28_1205,60.0027043816,Experimento Piloto1,001,139,
0.25,Stim\\05_019.jpg,En19_18,Enojo,18,Sofía escucha la música.,Afirmación,En19,19,,,,,,,,,0,67,67,67,,,,,,,,,1,3.32378601719,2,0.916762349565,,,,,2018_jun._28_1205,60.0027043816,Experimento Piloto1,001,139,
0.25,Stim\\05_075.jpg,En75_25,Enojo,25,Luis decide la comida siguiente.,Afirmación,En75,75,,,,,,,,,0,68,68,68,,,,,,,,,1,1.1178552989,2,0.600268908734,,,,,2018_jun._28_1205,60.0027043816,Experimento Piloto1,001,139,
0.25,Stim\\03_078.jpg,Tr78_16,Tristeza,16,Valeria modifica algunas imágenes.,Afirmación,Tr78,78,,,,,,,,,0,69,69,69,,,,,,,,,1,1.16484337383,4,0.333652549032,,,,,2018_jun._28_1205,60.0027043816,Experimento Piloto1,001,139,
0.25,Stim\\05_019.jpg,En19_27,Enojo,27,Claudia informa los avances en el reporte.,Afirmación,En19,19,,,,,,,,,0,70,70,70,,,,,,,,,1,2.09588296535,2,0.433570037872,,,,,2018_jun._28_1205,60.0027043816,Experimento Piloto1,001,139,
0.25,Stim\\05_075.jpg,En75_30,Enojo,30,Marisol toma 2 litros de agua cada día.,Afirmación,En75,75,,,,,,,,,0,71,71,71,,,,,,,,,1,1.78085767874,2,1.26682832726,,,,,2018_jun._28_1205,60.0027043816,Experimento Piloto1,001,139,
2.5,Stim\\02_028.jpg,Al28_16,Alegría,16,Valeria modifica algunas imágenes.,Afirmación,Al28,28,,,,,,,,,0,72,72,72,,,,,,,,,1,1.43420103181,3,0.4503966917,,,,,2018_jun._28_1205,60.0027043816,Experimento Piloto1,001,139,
0.25,Stim\\05_075.jpg,En75_29,Enojo,29,Miriam mira la película.,Afirmación,En75,75,,,,,,,,,0,73,73,73,,,,,,,,,1,2.18965250262,2,0.350605490898,,,,,2018_jun._28_1205,60.0027043816,Experimento Piloto1,001,139,
2.5,Stim\\02_028.jpg,Al28_28,Alegría,28,Antonio responde la pregunta.,Afirmación,Al28,28,,,,,,,,,0,74,74,74,,,,,,,,,1,1.4372609508,3,0.750295973643,,,,,2018_jun._28_1205,60.0027043816,Experimento Piloto1,001,139,
2.5,Stim\\03_019.jpg,Tr19_28,Tristeza,28,Antonio responde la pregunta.,Afirmación,Tr19,19,,,,,,,,,0,75,75,75,,,,,,,,,1,1.64988939756,2,1.4168763658,,,,,2018_jun._28_1205,60.0027043816,Experimento Piloto1,001,139,
0.25,Stim\\02_028.jpg,Tr28_30,Tristeza,30,Marisol toma 2 litros de agua cada día.,Afirmación,Tr28,28,,,,,,,,,0,76,76,76,,,,,,,,,1,1.78150027511,3,0.650357064923,,,,,2018_jun._28_1205,60.0027043816,Experimento Piloto1,001,139,
2.5,Stim\\02_075.jpg,Al75_27,Alegría,27,Claudia informa los avances en el reporte.,Afirmación,Al75,75,,,,,,,,,0,77,77,77,,,,,,,,,1,2.7617020593,3,0.350245369178,,,,,2018_jun._28_1205,60.0027043816,Experimento Piloto1,001,139,
2.5,Stim\\02_075.jpg,Al75_20,Alegría,20,Karen analiza la idea.,Afirmación,Al75,75,,,,,,,,,0,78,78,78,,,,,,,,,1,1.12588329111,3,0.500294746462,,,,,2018_jun._28_1205,60.0027043816,Experimento Piloto1,001,139,
2.5,Stim\\05_019.jpg,En19_28,Enojo,28,Antonio responde la pregunta.,Afirmación,En19,19,,,,,,,,,0,79,79,79,,,,,,,,,1,1.48718488792,2,0.750322302244,,,,,2018_jun._28_1205,60.0027043816,Experimento Piloto1,001,139,
2.5,Stim\\02_078.jpg,Al78_21,Alegría,21,Mauro anuncia la actividad.,Afirmación,Al78,78,,,,,,,,,0,80,80,80,,,,,,,,,1,1.73851950258,3,1.11665533942,,,,,2018_jun._28_1205,60.0027043816,Experimento Piloto1,001,139,
2.5,Stim\\03_078.jpg,Tr78_19,Tristeza,19,Armando acompaña a Rodrígo a la tienda.,Afirmación,Tr78,78,,,,,,,,,0,81,81,81,,,,,,,,,1,1.53110992013,4,0.600312640987,,,,,2018_jun._28_1205,60.0027043816,Experimento Piloto1,001,139,
2.5,Stim\\05_075.jpg,En75_22,Enojo,22,Enrique corre todas las mañanas.,Afirmación,En75,75,,,,,,,,,0,82,82,82,,,,,,,,,1,2.5530786837,2,0.350288208936,,,,,2018_jun._28_1205,60.0027043816,Experimento Piloto1,001,139,
0.25,Stim\\03_019.jpg,Tr19_19,Tristeza,19,Armando acompaña a Rodrígo a la tienda.,Afirmación,Tr19,19,,,,,,,,,0,83,83,83,,,,,,,,,1,1.16409724804,2,0.333675307654,,,,,2018_jun._28_1205,60.0027043816,Experimento Piloto1,001,139,
2.5,Stim\\03_019.jpg,Tr19_27,Tristeza,27,Claudia informa los avances en el reporte.,Afirmación,Tr19,19,,,,,,,,,0,84,84,84,,,,,,,,,1,1.79563739536,2,0.700202908731,,,,,2018_jun._28_1205,60.0027043816,Experimento Piloto1,001,139,
0.25,Stim\\05_078.jpg,En78_18,Enojo,18,Sofía escucha la música.,Afirmación,En78,78,,,,,,,,,0,85,85,85,,,,,,,,,1,3.68987941947,2,0.383583179861,,,,,2018_jun._28_1205,60.0027043816,Experimento Piloto1,001,139,
2.5,Stim\\05_019.jpg,En19_25,Enojo,25,Luis decide la comida siguiente.,Afirmación,En19,19,,,,,,,,,0,86,86,86,,,,,,,,,1,0.467931986529,2,0.49995827586,,,,,2018_jun._28_1205,60.0027043816,Experimento Piloto1,001,139,
0.25,Stim\\05_028.jpg,En28_16,Enojo,16,Valeria modifica algunas imágenes.,Afirmación,En28,28,,,,,,,,,0,87,87,87,,,,,,,,,1,1.31706508386,2,0.28386605614,,,,,2018_jun._28_1205,60.0027043816,Experimento Piloto1,001,139,
2.5,Stim\\02_028.jpg,Al28_22,Alegría,22,Enrique corre todas las mañanas.,Afirmación,Al28,28,,,,,,,,,0,88,88,88,,,,,,,,,1,1.08574466879,3,0.433724439502,,,,,2018_jun._28_1205,60.0027043816,Experimento Piloto1,001,139,
0.25,Stim\\03_078.jpg,Tr78_17,Tristeza,17,Brenda sube el autobús en las mañanas.,Afirmación,Tr78,78,,,,,,,,,0,89,89,89,,,,,,,,,1,2.57963665637,4,0.433675798527,,,,,2018_jun._28_1205,60.0027043816,Experimento Piloto1,001,139,
2.5,Stim\\02_028.jpg,Al28_25,Alegría,25,Luis decide la comida siguiente.,Afirmación,Al28,28,,,,,,,,,0,90,90,90,,,,,,,,,1,1.4343099162,3,0.350316768776,,,,,2018_jun._28_1205,60.0027043816,Experimento Piloto1,001,139,
0.25,Stim\\03_028.jpg,Tr28_18,Tristeza,18,Sofía escucha la música.,Afirmación,Tr28,28,,,,,,,,,0,91,91,91,,,,,,,,,1,1.07356523625,4,0.283684433415,,,,,2018_jun._28_1205,60.0027043816,Experimento Piloto1,001,139,
2.5,Stim\\03_075.jpg,Tr75_26,Tristeza,26,Víctor trae el café a Marco.,Afirmación,Tr75,75,,,,,,,,,0,92,92,92,,,,,,,,,1,0.719650374022,4,0.283806705225,,,,,2018_jun._28_1205,60.0027043816,Experimento Piloto1,001,139,
0.25,Stim\\02_019.jpg,Al19_19,Alegría,19,Armando acompaña a Rodrígo a la tienda.,Afirmación,Al19,19,,,,,,,,,0,93,93,93,,,,,,,,,1,1.78065775986,3,0.350581839781,,,,,2018_jun._28_1205,60.0027043816,Experimento Piloto1,001,139,
0.25,Stim\\02_028.jpg,Al28_24,Alegría,24,Guadalupe comenta los resultados con los compañeros.,Afirmación,Al28,28,,,,,,,,,0,94,94,94,,,,,,,,,1,2.12197773314,3,0.650358849914,,,,,2018_jun._28_1205,60.0027043816,Experimento Piloto1,001,139,
0.25,Stim\\05_078.jpg,En78_20,Enojo,20,Karen analiza la idea.,Afirmación,En78,78,,,,,,,,,0,95,95,95,,,,,,,,,1,1.90777760275,2,0.383669751874,,,,,2018_jun._28_1205,60.0027043816,Experimento Piloto1,001,139,
2.5,Stim\\02_019.jpg,Al19_17,Alegría,17,Brenda sube el autobús en las mañanas.,Afirmación,Al19,19,,,,,,,,,0,96,96,96,,,,,,,,,1,1.38096281464,3,1.98320413725,,,,,2018_jun._28_1205,60.0027043816,Experimento Piloto1,001,139,
0.25,Stim\\03_019.jpg,Tr19_18,Tristeza,18,Sofía escucha la música.,Afirmación,Tr19,19,,,,,,,,,0,97,97,97,,,,,,,,,1,1.59099186982,2,1.41687859703,,,,,2018_jun._28_1205,60.0027043816,Experimento Piloto1,001,139,
0.25,Stim\\02_075.jpg,Al75_26,Alegría,26,Víctor trae el café a Marco.,Afirmación,Al75,75,,,,,,,,,0,98,98,98,,,,,,,,,1,1.42098675136,3,0.650475320506,,,,,2018_jun._28_1205,60.0027043816,Experimento Piloto1,001,139,
2.5,Stim\\02_075.jpg,Al75_18,Alegría,18,Sofía escucha la música.,Afirmación,Al75,75,,,,,,,,,0,99,99,99,,,,,,,,,1,0.873941333629,3,0.866879020969,,,,,2018_jun._28_1205,60.0027043816,Experimento Piloto1,001,139,
2.5,Stim\\05_019.jpg,En19_24,Enojo,24,Guadalupe comenta los resultados con los compañeros.,Afirmación,En19,19,,,,,,,,,0,100,100,100,,,,,,,,,1,2.07301188937,2,1.01674186681,,,,,2018_jun._28_1205,60.0027043816,Experimento Piloto1,001,139,
2.5,Stim\\03_019.jpg,Tr19_30,Tristeza,30,Marisol toma 2 litros de agua cada día.,Afirmación,Tr19,19,,,,,,,,,0,101,101,101,,,,,,,,,1,1.16256349544,2,0.817727538245,,,,,2018_jun._28_1205,60.0027043816,Experimento Piloto1,001,139,
2.5,Stim\\05_075.jpg,En75_17,Enojo,17,Brenda sube el autobús en las mañanas.,Afirmación,En75,75,,,,,,,,,0,102,102,102,,,,,,,,,1,1.06454835962,2,0.95029293916,,,,,2018_jun._28_1205,60.0027043816,Experimento Piloto1,001,139,
0.25,Stim\\02_019.jpg,Al19_29,Alegría,29,Miriam mira la película.,Afirmación,Al19,19,,,,,,,,,0,103,103,103,,,,,,,,,1,4.00620596374,3,0.383589873574,,,,,2018_jun._28_1205,60.0027043816,Experimento Piloto1,001,139,
0.25,Stim\\05_078.jpg,En78_22,Enojo,22,Enrique corre todas las mañanas.,Afirmación,En78,78,,,,,,,,,0,104,104,104,,,,,,,,,1,5.83289281269,2,0.916852045309,,,,,2018_jun._28_1205,60.0027043816,Experimento Piloto1,001,139,
0.25,Stim\\03_028.jpg,Tr28_21,Tristeza,21,Mauro anuncia la actividad.,Afirmación,Tr28,28,,,,,,,,,0,105,105,105,,,,,,,,,1,2.5045515012,4,1.41679202502,,,,,2018_jun._28_1205,60.0027043816,Experimento Piloto1,001,139,
2.5,Stim\\05_028.jpg,En28_19,Enojo,19,Armando acompaña a Rodrígo a la tienda.,Afirmación,En28,28,,,,,,,,,0,106,106,106,,,,,,,,,1,2.49761235284,2,0.600713371226,,,,,2018_jun._28_1205,60.0027043816,Experimento Piloto1,001,139,
2.5,Stim\\03_019.jpg,Tr19_29,Tristeza,29,Miriam mira la película.,Afirmación,Tr19,19,,,,,,,,,0,107,107,107,,,,,,,,,1,1.53995677647,2,0.300364718068,,,,,2018_jun._28_1205,60.0027043816,Experimento Piloto1,001,139,
2.5,Stim\\05_078.jpg,En78_17,Enojo,17,Brenda sube el autobús en las mañanas.,Afirmación,En78,78,,,,,,,,,0,108,108,108,,,,,,,,,1,3.43100634609,2,0.700104288037,,,,,2018_jun._28_1205,60.0027043816,Experimento Piloto1,001,139,
2.5,Stim\\02_028.jpg,Al28_21,Alegría,21,Mauro anuncia la actividad.,Afirmación,Al28,28,,,,,,,,,0,109,109,109,,,,,,,,,1,5.437136894,3,0.433822613948,,,,,2018_jun._28_1205,60.0027043816,Experimento Piloto1,001,139,
0.25,Stim\\02_075.jpg,Al75_27,Alegría,27,Claudia informa los avances en el reporte.,Afirmación,Al75,75,,,,,,,,,0,110,110,110,,,,,,,,,1,3.67806100114,3,0.450168212989,,,,,2018_jun._28_1205,60.0027043816,Experimento Piloto1,001,139,
0.25,Stim\\02_019.jpg,Al19_28,Alegría,28,Antonio responde la pregunta.,Afirmación,Al19,19,,,,,,,,,0,111,111,111,,,,,,,,,1,1.318013806,3,0.350318107518,,,,,2018_jun._28_1205,60.0027043816,Experimento Piloto1,001,139,
2.5,Stim\\05_019.jpg,En19_20,Enojo,20,Karen analiza la idea.,Afirmación,En19,19,,,,,,,,,0,112,112,112,,,,,,,,,1,0.758147698099,2,0.30000102637,,,,,2018_jun._28_1205,60.0027043816,Experimento Piloto1,001,139,
2.5,Stim\\03_078.jpg,Tr78_22,Tristeza,22,Enrique corre todas las mañanas.,Afirmación,Tr78,78,,,,,,,,,0,113,113,113,,,,,,,,,1,1.01922568029,4,0.300031817445,,,,,2018_jun._28_1205,60.0027043816,Experimento Piloto1,001,139,
2.5,Stim\\05_028.jpg,En28_18,Enojo,18,Sofía escucha la música.,Afirmación,En28,28,,,,,,,,,0,114,114,114,,,,,,,,,1,1.22346556688,2,0.50015150102,,,,,2018_jun._28_1205,60.0027043816,Experimento Piloto1,001,139,
0.25,Stim\\03_075.jpg,Tr75_29,Tristeza,29,Miriam mira la película.,Afirmación,Tr75,75,,,,,,,,,0,115,115,115,,,,,,,,,1,2.25617952358,4,0.433654378648,,,,,2018_jun._28_1205,60.0027043816,Experimento Piloto1,001,139,
0.25,Stim\\03_078.jpg,Tr78_24,Tristeza,24,Guadalupe comenta los resultados con los compañeros.,Afirmación,Tr78,78,,,,,,,,,0,116,116,116,,,,,,,,,1,3.82196331935,4,0.350342204883,,,,,2018_jun._28_1205,60.0027043816,Experimento Piloto1,001,139,
2.5,Stim\\05_075.jpg,En75_23,Enojo,23,Óscar consigue un nuevo departamento.,Afirmación,En75,75,,,,,,,,,0,117,117,117,,,,,,,,,1,1.58363458757,2,0.699989156185,,,,,2018_jun._28_1205,60.0027043816,Experimento Piloto1,001,139,
2.5,Stim\\03_019.jpg,Tr19_21,Tristeza,21,Mauro anuncia la actividad.,Afirmación,Tr19,19,,,,,,,,,0,118,118,118,,,,,,,,,1,1.3385693038,2,0.850327255591,,,,,2018_jun._28_1205,60.0027043816,Experimento Piloto1,001,139,
0.25,Stim\\03_078.jpg,Tr78_29,Tristeza,29,Miriam mira la película.,Afirmación,Tr78,78,,,,,,,,,0,119,119,119,,,,,,,,,1,1.74039909697,4,0.900407825575,,,,,2018_jun._28_1205,60.0027043816,Experimento Piloto1,001,139,
2.5,Stim\\02_078.jpg,Al78_17,Alegría,17,Brenda sube el autobús en las mañanas.,Afirmación,Al78,78,,,,,,,,,,,,,0,0,0,0,,,,,,,,,1,1.83122964833,3,0.2835630541,2018_jun._28_1205,60.0027043816,Experimento Piloto1,001,139,
2.5,Stim\\05_019.jpg,En19_23,Enojo,23,Óscar consigue un nuevo departamento.,Afirmación,En19,19,,,,,,,,,,,,,0,1,1,1,,,,,,,,,1,1.18215866865,2,0.283766096704,2018_jun._28_1205,60.0027043816,Experimento Piloto1,001,139,
0.25,Stim\\02_075.jpg,Al75_17,Alegría,17,Brenda sube el autobús en las mañanas.,Afirmación,Al75,75,,,,,,,,,,,,,0,2,2,2,,,,,,,,,1,1.32670938445,3,0.283748693052,2018_jun._28_1205,60.0027043816,Experimento Piloto1,001,139,
2.5,Stim\\02_075.jpg,Al75_24,Alegría,24,Guadalupe comenta los resultados con los compañeros.,Afirmación,Al75,75,,,,,,,,,,,,,0,3,3,3,,,,,,,,,1,1.62278611046,3,0.183495626105,2018_jun._28_1205,60.0027043816,Experimento Piloto1,001,139,
0.25,Stim\\05_075.jpg,En75_19,Enojo,19,Armando acompaña a Rodrígo a la tienda.,Afirmación,En75,75,,,,,,,,,,,,,0,4,4,4,,,,,,,,,1,2.14680203435,2,0.400342450318,2018_jun._28_1205,60.0027043816,Experimento Piloto1,001,139,
2.5,Stim\\02_019.jpg,Al19_29,Alegría,29,Miriam mira la película.,Afirmación,Al19,19,,,,,,,,,,,,,0,5,5,5,,,,,,,,,1,1.22364004964,3,1.46693685464,2018_jun._28_1205,60.0027043816,Experimento Piloto1,001,139,
2.5,Stim\\02_078.jpg,Al78_24,Alegría,24,Guadalupe comenta los resultados con los compañeros.,Afirmación,Al78,78,,,,,,,,,,,,,0,6,6,6,,,,,,,,,1,2.50457559856,3,0.233768082506,2018_jun._28_1205,60.0027043816,Experimento Piloto1,001,139,
0.25,Stim\\05_028.jpg,En28_20,Enojo,20,Karen analiza la idea.,Afirmación,En28,28,,,,,,,,,,,,,0,7,7,7,,,,,,,,,1,1.32533895843,2,0.866836181211,2018_jun._28_1205,60.0027043816,Experimento Piloto1,001,139,
0.25,Stim\\03_078.jpg,Tr78_27,Tristeza,27,Claudia informa los avances en el reporte.,Afirmación,Tr78,78,,,,,,,,,,,,,0,8,8,8,,,,,,,,,1,3.51162006132,4,0.250348407722,2018_jun._28_1205,60.0027043816,Experimento Piloto1,001,139,
0.25,Stim\\02_019.jpg,Al19_30,Alegría,30,Marisol toma 2 litros de agua cada día.,Afirmación,Al19,19,,,,,,,,,,,,,0,9,9,9,,,,,,,,,1,1.21488110405,3,0.850397316446,2018_jun._28_1205,60.0027043816,Experimento Piloto1,001,139,
2.5,Stim\\02_019.jpg,Al19_19,Alegría,19,Armando acompaña a Rodrígo a la tienda.,Afirmación,Al19,19,,,,,,,,,,,,,0,10,10,10,,,,,,,,,1,0.913895209488,3,0.199394085168,2018_jun._28_1205,60.0027043816,Experimento Piloto1,001,139,
0.25,Stim\\02_028.jpg,Al28_30,Alegría,30,Marisol toma 2 litros de agua cada día.,Afirmación,Al28,28,,,,,,,,,,,,,0,11,11,11,,,,,,,,,1,1.20765858855,3,0.183742847211,2018_jun._28_1205,60.0027043816,Experimento Piloto1,001,139,
2.5,Stim\\02_019.jpg,Al19_16,Alegría,16,Valeria modifica algunas imágenes.,Afirmación,Al19,19,,,,,,,,,,,,,0,12,12,12,,,,,,,,,1,0.61791799667,3,0.183883415168,2018_jun._28_1205,60.0027043816,Experimento Piloto1,001,139,
2.5,Stim\\03_075.jpg,Tr75_30,Tristeza,30,Marisol toma 2 litros de agua cada día.,Afirmación,Tr75,75,,,,,,,,,,,,,0,13,13,13,,,,,,,,,1,0.665021203449,4,0.23373015147,2018_jun._28_1205,60.0027043816,Experimento Piloto1,001,139,
2.5,Stim\\02_078.jpg,Al78_19,Alegría,19,Armando acompaña a Rodrígo a la tienda.,Afirmación,Al78,78,,,,,,,,,,,,,0,14,14,14,,,,,,,,,1,1.28040629941,3,0.333789100762,2018_jun._28_1205,60.0027043816,Experimento Piloto1,001,139,
2.5,Stim\\05_075.jpg,En75_25,Enojo,25,Luis decide la comida siguiente.,Afirmación,En75,75,,,,,,,,,,,,,0,15,15,15,,,,,,,,,1,3.23383591212,2,2.3830807052,2018_jun._28_1205,60.0027043816,Experimento Piloto1,001,139,
0.25,Stim\\03_075.jpg,Tr75_24,Tristeza,24,Guadalupe comenta los resultados con los compañeros.,Afirmación,Tr75,75,,,,,,,,,,,,,0,16,16,16,,,,,,,,,1,2.03927647218,4,1.26676362137,2018_jun._28_1205,60.0027043816,Experimento Piloto1,001,139,
2.5,Stim\\05_078.jpg,En78_25,Enojo,25,Luis decide la comida siguiente.,Afirmación,En78,78,,,,,,,,,,,,,0,17,17,17,,,,,,,,,1,1.06830130095,2,0.283766096704,2018_jun._28_1205,60.0027043816,Experimento Piloto1,001,139,
2.5,Stim\\05_028.jpg,En28_17,Enojo,17,Brenda sube el autobús en las mañanas.,Afirmación,En28,28,,,,,,,,,,,,,0,18,18,18,,,,,,,,,1,1.79824615814,2,0.283873642347,2018_jun._28_1205,60.0027043816,Experimento Piloto1,001,139,
0.25,Stim\\02_078.jpg,Al78_26,Alegría,26,Víctor trae el café a Marco.,Afirmación,Al78,78,,,,,,,,,,,,,0,19,19,19,,,,,,,,,1,3.4372515796,3,0.80021812577,2018_jun._28_1205,60.0027043816,Experimento Piloto1,001,139,
2.5,Stim\\03_075.jpg,Tr75_20,Tristeza,20,Karen analiza la idea.,Afirmación,Tr75,75,,,,,,,,,,,,,0,20,20,20,,,,,,,,,1,1.22508276775,4,0.86682368628,2018_jun._28_1205,60.0027043816,Experimento Piloto1,001,139,
2.5,Stim\\05_028.jpg,En28_21,Enojo,21,Mauro anuncia la actividad.,Afirmación,En28,28,,,,,,,,,,,,,0,21,21,21,,,,,,,,,1,2.20547733085,2,0.433712837068,2018_jun._28_1205,60.0027043816,Experimento Piloto1,001,139,
0.25,Stim\\05_019.jpg,En19_21,Enojo,21,Mauro anuncia la actividad.,Afirmación,En19,19,,,,,,,,,,,,,0,22,22,22,,,,,,,,,1,1.19997108316,2,0.333678877634,2018_jun._28_1205,60.0027043816,Experimento Piloto1,001,139,
0.25,Stim\\03_028.jpg,Tr28_16,Tristeza,16,Valeria modifica algunas imágenes.,Afirmación,Tr28,28,,,,,,,,,,,,,0,23,23,23,,,,,,,,,1,1.06423732512,4,0.283650964854,2018_jun._28_1205,60.0027043816,Experimento Piloto1,001,139,
0.25,Stim\\05_075.jpg,En75_27,Enojo,27,Claudia informa los avances en el reporte.,Afirmación,En75,75,,,,,,,,,,,,,0,24,24,24,,,,,,,,,1,1.22900929935,2,0.283675062218,2018_jun._28_1205,60.0027043816,Experimento Piloto1,001,139,
2.5,Stim\\02_078.jpg,Al78_18,Alegría,18,Sofía escucha la música.,Afirmación,Al78,78,,,,,,,,,,,,,0,25,25,25,,,,,,,,,1,1.24086787995,3,0.599998482759,2018_jun._28_1205,60.0027043816,Experimento Piloto1,001,139,
2.5,Stim\\03_028.jpg,Tr28_25,Tristeza,25,Luis decide la comida siguiente.,Afirmación,Tr28,28,,,,,,,,,,,,,0,26,26,26,,,,,,,,,1,2.50064951321,4,1.16683274511,2018_jun._28_1205,60.0027043816,Experimento Piloto1,001,139,
0.25,Stim\\03_075.jpg,Tr75_18,Tristeza,18,Sofía escucha la música.,Afirmación,Tr75,75,,,,,,,,,,,,,0,27,27,27,,,,,,,,,1,1.88982238904,4,1.51677778973,2018_jun._28_1205,60.0027043816,Experimento Piloto1,001,139,
2.5,Stim\\02_028.jpg,Al28_27,Alegría,27,Claudia informa los avances en el reporte.,Afirmación,Al28,28,,,,,,,,,,,,,0,28,28,28,,,,,,,,,1,4.04506385578,3,0.233627960796,2018_jun._28_1205,60.0027043816,Experimento Piloto1,001,139,
2.5,Stim\\02_028.jpg,Al28_20,Alegría,20,Karen analiza la idea.,Afirmación,Al28,28,,,,,,,,,,,,,0,29,29,29,,,,,,,,,1,1.2413654459,3,1.98322377214,2018_jun._28_1205,60.0027043816,Experimento Piloto1,001,139,
0.25,Stim\\05_078.jpg,En78_29,Enojo,29,Miriam mira la película.,Afirmación,En78,78,,,,,,,,,,,,,0,30,30,30,,,,,,,,,1,1.32396942491,2,0.600786555813,2018_jun._28_1205,60.0027043816,Experimento Piloto1,001,139,
0.25,Stim\\05_019.jpg,En19_22,Enojo,22,Enrique corre todas las mañanas.,Afirmación,En19,19,,,,,,,,,,,,,0,31,31,31,,,,,,,,,1,0.81936794399,2,0.233951043973,2018_jun._28_1205,60.0027043816,Experimento Piloto1,001,139,
2.5,Stim\\03_019.jpg,Tr19_20,Tristeza,20,Karen analiza la idea.,Afirmación,Tr19,19,,,,,,,,,,,,,0,32,32,32,,,,,,,,,1,0.675595930044,2,0.283671045991,2018_jun._28_1205,60.0027043816,Experimento Piloto1,001,139,
2.5,Stim\\05_078.jpg,En78_22,Enojo,22,Enrique corre todas las mañanas.,Afirmación,En78,78,,,,,,,,,,,,,0,33,33,33,,,,,,,,,1,3.08482539898,2,0.750198691691,2018_jun._28_1205,60.0027043816,Experimento Piloto1,001,139,
2.5,Stim\\02_078.jpg,Al78_16,Alegría,16,Valeria modifica algunas imágenes.,Afirmación,Al78,78,,,,,,,,,,,,,0,34,34,34,,,,,,,,,1,0.917385757297,3,0.333294212304,2018_jun._28_1205,60.0027043816,Experimento Piloto1,001,139,
2.5,Stim\\05_028.jpg,En28_24,Enojo,24,Guadalupe comenta los resultados con los compañeros.,Afirmación,En28,28,,,,,,,,,,,,,0,35,35,35,,,,,,,,,1,1.17219306987,2,1.71643873089,2018_jun._28_1205,60.0027043816,Experimento Piloto1,001,139,
2.5,Stim\\02_075.jpg,Al75_16,Alegría,16,Valeria modifica algunas imágenes.,Afirmación,Al75,75,,,,,,,,,,,,,0,36,36,36,,,,,,,,,1,1.2845376586,3,0.850305835712,2018_jun._28_1205,60.0027043816,Experimento Piloto1,001,139,
0.25,Stim\\02_019.jpg,Al19_18,Alegría,18,Sofía escucha la música.,Afirmación,Al19,19,,,,,,,,,,,,,0,37,37,37,,,,,,,,,1,1.12373460948,3,0.35071125155,2018_jun._28_1205,60.0027043816,Experimento Piloto1,001,139,
2.5,Stim\\02_028.jpg,Al28_26,Alegría,26,Víctor trae el café a Marco.,Afirmación,Al28,28,,,,,,,,,,,,,0,38,38,38,,,,,,,,,1,0.720848102265,3,0.283816076422,2018_jun._28_1205,60.0027043816,Experimento Piloto1,001,139,
2.5,Stim\\02_078.jpg,Al78_29,Alegría,29,Miriam mira la película.,Afirmación,Al78,78,,,,,,,,,,,,,0,39,39,39,,,,,,,,,1,1.2238783458,3,0.300041188643,2018_jun._28_1205,60.0027043816,Experimento Piloto1,001,139,
0.25,Stim\\05_078.jpg,En78_24,Enojo,24,Guadalupe comenta los resultados con los compañeros.,Afirmación,En78,78,,,,,,,,,,,,,0,40,40,40,,,,,,,,,1,4.3387290604,2,1.51670505139,2018_jun._28_1205,60.0027043816,Experimento Piloto1,001,139,
0.25,Stim\\03_075.jpg,Tr75_19,Tristeza,19,Armando acompaña a Rodrígo a la tienda.,Afirmación,Tr75,75,,,,,,,,,,,,,0,41,41,41,,,,,,,,,1,1.73039467466,4,1.06680235565,2018_jun._28_1205,60.0027043816,Experimento Piloto1,001,139,
0.25,Stim\\02_028.jpg,Al28_17,Alegría,17,Brenda sube el autobús en las mañanas.,Afirmación,Al28,28,,,,,,,,,,,,,0,42,42,42,,,,,,,,,1,3.56412866386,3,0.400334417864,2018_jun._28_1205,60.0027043816,Experimento Piloto1,001,139,
2.5,Stim\\05_075.jpg,En75_21,Enojo,21,Mauro anuncia la actividad.,Afirmación,En75,75,,,,,,,,,,,,,0,43,43,43,,,,,,,,,1,1.28859449447,2,1.15019976269,2018_jun._28_1205,60.0027043816,Experimento Piloto1,001,139,
0.25,Stim\\03_019.jpg,Tr19_27,Tristeza,27,Claudia informa los avances en el reporte.,Afirmación,Tr19,19,,,,,,,,,,,,,0,44,44,44,,,,,,,,,1,4.71105163128,2,0.483572514546,2018_jun._28_1205,60.0027043816,Experimento Piloto1,001,139,
2.5,Stim\\02_075.jpg,Al75_19,Alegría,19,Armando acompaña a Rodrígo a la tienda.,Afirmación,Al75,75,,,,,,,,,,,,,0,45,45,45,,,,,,,,,1,4.19645688424,3,2.7160817329,2018_jun._28_1205,60.0027043816,Experimento Piloto1,001,139,
2.5,Stim\\03_019.jpg,Tr19_22,Tristeza,22,Enrique corre todas las mañanas.,Afirmación,Tr19,19,,,,,,,,,,,,,0,46,46,46,,,,,,,,,1,0.402732105587,2,0.283879443565,2018_jun._28_1205,60.0027043816,Experimento Piloto1,001,139,
2.5,Stim\\02_075.jpg,Al75_23,Alegría,23,Óscar consigue un nuevo departamento.,Afirmación,Al75,75,,,,,,,,,,,,,0,47,47,47,,,,,,,,,1,0.866107905319,3,0.300329464516,2018_jun._28_1205,60.0027043816,Experimento Piloto1,001,139,
2.5,Stim\\02_019.jpg,Al19_27,Alegría,27,Claudia informa los avances en el reporte.,Afirmación,Al19,19,,,,,,,,,,,,,0,48,48,48,,,,,,,,,1,0.961881540036,3,1.11676957877,2018_jun._28_1205,60.0027043816,Experimento Piloto1,001,139,
2.5,Stim\\03_028.jpg,Tr28_16,Tristeza,16,Valeria modifica algunas imágenes.,Afirmación,Tr28,28,,,,,,,,,,,,,0,49,49,49,,,,,,,,,1,0.81729601693,4,0.233596277225,2018_jun._28_1205,60.0027043816,Experimento Piloto1,001,139,
2.5,Stim\\02_078.jpg,Al78_20,Alegría,20,Karen analiza la idea.,Afirmación,Al78,78,,,,,,,,,,,,,0,50,50,50,,,,,,,,,1,0.775247455384,3,0.183736599745,2018_jun._28_1205,60.0027043816,Experimento Piloto1,001,139,
2.5,Stim\\05_075.jpg,En75_24,Enojo,24,Guadalupe comenta los resultados con los compañeros.,Afirmación,En75,75,,,,,,,,,,,,,0,51,51,51,,,,,,,,,1,2.28845214152,2,0.450083425967,2018_jun._28_1205,60.0027043816,Experimento Piloto1,001,139,
0.25,Stim\\03_028.jpg,Tr28_26,Tristeza,26,Víctor trae el café a Marco.,Afirmación,Tr28,28,,,,,,,,,,,,,0,52,52,52,,,,,,,,,1,1.1711323396,4,0.283746461816,2018_jun._28_1205,60.0027043816,Experimento Piloto1,001,139,
2.5,Stim\\03_028.jpg,Tr28_21,Tristeza,21,Mauro anuncia la actividad.,Afirmación,Tr28,28,,,,,,,,,,,,,0,53,53,53,,,,,,,,,1,1.13907704418,4,0.850766363114,2018_jun._28_1205,60.0027043816,Experimento Piloto1,001,139,
2.5,Stim\\02_075.jpg,Al75_29,Alegría,29,Miriam mira la película.,Afirmación,Al75,75,,,,,,,,,,,,,0,54,54,54,,,,,,,,,1,0.924229408691,3,4.299046503,2018_jun._28_1205,60.0027043816,Experimento Piloto1,001,139,
0.25,Stim\\03_078.jpg,Tr78_26,Tristeza,26,Víctor trae el café a Marco.,Afirmación,Tr78,78,,,,,,,,,,,,,0,55,55,55,,,,,,,,,1,1.78773569119,4,0.333587843147,2018_jun._28_1205,60.0027043816,Experimento Piloto1,001,139,
0.25,Stim\\05_019.jpg,En19_19,Enojo,19,Armando acompaña a Rodrígo a la tienda.,Afirmación,En19,19,,,,,,,,,,,,,0,56,56,56,,,,,,,,,1,1.06160357248,2,0.233651165665,2018_jun._28_1205,60.0027043816,Experimento Piloto1,001,139,
0.25,Stim\\03_078.jpg,Tr78_19,Tristeza,19,Armando acompaña a Rodrígo a la tienda.,Afirmación,Tr78,78,,,,,,,,,,,,,0,57,57,57,,,,,,,,,1,1.03342795267,4,0.350208330638,2018_jun._28_1205,60.0027043816,Experimento Piloto1,001,139,
2.5,Stim\\03_078.jpg,Tr78_18,Tristeza,18,Sofía escucha la música.,Afirmación,Tr78,78,,,,,,,,,,,,,0,58,58,58,,,,,,,,,1,0.87416624236,4,0.283784839099,2018_jun._28_1205,60.0027043816,Experimento Piloto1,001,139,
2.5,Stim\\05_075.jpg,En75_26,Enojo,26,Víctor trae el café a Marco.,Afirmación,En75,75,,,,,,,,,,,,,0,59,59,59,,,,,,,,,1,3.18759039301,2,1.31666479987,2018_jun._28_1205,60.0027043816,Experimento Piloto1,001,139,
2.5,Stim\\02_075.jpg,Al75_30,Alegría,30,Marisol toma 2 litros de agua cada día.,Afirmación,Al75,75,,,,,,,,,,,,,0,60,60,60,,,,,,,,,1,1.11466953812,3,0.299899728191,2018_jun._28_1205,60.0027043816,Experimento Piloto1,001,139,
2.5,Stim\\03_019.jpg,Tr19_18,Tristeza,18,Sofía escucha la música.,Afirmación,Tr19,19,,,,,,,,,,,,,0,61,61,61,,,,,,,,,1,0.703284693845,2,0.816935002715,2018_jun._28_1205,60.0027043816,Experimento Piloto1,001,139,
0.25,Stim\\03_078.jpg,Tr78_23,Tristeza,23,Óscar consigue un nuevo departamento.,Afirmación,Tr78,78,,,,,,,,,,,,,0,62,62,62,,,,,,,,,1,6.18118808037,2,0.250272099403,2018_jun._28_1205,60.0027043816,Experimento Piloto1,001,139,
2.5,Stim\\03_019.jpg,Tr19_25,Tristeza,25,Luis decide la comida siguiente.,Afirmación,Tr19,19,,,,,,,,,,,,,0,63,63,63,,,,,,,,,1,0.917458941885,2,0.283761187982,2018_jun._28_1205,60.0027043816,Experimento Piloto1,001,139,
0.25,Stim\\02_028.jpg,Al28_29,Alegría,29,Miriam mira la película.,Afirmación,Al28,28,,,,,,,,,,,,,0,64,64,64,,,,,,,,,1,1.68995795902,3,0.60028898987,2018_jun._28_1205,60.0027043816,Experimento Piloto1,001,139,
2.5,Stim\\02_019.jpg,Al19_21,Alegría,21,Mauro anuncia la actividad.,Afirmación,Al19,19,,,,,,,,,,,,,0,65,65,65,,,,,,,,,1,1.78852376424,3,0.350539892517,2018_jun._28_1205,60.0027043816,Experimento Piloto1,001,139,
2.5,Stim\\02_078.jpg,Al78_25,Alegría,25,Luis decide la comida siguiente.,Afirmación,Al78,78,,,,,,,,,,,,,0,66,66,66,,,,,,,,,1,0.450884886445,3,0.300403541598,2018_jun._28_1205,60.0027043816,Experimento Piloto1,001,139,
2.5,Stim\\05_075.jpg,En75_29,Enojo,29,Miriam mira la película.,Afirmación,En75,75,,,,,,,,,,,,,0,67,67,67,,,,,,,,,1,0.873996222069,2,0.333806504414,2018_jun._28_1205,60.0027043816,Experimento Piloto1,001,139,
0.25,Stim\\03_028.jpg,Tr28_20,Tristeza,20,Karen analiza la idea.,Afirmación,Tr28,28,,,,,,,,,,,,,0,68,68,68,,,,,,,,,1,0.975285921918,3,0.333651656538,2018_jun._28_1205,60.0027043816,Experimento Piloto1,001,139,
2.5,Stim\\02_075.jpg,Al75_26,Alegría,26,Víctor trae el café a Marco.,Afirmación,Al75,75,,,,,,,,,,,,,0,69,69,69,,,,,,,,,1,1.75449962493,3,0.233702037878,2018_jun._28_1205,60.0027043816,Experimento Piloto1,001,139,
0.25,Stim\\05_019.jpg,En19_20,Enojo,20,Karen analiza la idea.,Afirmación,En19,19,,,,,,,,,,,,,0,70,70,70,,,,,,,,,1,2.77477532555,2,0.850175977695,2018_jun._28_1205,60.0027043816,Experimento Piloto1,001,139,
0.25,Stim\\05_028.jpg,En28_22,Enojo,22,Enrique corre todas las mañanas.,Afirmación,En28,28,,,,,,,,,,,,,0,71,71,71,,,,,,,,,1,4.64327243989,2,1.83339841109,2018_jun._28_1205,60.0027043816,Experimento Piloto1,001,139,
2.5,Stim\\05_028.jpg,En28_22,Enojo,22,Enrique corre todas las mañanas.,Afirmación,En28,28,,,,,,,,,,,,,0,72,72,72,,,,,,,,,1,1.69998290872,2,0.450251661268,2018_jun._28_1205,60.0027043816,Experimento Piloto1,001,139,
0.25,Stim\\05_019.jpg,En19_17,Enojo,17,Brenda sube el autobús en las mañanas.,Afirmación,En19,19,,,,,,,,,,,,,0,73,73,73,,,,,,,,,1,0.847616302134,2,0.450682290088,2018_jun._28_1205,60.0027043816,Experimento Piloto1,001,139,
2.5,Stim\\05_078.jpg,En78_26,Enojo,26,Víctor trae el café a Marco.,Afirmación,En78,78,,,,,,,,,,,,,0,74,74,74,,,,,,,,,1,1.0187370393,2,0.300292872223,2018_jun._28_1205,60.0027043816,Experimento Piloto1,001,139,
2.5,Stim\\03_078.jpg,Tr78_29,Tristeza,29,Miriam mira la película.,Afirmación,Tr78,78,,,,,,,,,,,,,0,75,75,75,,,,,,,,,1,0.507127241669,4,0.450111985806,2018_jun._28_1205,60.0027043816,Experimento Piloto1,001,139,
0.25,Stim\\02_075.jpg,Al75_22,Alegría,22,Enrique corre todas las mañanas.,Afirmación,Al75,75,,,,,,,,,,,,,0,76,76,76,,,,,,,,,1,1.01835951393,3,0.283812060195,2018_jun._28_1205,60.0027043816,Experimento Piloto1,001,139,
2.5,Stim\\02_019.jpg,Al19_23,Alegría,23,Óscar consigue un nuevo departamento.,Afirmación,Al19,19,,,,,,,,,,,,,0,77,77,77,,,,,,,,,1,0.912789408227,3,0.300166584185,2018_jun._28_1205,60.0027043816,Experimento Piloto1,001,139,
0.25,Stim\\05_075.jpg,En75_21,Enojo,21,Mauro anuncia la actividad.,Afirmación,En75,75,,,,,,,,,,,,,0,78,78,78,,,,,,,,,1,1.27052950388,2,0.400308089262,2018_jun._28_1205,60.0027043816,Experimento Piloto1,001,139,
0.25,Stim\\02_078.jpg,Al78_25,Alegría,25,Luis decide la comida siguiente.,Afirmación,Al78,78,,,,,,,,,,,,,0,79,79,79,,,,,,,,,1,0.751261653196,3,0.300187111569,2018_jun._28_1205,60.0027043816,Experimento Piloto1,001,139,
0.25,Stim\\03_078.jpg,Tr78_22,Tristeza,22,Enrique corre todas las mañanas.,Afirmación,Tr78,78,,,,,,,,,,,,,0,80,80,80,,,,,,,,,1,0.89972774441,4,0.350427884398,2018_jun._28_1205,60.0027043816,Experimento Piloto1,001,139,
0.25,Stim\\05_028.jpg,En28_26,Enojo,26,Víctor trae el café a Marco.,Afirmación,En28,28,,,,,,,,,,,,,0,81,81,81,,,,,,,,,1,1.37146889945,2,0.300373643017,2018_jun._28_1205,60.0027043816,Experimento Piloto1,001,139,
2.5,Stim\\05_019.jpg,En19_29,Enojo,29,Miriam mira la película.,Afirmación,En19,19,,,,,,,,,,,,,0,82,82,82,,,,,,,,,1,1.02333561961,2,0.283731735648,2018_jun._28_1205,60.0027043816,Experimento Piloto1,001,139,
0.25,Stim\\02_019.jpg,Al19_21,Alegría,21,Mauro anuncia la actividad.,Afirmación,Al19,19,,,,,,,,,,,,,0,83,83,83,,,,,,,,,1,1.28734678651,3,0.233580658562,2018_jun._28_1205,60.0027043816,Experimento Piloto1,001,139,
2.5,Stim\\05_078.jpg,En78_30,Enojo,30,Marisol toma 2 litros de agua cada día.,Afirmación,En78,78,,,,,,,,,,,,,0,84,84,84,,,,,,,,,1,0.964943244014,2,0.600456332676,2018_jun._28_1205,60.0027043816,Experimento Piloto1,001,139,
0.25,Stim\\02_078.jpg,Al78_30,Alegría,30,Marisol toma 2 litros de agua cada día.,Afirmación,Al78,78,,,,,,,,,,,,,0,85,85,85,,,,,,,,,1,1.0836874679,3,0.283668368506,2018_jun._28_1205,60.0027043816,Experimento Piloto1,001,139,
0.25,Stim\\03_075.jpg,Tr75_16,Tristeza,16,Valeria modifica algunas imágenes.,Afirmación,Tr75,75,,,,,,,,,,,,,0,86,86,86,,,,,,,,,1,4.81682388709,2,1.16670511832,2018_jun._28_1205,60.0027043816,Experimento Piloto1,001,139,
0.25,Stim\\02_019.jpg,Al19_24,Alegría,24,Guadalupe comenta los resultados con los compañeros.,Afirmación,Al19,19,,,,,,,,,,,,,0,87,87,87,,,,,,,,,1,2.07215152422,2,1.63326712508,2018_jun._28_1205,60.0027043816,Experimento Piloto1,001,139,
2.5,Stim\\02_028.jpg,Al28_29,Alegría,29,Miriam mira la película.,Afirmación,Al28,28,,,,,,,,,,,,,0,88,88,88,,,,,,,,,1,0.921108353798,3,0.283682202177,2018_jun._28_1205,60.0027043816,Experimento Piloto1,001,139,
0.25,Stim\\03_019.jpg,Tr19_25,Tristeza,25,Luis decide la comida siguiente.,Afirmación,Tr19,19,,,,,,,,,,,,,0,89,89,89,,,,,,,,,1,1.58419105818,2,1.46679494794,2018_jun._28_1205,60.0027043816,Experimento Piloto1,001,139,
0.25,Stim\\03_075.jpg,Tr75_25,Tristeza,25,Luis decide la comida siguiente.,Afirmación,Tr75,75,,,,,,,,,,,,,0,90,90,90,,,,,,,,,1,1.13344049223,4,0.700463517261,2018_jun._28_1205,60.0027043816,Experimento Piloto1,001,139,
2.5,Stim\\03_078.jpg,Tr78_25,Tristeza,25,Luis decide la comida siguiente.,Afirmación,Tr78,78,,,,,,,,,,,,,0,91,91,91,,,,,,,,,1,3.2498209432,4,1.46669364976,2018_jun._28_1205,60.0027043816,Experimento Piloto1,001,139,
2.5,Stim\\02_019.jpg,Al19_18,Alegría,18,Sofía escucha la música.,Afirmación,Al19,19,,,,,,,,,,,,,0,92,92,92,,,,,,,,,1,2.6733267616,3,1.15006588844,2018_jun._28_1205,60.0027043816,Experimento Piloto1,001,139,
2.5,Stim\\03_028.jpg,Tr28_19,Tristeza,19,Armando acompaña a Rodrígo a la tienda.,Afirmación,Tr28,28,,,,,,,,,,,,,0,93,93,93,,,,,,,,,1,3.99711724126,4,0.350582286027,2018_jun._28_1205,60.0027043816,Experimento Piloto1,001,139,
0.25,Stim\\03_078.jpg,Tr78_18,Tristeza,18,Sofía escucha la música.,Afirmación,Tr78,78,,,,,,,,,,,,,0,94,94,94,,,,,,,,,1,2.24036629778,4,0.650120553758,2018_jun._28_1205,60.0027043816,Experimento Piloto1,001,139,
0.25,Stim\\05_019.jpg,En19_29,Enojo,29,Miriam mira la película.,Afirmación,En19,19,,,,,,,,,,,,,0,95,95,95,,,,,,,,,1,3.02345566018,2,1.46662001893,2018_jun._28_1205,60.0027043816,Experimento Piloto1,001,139,
2.5,Stim\\03_078.jpg,Tr78_24,Tristeza,24,Guadalupe comenta los resultados con los compañeros.,Afirmación,Tr78,78,,,,,,,,,,,,,0,96,96,96,,,,,,,,,1,1.57304334982,4,0.350492590283,2018_jun._28_1205,60.0027043816,Experimento Piloto1,001,139,
2.5,Stim\\05_019.jpg,En19_22,Enojo,22,Enrique corre todas las mañanas.,Afirmación,En19,19,,,,,,,,,,,,,0,97,97,97,,,,,,,,,1,1.43536841523,2,0.383572023674,2018_jun._28_1205,60.0027043816,Experimento Piloto1,001,139,
0.25,Stim\\02_028.jpg,Al28_20,Alegría,20,Karen analiza la idea.,Afirmación,Al28,28,,,,,,,,,,,,,0,98,98,98,,,,,,,,,1,1.23905299144,3,0.333701636256,2018_jun._28_1205,60.0027043816,Experimento Piloto1,001,139,
2.5,Stim\\03_078.jpg,Tr78_27,Tristeza,27,Claudia informa los avances en el reporte.,Afirmación,Tr78,78,,,,,,,,,,,,,0,99,99,99,,,,,,,,,1,1.27952005191,4,0.850285754575,2018_jun._28_1205,60.0027043816,Experimento Piloto1,001,139,
0.25,Stim\\03_075.jpg,Tr75_17,Tristeza,17,Brenda sube el autobús en las mañanas.,Afirmación,Tr75,75,,,,,,,,,,,,,0,100,100,100,,,,,,,,,1,1.48189774774,4,0.433853851272,2018_jun._28_1205,60.0027043816,Experimento Piloto1,001,139,
2.5,Stim\\05_028.jpg,En28_25,Enojo,25,Luis decide la comida siguiente.,Afirmación,En28,28,,,,,,,,,,,,,0,101,101,101,,,,,,,,,1,1.43573344567,2,0.966752777555,2018_jun._28_1205,60.0027043816,Experimento Piloto1,001,139,
2.5,Stim\\02_028.jpg,Tr28_30,Tristeza,30,Marisol toma 2 litros de agua cada día.,Afirmación,Tr28,28,,,,,,,,,,,,,0,102,102,102,,,,,,,,,1,0.91533435762,3,0.533715559177,2018_jun._28_1205,60.0027043816,Experimento Piloto1,001,139,
0.25,Stim\\02_078.jpg,Al78_18,Alegría,18,Sofía escucha la música.,Afirmación,Al78,78,,,,,,,,,,,,,0,103,103,103,,,,,,,,,1,2.00732247494,3,1.05008458621,2018_jun._28_1205,60.0027043816,Experimento Piloto1,001,139,
0.25,Stim\\02_078.jpg,Al78_24,Alegría,24,Guadalupe comenta los resultados con los compañeros.,Afirmación,Al78,78,,,,,,,,,,,,,0,104,104,104,,,,,,,,,1,1.47337174334,3,0.283675954714,2018_jun._28_1205,60.0027043816,Experimento Piloto1,001,139,
0.25,Stim\\05_075.jpg,En75_26,Enojo,26,Víctor trae el café a Marco.,Afirmación,En75,75,,,,,,,,,,,,,0,105,105,105,,,,,,,,,1,0.821534475519,2,0.500456734298,2018_jun._28_1205,60.0027043816,Experimento Piloto1,001,139,
0.25,Stim\\05_019.jpg,En19_16,Enojo,16,Valeria modifica algunas imágenes.,Afirmación,En19,19,,,,,,,,,,,,,0,106,106,106,,,,,,,,,1,1.21785846726,2,0.283787070336,2018_jun._28_1205,60.0027043816,Experimento Piloto1,001,139,
2.5,Stim\\05_019.jpg,En19_21,Enojo,21,Mauro anuncia la actividad.,Afirmación,En19,19,,,,,,,,,,,,,0,107,107,107,,,,,,,,,1,1.08841769121,2,0.333864962835,2018_jun._28_1205,60.0027043816,Experimento Piloto1,001,139,
0.25,Stim\\03_028.jpg,Tr28_22,Tristeza,22,Enrique corre todas las mañanas.,Afirmación,Tr28,28,,,,,,,,,,,,,0,108,108,108,,,,,,,,,1,0.769010254321,4,0.334051048035,2018_jun._28_1205,60.0027043816,Experimento Piloto1,001,139,
2.5,Stim\\05_075.jpg,En75_28,Enojo,28,Antonio responde la pregunta.,Afirmación,En75,75,,,,,,,,,,,,,0,109,109,109,,,,,,,,,1,1.13707740921,2,0.800177071002,2018_jun._28_1205,60.0027043816,Experimento Piloto1,001,139,
2.5,Stim\\05_078.jpg,En78_28,Enojo,28,Antonio responde la pregunta.,Afirmación,En78,78,,,,,,,,,,,,,0,110,110,110,,,,,,,,,1,1.33328974983,2,0.450369470603,2018_jun._28_1205,60.0027043816,Experimento Piloto1,001,139,
2.5,Stim\\03_028.jpg,Tr28_26,Tristeza,26,Víctor trae el café a Marco.,Afirmación,Tr28,28,,,,,,,,,,,,,0,111,111,111,,,,,,,,,1,2.04706839948,4,1.16679436782,2018_jun._28_1205,60.0027043816,Experimento Piloto1,001,139,
2.5,Stim\\05_028.jpg,En28_20,Enojo,20,Karen analiza la idea.,Afirmación,En28,28,,,,,,,,,,,,,0,112,112,112,,,,,,,,,1,2.50816655205,2,0.850034963491,2018_jun._28_1205,60.0027043816,Experimento Piloto1,001,139,
2.5,Stim\\02_019.jpg,Al19_30,Alegría,30,Marisol toma 2 litros de agua cada día.,Afirmación,Al19,19,,,,,,,,,,,,,0,113,113,113,,,,,,,,,1,0.98127188565,3,0.533577222457,2018_jun._28_1205,60.0027043816,Experimento Piloto1,001,139,
2.5,Stim\\05_078.jpg,En78_23,Enojo,23,Óscar consigue un nuevo departamento.,Afirmación,En78,78,,,,,,,,,,,,,0,114,114,114,,,,,,,,,1,1.23205716966,2,0.283702283315,2018_jun._28_1205,60.0027043816,Experimento Piloto1,001,139,
0.25,Stim\\05_078.jpg,En78_23,Enojo,23,Óscar consigue un nuevo departamento.,Afirmación,En78,78,,,,,,,,,,,,,0,115,115,115,,,,,,,,,1,4.68274615346,2,2.38296021838,2018_jun._28_1205,60.0027043816,Experimento Piloto1,001,139,
2.5,Stim\\05_019.jpg,En19_19,Enojo,19,Armando acompaña a Rodrígo a la tienda.,Afirmación,En19,19,,,,,,,,,,,,,0,116,116,116,,,,,,,,,1,2.14754592891,2,0.350298026381,2018_jun._28_1205,60.0027043816,Experimento Piloto1,001,139,
2.5,Stim\\03_078.jpg,Tr78_17,Tristeza,17,Brenda sube el autobús en las mañanas.,Afirmación,Tr78,78,,,,,,,,,,,,,0,117,117,117,,,,,,,,,1,3.01473375313,4,0.401118028443,2018_jun._28_1205,60.0027043816,Experimento Piloto1,001,139,
0.25,Stim\\05_075.jpg,En75_20,Enojo,20,Karen analiza la idea.,Afirmación,En75,75,,,,,,,,,,,,,0,118,118,118,,,,,,,,,1,4.40773810985,2,2.99947565921,2018_jun._28_1205,60.0027043816,Experimento Piloto1,001,139,
0.25,Stim\\05_078.jpg,En78_28,Enojo,28,Antonio responde la pregunta.,Afirmación,En78,78,,,,,,,,,,,,,0,119,119,119,,,,,,,,,1,1.98675626721,2,0.650375807318,2018_jun._28_1205,60.0027043816,Experimento Piloto1,001,139,
